{
  "resourceType": "Bundle",
  "id": "NUMERFAIL-Medication15DaysAfterSUD",
  "type": "transaction",
  "entry": [ {
    "fullUrl": "https://madie.cms.gov/Patient/abedeee4-b615-45f1-90b3-0ae38c533b2d",
    "resource": {
      "resourceType": "Patient",
      "id": "abedeee4-b615-45f1-90b3-0ae38c533b2d",
      "meta": {
        "profile": [ "http://hl7.org/fhir/us/qicore/StructureDefinition/qicore-patient" ]
      },
      "extension": [ {
        "url": "http://hl7.org/fhir/us/core/StructureDefinition/us-core-race",
        "extension": [ {
          "url": "ombCategory",
          "valueCoding": {
            "system": "urn:oid:2.16.840.1.113883.6.238",
            "code": "2028-9",
            "display": "Asian"
          }
        }, {
          "url": "text",
          "valueString": "Asian"
        } ]
      }, {
        "url": "http://hl7.org/fhir/us/core/StructureDefinition/us-core-ethnicity",
        "extension": [ {
          "url": "ombCategory",
          "valueCoding": {
            "system": "urn:oid:2.16.840.1.113883.6.238",
            "code": "2135-2",
            "display": "Hispanic or Latino"
          }
        }, {
          "url": "text",
          "valueString": "Hispanic or Latino"
        } ]
      } ],
      "identifier": [ {
        "system": "http://hospital.smarthealthit.org",
        "value": "999999995"
      } ],
      "name": [ {
        "family": "NUMERFAIL",
        "given": [ "Medication15DaysAfterSUD" ]
      } ],
      "gender": "female",
      "birthDate": "2012-01-01"
    },
    "request": {
      "method": "POST",
      "url": "Patient/abedeee4-b615-45f1-90b3-0ae38c533b2d"
    }
  }, {
    "fullUrl": "https://madie.cms.gov/Condition/Condition-8",
    "resource": {
      "resourceType": "Condition",
      "id": "Condition-8",
      "meta": {
        "profile": [ "http://hl7.org/fhir/us/qicore/StructureDefinition/qicore-condition" ]
      },
      "clinicalStatus": {
        "coding": [ {
          "system": "http://terminology.hl7.org/CodeSystem/condition-clinical",
          "code": "active"
        } ]
      },
      "category": [ {
        "coding": [ {
          "system": "http://terminology.hl7.org/CodeSystem/condition-category",
          "code": "problem-list-item",
          "display": "Problem List Item"
        } ]
      } ],
      "code": {
        "coding": [ {
          "system": "http://hl7.org/fhir/sid/icd-10-cm",
          "code": "F10.10",
          "display": "Alcohol abuse, uncomplicated"
        } ]
      },
      "subject": {
        "reference": "Patient/abedeee4-b615-45f1-90b3-0ae38c533b2d"
      },
      "onsetDateTime": "2025-01-01T00:00:00.000Z"
    },
    "request": {
      "method": "POST",
      "url": "Condition/Condition-8"
    }
  }, {
    "fullUrl": "https://madie.cms.gov/Encounter/Encounter-8",
    "resource": {
      "resourceType": "Encounter",
      "id": "Encounter-8",
      "meta": {
        "profile": [ "http://hl7.org/fhir/us/qicore/StructureDefinition/qicore-encounter" ]
      },
      "status": "finished",
      "class": {
        "system": "http://terminology.hl7.org/CodeSystem/v3-ActCode",
        "code": "AMB",
        "display": "ambulatory"
      },
      "type": [ {
        "coding": [ {
          "system": "http://snomed.info/sct",
          "code": "182969009",
          "display": "Dependent drug detoxification (regime/therapy)"
        } ]
      } ],
      "subject": {
        "reference": "Patient/abedeee4-b615-45f1-90b3-0ae38c533b2d"
      },
      "period": {
        "start": "2025-01-01T00:00:00.000Z",
        "end": "2025-01-01T01:15:00.000Z"
      }
    },
    "request": {
      "method": "POST",
      "url": "Encounter/Encounter-8"
    }
  }, {
    "fullUrl": "https://madie.cms.gov/Procedure/Procedure-8",
    "resource": {
      "resourceType": "Procedure",
      "id": "Procedure-8",
      "meta": {
        "profile": [ "http://hl7.org/fhir/us/qicore/StructureDefinition/qicore-procedure" ]
      },
      "extension": [ {
        "url": "http://hl7.org/fhir/us/qicore/StructureDefinition/qicore-recorded",
        "valueDateTime": "2025-01-15T00:00:00.000Z"
      } ],
      "status": "completed",
      "code": {
        "coding": [ {
          "system": "http://www.nlm.nih.gov/research/umls/hcpcs",
          "code": "G2067",
          "display": "Medication assisted treatment, methadone; weekly bundle including dispensing and/or administration, substance use counseling, individual and group therapy, and toxicology testing, if performed (provision of the services by a medicare-enrolled opioid treatment program)"
        } ]
      },
      "subject": {
        "reference": "Patient/abedeee4-b615-45f1-90b3-0ae38c533b2d"
      },
      "performedPeriod": {
        "start": "2025-01-15T00:00:00.000Z",
        "end": "2025-01-15T01:00:00.000Z"
      }
    },
    "request": {
      "method": "POST",
      "url": "Procedure/Procedure-8"
    }
  }, {
    "fullUrl": "https://madie.cms.gov/MeasureReport/e11faac0-6376-48f0-8a8a-d8e693701cdf",
    "resource": {
      "resourceType": "MeasureReport",
      "id": "e11faac0-6376-48f0-8a8a-d8e693701cdf",
      "meta": {
        "profile": [ "http://hl7.org/fhir/us/cqfmeasures/StructureDefinition/test-case-cqfm" ]
      },
      "contained": [ {
        "resourceType": "Parameters",
        "id": "531bdcf9-b6aa-4796-a88b-4833f9eed006-parameters",
        "parameter": [ {
          "name": "subject",
          "valueString": "abedeee4-b615-45f1-90b3-0ae38c533b2d"
        } ]
      } ],
      "extension": [ {
        "url": "http://hl7.org/fhir/us/cqfmeasures/StructureDefinition/cqfm-inputParameters",
        "valueReference": {
          "reference": "#531bdcf9-b6aa-4796-a88b-4833f9eed006-parameters"
        }
      }, {
        "url": "http://hl7.org/fhir/us/cqfmeasures/StructureDefinition/cqfm-testCaseDescription",
        "valueMarkdown": "Medication for the treatment of SUD 15 days after new SUD episode"
      } ],
      "modifierExtension": [ {
        "url": "http://hl7.org/fhir/us/cqfmeasures/StructureDefinition/cqfm-isTestCase",
        "valueBoolean": true
      } ],
      "status": "complete",
      "type": "individual",
      "measure": "https://madie.cms.gov/Measure/InitiationandEngagementofSubstanceUseDisorderTreatmentFHIR",
      "period": {
        "start": "2025-01-01",
        "end": "2025-12-31"
      },
      "group": [ {
        "population": [ {
          "code": {
            "coding": [ {
              "system": "http://terminology.hl7.org/CodeSystem/measure-population",
              "code": "initial-population",
              "display": "Initial Population"
            } ]
          },
          "count": 1
        }, {
          "code": {
            "coding": [ {
              "system": "http://terminology.hl7.org/CodeSystem/measure-population",
              "code": "denominator",
              "display": "Denominator"
            } ]
          },
          "count": 1
        }, {
          "code": {
            "coding": [ {
              "system": "http://terminology.hl7.org/CodeSystem/measure-population",
              "code": "denominator-exclusion",
              "display": "Denominator Exclusion"
            } ]
          },
          "count": 0
        }, {
          "code": {
            "coding": [ {
              "system": "http://terminology.hl7.org/CodeSystem/measure-population",
              "code": "numerator",
              "display": "Numerator"
            } ]
          },
          "count": 0
        } ]
      }, {
        "population": [ {
          "code": {
            "coding": [ {
              "system": "http://terminology.hl7.org/CodeSystem/measure-population",
              "code": "initial-population",
              "display": "Initial Population"
            } ]
          },
          "count": 1
        }, {
          "code": {
            "coding": [ {
              "system": "http://terminology.hl7.org/CodeSystem/measure-population",
              "code": "denominator",
              "display": "Denominator"
            } ]
          },
          "count": 1
        }, {
          "code": {
            "coding": [ {
              "system": "http://terminology.hl7.org/CodeSystem/measure-population",
              "code": "denominator-exclusion",
              "display": "Denominator Exclusion"
            } ]
          },
          "count": 0
        }, {
          "code": {
            "coding": [ {
              "system": "http://terminology.hl7.org/CodeSystem/measure-population",
              "code": "numerator",
              "display": "Numerator"
            } ]
          },
          "count": 0
        } ]
      } ],
      "evaluatedResource": [ {
        "reference": "https://madie.cms.gov/Patient/abedeee4-b615-45f1-90b3-0ae38c533b2d"
      }, {
        "reference": "https://madie.cms.gov/Condition/Condition-8"
      }, {
        "reference": "https://madie.cms.gov/Encounter/Encounter-8"
      }, {
        "reference": "https://madie.cms.gov/Procedure/Procedure-8"
      } ]
    },
    "request": {
      "method": "POST",
      "url": "MeasureReport/e11faac0-6376-48f0-8a8a-d8e693701cdf"
    }
  } ]
}