{
  "resourceType": "Bundle",
  "id": "610965b898086b538055c14a",
  "type": "transaction",
  "entry": [ {
    "fullUrl": "https://madie.cms.gov/Patient/8311fb5d-afaf-4e73-8968-8a9a3ef92b06",
    "resource": {
      "resourceType": "Patient",
      "id": "8311fb5d-afaf-4e73-8968-8a9a3ef92b06",
      "meta": {
        "profile": [ "http://hl7.org/fhir/us/qicore/StructureDefinition/qicore-patient" ]
      },
      "text": {
        "status": "generated",
        "div": "<div xmlns=\"http://www.w3.org/1999/xhtml\"><div class=\"hapiHeaderText\">EncOverlapsMPStart <b>IPPFAIL </b></div><table class=\"hapiPropertyTable\"><tbody><tr><td>Identifier</td><td>80993906fee6145b7a0aa9099fda8108238f7d436ea84320e27372252a04acb5</td></tr><tr><td>Date of birth</td><td><span>31 July 1992</span></td></tr></tbody></table></div>"
      },
      "extension": [ {
        "url": "http://hl7.org/fhir/us/core/StructureDefinition/us-core-race",
        "extension": [ {
          "url": "ombCategory",
          "valueCoding": {
            "system": "urn:oid:2.16.840.1.113883.6.238",
            "code": "1002-5",
            "display": "American Indian or Alaska Native",
            "userSelected": true
          }
        }, {
          "url": "text",
          "valueString": "American Indian or Alaska Native"
        } ]
      }, {
        "url": "http://hl7.org/fhir/us/core/StructureDefinition/us-core-ethnicity",
        "extension": [ {
          "url": "ombCategory",
          "valueCoding": {
            "system": "urn:oid:2.16.840.1.113883.6.238",
            "code": "2135-2",
            "display": "Hispanic or Latino",
            "userSelected": true
          }
        }, {
          "url": "text",
          "valueString": "Hispanic or Latino"
        } ]
      } ],
      "identifier": [ {
        "type": {
          "coding": [ {
            "system": "http://terminology.hl7.org/CodeSystem/v2-0203",
            "code": "MR"
          } ]
        },
        "system": "https://bonnie-fhir.healthit.gov/",
        "value": "610965b898086b538055c14a"
      } ],
      "active": true,
      "name": [ {
        "use": "usual",
        "family": "IPPFail",
        "given": [ "EncOverlapsMPStart" ]
      } ],
      "gender": "male",
      "birthDate": "1993-07-31"
    },
    "request": {
      "method": "POST",
      "url": "Patient/8311fb5d-afaf-4e73-8968-8a9a3ef92b06"
    }
  }, {
    "fullUrl": "https://madie.cms.gov/Encounter/5c9e578cb8484602c2f92231",
    "resource": {
      "resourceType": "Encounter",
      "id": "5c9e578cb8484602c2f92231",
      "meta": {
        "profile": [ "http://hl7.org/fhir/us/qicore/StructureDefinition/qicore-encounter" ]
      },
      "status": "finished",
      "class": {
        "system": "http://terminology.hl7.org/CodeSystem/v3-ActCode",
        "code": "AMB",
        "display": "ambulatory",
        "userSelected": true
      },
      "type": [ {
        "coding": [ {
          "system": "http://www.ama-assn.org/go/cpt",
          "code": "99385"
        } ]
      } ],
      "subject": {
        "reference": "Patient/8311fb5d-afaf-4e73-8968-8a9a3ef92b06"
      },
      "period": {
        "start": "2024-12-31T23:59:00.000+00:00",
        "end": "2025-01-01T08:00:00.000+00:00"
      }
    },
    "request": {
      "method": "POST",
      "url": "Encounter/5c9e578cb8484602c2f92231"
    }
  }, {
    "fullUrl": "https://madie.cms.gov/MeasureReport/6229f253-de3e-4b9d-a9ce-9de596cc954c",
    "resource": {
      "resourceType": "MeasureReport",
      "id": "6229f253-de3e-4b9d-a9ce-9de596cc954c",
      "meta": {
        "profile": [ "http://hl7.org/fhir/us/cqfmeasures/StructureDefinition/test-case-cqfm" ]
      },
      "contained": [ {
        "resourceType": "Parameters",
        "id": "58d8b363-b101-47b8-abb9-039b8cecf04f-parameters",
        "parameter": [ {
          "name": "subject",
          "valueString": "8311fb5d-afaf-4e73-8968-8a9a3ef92b06"
        } ]
      } ],
      "extension": [ {
        "url": "http://hl7.org/fhir/us/cqfmeasures/StructureDefinition/cqfm-inputParameters",
        "valueReference": {
          "reference": "#58d8b363-b101-47b8-abb9-039b8cecf04f-parameters"
        }
      }, {
        "url": "http://hl7.org/fhir/us/cqfmeasures/StructureDefinition/cqfm-testCaseDescription",
        "valueMarkdown": "Patient qualifies by age but qualifying encounter starts before measurement period start."
      } ],
      "modifierExtension": [ {
        "url": "http://hl7.org/fhir/us/cqfmeasures/StructureDefinition/cqfm-isTestCase",
        "valueBoolean": true
      } ],
      "status": "complete",
      "type": "individual",
      "measure": "https://madie.cms.gov/Measure/HIVScreeningFHIR",
      "period": {
        "start": "2025-01-01",
        "end": "2025-12-31"
      },
      "group": [ {
        "population": [ {
          "code": {
            "coding": [ {
              "system": "http://terminology.hl7.org/CodeSystem/measure-population",
              "code": "initial-population",
              "display": "Initial Population"
            } ]
          },
          "count": 0
        }, {
          "code": {
            "coding": [ {
              "system": "http://terminology.hl7.org/CodeSystem/measure-population",
              "code": "denominator",
              "display": "Denominator"
            } ]
          },
          "count": 0
        }, {
          "code": {
            "coding": [ {
              "system": "http://terminology.hl7.org/CodeSystem/measure-population",
              "code": "denominator-exclusion",
              "display": "Denominator Exclusion"
            } ]
          },
          "count": 0
        }, {
          "code": {
            "coding": [ {
              "system": "http://terminology.hl7.org/CodeSystem/measure-population",
              "code": "numerator",
              "display": "Numerator"
            } ]
          },
          "count": 0
        } ]
      } ],
      "evaluatedResource": [ {
        "reference": "Patient/8311fb5d-afaf-4e73-8968-8a9a3ef92b06"
      }, {
        "reference": "Encounter/5c9e578cb8484602c2f92231"
      } ]
    },
    "request": {
      "method": "POST",
      "url": "MeasureReport/6229f253-de3e-4b9d-a9ce-9de596cc954c"
    }
  } ]
}