{
  "resourceType": "Bundle",
  "id": "NUMERPass-AllVaccinesAsProcedures",
  "type": "transaction",
  "entry": [ {
    "fullUrl": "https://madie.cms.gov/Patient/1e7dc519-5d75-4c07-b23f-ae9421a12943",
    "resource": {
      "resourceType": "Patient",
      "id": "1e7dc519-5d75-4c07-b23f-ae9421a12943",
      "meta": {
        "profile": [ "http://hl7.org/fhir/us/qicore/StructureDefinition/qicore-patient" ]
      },
      "extension": [ {
        "url": "http://hl7.org/fhir/us/core/StructureDefinition/us-core-race",
        "extension": [ {
          "url": "ombCategory",
          "valueCoding": {
            "system": "urn:oid:2.16.840.1.113883.6.238",
            "code": "2028-9",
            "display": "Asian",
            "userSelected": true
          }
        }, {
          "url": "text",
          "valueString": "Asian"
        } ]
      }, {
        "url": "http://hl7.org/fhir/us/core/StructureDefinition/us-core-ethnicity",
        "extension": [ {
          "url": "ombCategory",
          "valueCoding": {
            "system": "urn:oid:2.16.840.1.113883.6.238",
            "code": "2135-2",
            "display": "Hispanic or Latino",
            "userSelected": true
          }
        }, {
          "url": "text",
          "valueString": "Hispanic or Latino"
        } ]
      } ],
      "identifier": [ {
        "type": {
          "coding": [ {
            "system": "http://terminology.hl7.org/CodeSystem/v2-0203",
            "code": "MR"
          } ]
        },
        "system": "http://hospital.smarthealthit.org",
        "value": "999999995"
      } ],
      "name": [ {
        "family": "Bertha",
        "given": [ "Betty" ]
      } ],
      "gender": "female",
      "birthDate": "2023-01-01"
    },
    "request": {
      "method": "POST",
      "url": "Patient/1e7dc519-5d75-4c07-b23f-ae9421a12943"
    }
  }, {
    "fullUrl": "https://madie.cms.gov/Encounter/Encounter-1",
    "resource": {
      "resourceType": "Encounter",
      "id": "Encounter-1",
      "meta": {
        "profile": [ "http://hl7.org/fhir/us/qicore/StructureDefinition/qicore-encounter" ]
      },
      "status": "finished",
      "class": {
        "system": "http://terminology.hl7.org/CodeSystem/v3-ActCode",
        "code": "AMB",
        "display": "ambulatory"
      },
      "type": [ {
        "coding": [ {
          "system": "http://snomed.info/sct",
          "code": "185317003",
          "display": "Telephone encounter (procedure)"
        } ]
      } ],
      "subject": {
        "reference": "Patient/1e7dc519-5d75-4c07-b23f-ae9421a12943"
      },
      "period": {
        "start": "2025-01-01T01:00:00.000Z",
        "end": "2025-01-01T01:15:00.000Z"
      }
    },
    "request": {
      "method": "POST",
      "url": "Encounter/Encounter-1"
    }
  }, {
    "fullUrl": "https://madie.cms.gov/Immunization/Immunization-1a",
    "resource": {
      "resourceType": "Immunization",
      "id": "Immunization-1a",
      "meta": {
        "profile": [ "http://hl7.org/fhir/us/qicore/StructureDefinition/qicore-immunization" ]
      },
      "status": "completed",
      "vaccineCode": {
        "coding": [ {
          "system": "http://hl7.org/fhir/sid/cvx",
          "code": "146",
          "display": "Diphtheria and Tetanus Toxoids and Acellular Pertussis Adsorbed, Inactivated Poliovirus, Haemophilus b Conjugate (Meningococcal Protein Conjugate), and Hepatitis B (Recombinant) Vaccine."
        } ]
      },
      "patient": {
        "reference": "Patient/1e7dc519-5d75-4c07-b23f-ae9421a12943"
      },
      "occurrenceDateTime": "2024-01-02T00:00:00.000Z",
      "recorded": "2024-01-02T00:00:00.000Z",
      "primarySource": true
    },
    "request": {
      "method": "POST",
      "url": "Immunization/Immunization-1a"
    }
  }, {
    "fullUrl": "https://madie.cms.gov/Immunization/Immunization-1b",
    "resource": {
      "resourceType": "Immunization",
      "id": "Immunization-1b",
      "meta": {
        "profile": [ "http://hl7.org/fhir/us/qicore/StructureDefinition/qicore-immunization" ]
      },
      "status": "completed",
      "vaccineCode": {
        "coding": [ {
          "system": "http://hl7.org/fhir/sid/cvx",
          "code": "146",
          "display": "Diphtheria and Tetanus Toxoids and Acellular Pertussis Adsorbed, Inactivated Poliovirus, Haemophilus b Conjugate (Meningococcal Protein Conjugate), and Hepatitis B (Recombinant) Vaccine."
        } ]
      },
      "patient": {
        "reference": "Patient/1e7dc519-5d75-4c07-b23f-ae9421a12943"
      },
      "occurrenceDateTime": "2024-01-05T00:00:00.000Z",
      "recorded": "2024-01-02T00:00:00.000Z",
      "primarySource": true
    },
    "request": {
      "method": "POST",
      "url": "Immunization/Immunization-1b"
    }
  }, {
    "fullUrl": "https://madie.cms.gov/Immunization/Immunization-1c",
    "resource": {
      "resourceType": "Immunization",
      "id": "Immunization-1c",
      "meta": {
        "profile": [ "http://hl7.org/fhir/us/qicore/StructureDefinition/qicore-immunization" ]
      },
      "status": "completed",
      "vaccineCode": {
        "coding": [ {
          "system": "http://hl7.org/fhir/sid/cvx",
          "code": "146",
          "display": "Diphtheria and Tetanus Toxoids and Acellular Pertussis Adsorbed, Inactivated Poliovirus, Haemophilus b Conjugate (Meningococcal Protein Conjugate), and Hepatitis B (Recombinant) Vaccine."
        } ]
      },
      "patient": {
        "reference": "Patient/1e7dc519-5d75-4c07-b23f-ae9421a12943"
      },
      "occurrenceDateTime": "2024-01-07T00:00:00.000Z",
      "recorded": "2024-01-02T00:00:00.000Z",
      "primarySource": true
    },
    "request": {
      "method": "POST",
      "url": "Immunization/Immunization-1c"
    }
  }, {
    "fullUrl": "https://madie.cms.gov/Procedure/Procedure-1d",
    "resource": {
      "resourceType": "Procedure",
      "id": "Procedure-1d",
      "meta": {
        "profile": [ "http://hl7.org/fhir/us/qicore/StructureDefinition/qicore-procedure" ]
      },
      "extension": [ {
        "url": "http://hl7.org/fhir/us/qicore/StructureDefinition/qicore-recorded",
        "valueDateTime": "2024-01-02T00:00:00.000Z"
      } ],
      "status": "completed",
      "code": {
        "coding": [ {
          "system": "http://www.ama-assn.org/go/cpt",
          "code": "90700",
          "display": "Diphtheria, tetanus toxoids, and acellular pertussis vaccine (DTaP), when administered to individuals younger than 7 years, for intramuscular use"
        } ]
      },
      "subject": {
        "reference": "Patient/1e7dc519-5d75-4c07-b23f-ae9421a12943"
      },
      "performedPeriod": {
        "start": "2024-01-02T00:00:00.000Z",
        "end": "2024-01-02T23:59:59.000Z"
      }
    },
    "request": {
      "method": "POST",
      "url": "Procedure/Procedure-1d"
    }
  }, {
    "fullUrl": "https://madie.cms.gov/Immunization/Immunization-2a",
    "resource": {
      "resourceType": "Immunization",
      "id": "Immunization-2a",
      "meta": {
        "profile": [ "http://hl7.org/fhir/us/qicore/StructureDefinition/qicore-immunization" ]
      },
      "status": "completed",
      "vaccineCode": {
        "coding": [ {
          "system": "http://hl7.org/fhir/sid/cvx",
          "code": "146",
          "display": "\tDiphtheria and Tetanus Toxoids and Acellular Pertussis Adsorbed, Inactivated Poliovirus, Haemophilus b Conjugate (Meningococcal Protein Conjugate), and Hepatitis B (Recombinant) Vaccine."
        } ]
      },
      "patient": {
        "reference": "Patient/1e7dc519-5d75-4c07-b23f-ae9421a12943"
      },
      "occurrenceDateTime": "2024-01-02T00:00:00.000Z",
      "recorded": "2024-01-02T00:00:00.000Z",
      "primarySource": true
    },
    "request": {
      "method": "POST",
      "url": "Immunization/Immunization-2a"
    }
  }, {
    "fullUrl": "https://madie.cms.gov/Immunization/Immunization-2b",
    "resource": {
      "resourceType": "Immunization",
      "id": "Immunization-2b",
      "meta": {
        "profile": [ "http://hl7.org/fhir/us/qicore/StructureDefinition/qicore-immunization" ]
      },
      "status": "completed",
      "vaccineCode": {
        "coding": [ {
          "system": "http://hl7.org/fhir/sid/cvx",
          "code": "146",
          "display": "\tDiphtheria and Tetanus Toxoids and Acellular Pertussis Adsorbed, Inactivated Poliovirus, Haemophilus b Conjugate (Meningococcal Protein Conjugate), and Hepatitis B (Recombinant) Vaccine."
        } ]
      },
      "patient": {
        "reference": "Patient/1e7dc519-5d75-4c07-b23f-ae9421a12943"
      },
      "occurrenceDateTime": "2024-01-06T00:00:00.000Z",
      "recorded": "2024-01-02T00:00:00.000Z",
      "primarySource": true
    },
    "request": {
      "method": "POST",
      "url": "Immunization/Immunization-2b"
    }
  }, {
    "fullUrl": "https://madie.cms.gov/Procedure/Procedure-2c",
    "resource": {
      "resourceType": "Procedure",
      "id": "Procedure-2c",
      "meta": {
        "profile": [ "http://hl7.org/fhir/us/qicore/StructureDefinition/qicore-procedure" ]
      },
      "extension": [ {
        "url": "http://hl7.org/fhir/us/qicore/StructureDefinition/qicore-recorded",
        "valueDateTime": "2024-01-02T00:00:00.000Z"
      } ],
      "status": "completed",
      "code": {
        "coding": [ {
          "system": "http://www.ama-assn.org/go/cpt",
          "code": "90713",
          "display": "Poliovirus vaccine, inactivated (IPV), for subcutaneous or intramuscular use"
        } ]
      },
      "subject": {
        "reference": "Patient/1e7dc519-5d75-4c07-b23f-ae9421a12943"
      },
      "performedPeriod": {
        "start": "2024-01-02T00:00:00.000Z",
        "end": "2024-01-02T23:59:59.000Z"
      }
    },
    "request": {
      "method": "POST",
      "url": "Procedure/Procedure-2c"
    }
  }, {
    "fullUrl": "https://madie.cms.gov/Procedure/Procedure-3",
    "resource": {
      "resourceType": "Procedure",
      "id": "Procedure-3",
      "meta": {
        "profile": [ "http://hl7.org/fhir/us/qicore/StructureDefinition/qicore-procedure" ]
      },
      "extension": [ {
        "url": "http://hl7.org/fhir/us/qicore/StructureDefinition/qicore-recorded",
        "valueDateTime": "2024-01-02T00:00:00.000Z"
      } ],
      "status": "completed",
      "code": {
        "coding": [ {
          "system": "http://www.ama-assn.org/go/cpt",
          "code": "90710",
          "display": "Measles, mumps, rubella, and varicella vaccine (MMRV), live, for subcutaneous use"
        } ]
      },
      "subject": {
        "reference": "Patient/1e7dc519-5d75-4c07-b23f-ae9421a12943"
      },
      "performedPeriod": {
        "start": "2024-01-02T00:00:00.000Z",
        "end": "2024-01-02T23:59:59.000Z"
      }
    },
    "request": {
      "method": "POST",
      "url": "Procedure/Procedure-3"
    }
  }, {
    "fullUrl": "https://madie.cms.gov/Immunization/Immunization-4a",
    "resource": {
      "resourceType": "Immunization",
      "id": "Immunization-4a",
      "meta": {
        "profile": [ "http://hl7.org/fhir/us/qicore/StructureDefinition/qicore-immunization" ]
      },
      "status": "completed",
      "vaccineCode": {
        "coding": [ {
          "system": "http://hl7.org/fhir/sid/cvx",
          "code": "49",
          "display": "Haemophilus influenzae type b vaccine, PRP-OMP conjugate"
        } ]
      },
      "patient": {
        "reference": "Patient/1e7dc519-5d75-4c07-b23f-ae9421a12943"
      },
      "occurrenceDateTime": "2024-01-02T00:00:00.000Z",
      "recorded": "2024-01-02T00:00:00.000Z",
      "primarySource": true
    },
    "request": {
      "method": "POST",
      "url": "Immunization/Immunization-4a"
    }
  }, {
    "fullUrl": "https://madie.cms.gov/Immunization/Immunization-4b",
    "resource": {
      "resourceType": "Immunization",
      "id": "Immunization-4b",
      "meta": {
        "profile": [ "http://hl7.org/fhir/us/qicore/StructureDefinition/qicore-immunization" ]
      },
      "status": "completed",
      "vaccineCode": {
        "coding": [ {
          "system": "http://hl7.org/fhir/sid/cvx",
          "code": "49",
          "display": "Haemophilus influenzae type b vaccine, PRP-OMP conjugate"
        } ]
      },
      "patient": {
        "reference": "Patient/1e7dc519-5d75-4c07-b23f-ae9421a12943"
      },
      "occurrenceDateTime": "2024-01-02T00:00:00.000Z",
      "recorded": "2024-01-02T00:00:00.000Z",
      "primarySource": true
    },
    "request": {
      "method": "POST",
      "url": "Immunization/Immunization-4b"
    }
  }, {
    "fullUrl": "https://madie.cms.gov/Procedure/Procedure-4c",
    "resource": {
      "resourceType": "Procedure",
      "id": "Procedure-4c",
      "meta": {
        "profile": [ "http://hl7.org/fhir/us/qicore/StructureDefinition/qicore-procedure" ]
      },
      "extension": [ {
        "url": "http://hl7.org/fhir/us/qicore/StructureDefinition/qicore-recorded",
        "valueDateTime": "2024-01-02T00:00:00.000Z"
      } ],
      "status": "completed",
      "code": {
        "coding": [ {
          "system": "http://www.ama-assn.org/go/cpt",
          "code": "90697",
          "display": "Diphtheria, tetanus toxoids, acellular pertussis vaccine, inactivated poliovirus vaccine, Haemophilus influenzae type b PRP-OMP conjugate vaccine, and hepatitis B vaccine (DTaP-IPV-Hib-HepB), for intramuscular use"
        } ]
      },
      "subject": {
        "reference": "Patient/1e7dc519-5d75-4c07-b23f-ae9421a12943"
      },
      "performedPeriod": {
        "start": "2024-01-02T00:00:00.000Z",
        "end": "2024-01-02T23:59:59.000Z"
      }
    },
    "request": {
      "method": "POST",
      "url": "Procedure/Procedure-4c"
    }
  }, {
    "fullUrl": "https://madie.cms.gov/Immunization/Immunization-5a",
    "resource": {
      "resourceType": "Immunization",
      "id": "Immunization-5a",
      "meta": {
        "profile": [ "http://hl7.org/fhir/us/qicore/StructureDefinition/qicore-immunization" ]
      },
      "status": "completed",
      "vaccineCode": {
        "coding": [ {
          "system": "http://hl7.org/fhir/sid/cvx",
          "code": "51",
          "display": "Haemophilus influenzae type b conjugate and Hepatitis B vaccine"
        } ]
      },
      "patient": {
        "reference": "Patient/1e7dc519-5d75-4c07-b23f-ae9421a12943"
      },
      "occurrenceDateTime": "2024-01-02T00:00:00.000Z",
      "recorded": "2024-01-02T00:00:00.000Z",
      "primarySource": true
    },
    "request": {
      "method": "POST",
      "url": "Immunization/Immunization-5a"
    }
  }, {
    "fullUrl": "https://madie.cms.gov/Immunization/Immunization-5b",
    "resource": {
      "resourceType": "Immunization",
      "id": "Immunization-5b",
      "meta": {
        "profile": [ "http://hl7.org/fhir/us/qicore/StructureDefinition/qicore-immunization" ]
      },
      "status": "completed",
      "vaccineCode": {
        "coding": [ {
          "system": "http://hl7.org/fhir/sid/cvx",
          "code": "51",
          "display": "Haemophilus influenzae type b conjugate and Hepatitis B vaccine"
        } ]
      },
      "patient": {
        "reference": "Patient/1e7dc519-5d75-4c07-b23f-ae9421a12943"
      },
      "occurrenceDateTime": "2024-01-10T00:00:00.000Z",
      "recorded": "2024-01-02T00:00:00.000Z",
      "primarySource": true
    },
    "request": {
      "method": "POST",
      "url": "Immunization/Immunization-5b"
    }
  }, {
    "fullUrl": "https://madie.cms.gov/Procedure/Procedure-5c",
    "resource": {
      "resourceType": "Procedure",
      "id": "Procedure-5c",
      "meta": {
        "profile": [ "http://hl7.org/fhir/us/qicore/StructureDefinition/qicore-procedure" ]
      },
      "extension": [ {
        "url": "http://hl7.org/fhir/us/qicore/StructureDefinition/qicore-recorded",
        "valueDateTime": "2024-01-02T00:00:00.000Z"
      } ],
      "status": "completed",
      "code": {
        "coding": [ {
          "system": "http://www.ama-assn.org/go/cpt",
          "code": "90740",
          "display": "Hepatitis B vaccine (HepB), dialysis or immunosuppressed patient dosage, 3 dose schedule, for intramuscular use"
        } ]
      },
      "subject": {
        "reference": "Patient/1e7dc519-5d75-4c07-b23f-ae9421a12943"
      },
      "performedPeriod": {
        "start": "2024-01-02T00:00:00.000Z",
        "end": "2024-01-02T23:59:59.000Z"
      }
    },
    "request": {
      "method": "POST",
      "url": "Procedure/Procedure-5c"
    }
  }, {
    "fullUrl": "https://madie.cms.gov/Immunization/Immunization-6",
    "resource": {
      "resourceType": "Immunization",
      "id": "Immunization-6",
      "meta": {
        "profile": [ "http://hl7.org/fhir/us/qicore/StructureDefinition/qicore-immunization" ]
      },
      "status": "completed",
      "vaccineCode": {
        "coding": [ {
          "system": "http://hl7.org/fhir/sid/cvx",
          "code": "94",
          "display": "measles, mumps, rubella, and varicella virus vaccine"
        } ]
      },
      "patient": {
        "reference": "Patient/1e7dc519-5d75-4c07-b23f-ae9421a12943"
      },
      "occurrenceDateTime": "2024-01-02T00:00:00.000Z",
      "recorded": "2024-01-02T00:00:00.000Z",
      "primarySource": true
    },
    "request": {
      "method": "POST",
      "url": "Immunization/Immunization-6"
    }
  }, {
    "fullUrl": "https://madie.cms.gov/Immunization/Immunization-7a",
    "resource": {
      "resourceType": "Immunization",
      "id": "Immunization-7a",
      "meta": {
        "profile": [ "http://hl7.org/fhir/us/qicore/StructureDefinition/qicore-immunization" ]
      },
      "status": "completed",
      "vaccineCode": {
        "coding": [ {
          "system": "http://hl7.org/fhir/sid/cvx",
          "code": "215",
          "display": "Pneumococcal conjugate vaccine 15-valent (PCV15), polysaccharide CRM197 conjugate, adjuvant, preservative free"
        } ]
      },
      "patient": {
        "reference": "Patient/1e7dc519-5d75-4c07-b23f-ae9421a12943"
      },
      "occurrenceDateTime": "2024-01-12T00:00:00.000Z",
      "recorded": "2024-01-02T00:00:00.000Z",
      "primarySource": true
    },
    "request": {
      "method": "POST",
      "url": "Immunization/Immunization-7a"
    }
  }, {
    "fullUrl": "https://madie.cms.gov/Immunization/Immunization-7b",
    "resource": {
      "resourceType": "Immunization",
      "id": "Immunization-7b",
      "meta": {
        "profile": [ "http://hl7.org/fhir/us/qicore/StructureDefinition/qicore-immunization" ]
      },
      "status": "completed",
      "vaccineCode": {
        "coding": [ {
          "system": "http://hl7.org/fhir/sid/cvx",
          "code": "215",
          "display": "Pneumococcal conjugate vaccine 15-valent (PCV15), polysaccharide CRM197 conjugate, adjuvant, preservative free"
        } ]
      },
      "patient": {
        "reference": "Patient/1e7dc519-5d75-4c07-b23f-ae9421a12943"
      },
      "occurrenceDateTime": "2024-01-14T00:00:00.000Z",
      "recorded": "2024-01-02T00:00:00.000Z",
      "primarySource": true
    },
    "request": {
      "method": "POST",
      "url": "Immunization/Immunization-7b"
    }
  }, {
    "fullUrl": "https://madie.cms.gov/Immunization/Immunization-7c",
    "resource": {
      "resourceType": "Immunization",
      "id": "Immunization-7c",
      "meta": {
        "profile": [ "http://hl7.org/fhir/us/qicore/StructureDefinition/qicore-immunization" ]
      },
      "status": "completed",
      "vaccineCode": {
        "coding": [ {
          "system": "http://hl7.org/fhir/sid/cvx",
          "code": "215",
          "display": "Pneumococcal conjugate vaccine 15-valent (PCV15), polysaccharide CRM197 conjugate, adjuvant, preservative free"
        } ]
      },
      "patient": {
        "reference": "Patient/1e7dc519-5d75-4c07-b23f-ae9421a12943"
      },
      "occurrenceDateTime": "2024-01-20T00:00:00.000Z",
      "recorded": "2024-01-02T00:00:00.000Z",
      "primarySource": true
    },
    "request": {
      "method": "POST",
      "url": "Immunization/Immunization-7c"
    }
  }, {
    "fullUrl": "https://madie.cms.gov/Procedure/Procedure-7d",
    "resource": {
      "resourceType": "Procedure",
      "id": "Procedure-7d",
      "meta": {
        "profile": [ "http://hl7.org/fhir/us/qicore/StructureDefinition/qicore-procedure" ]
      },
      "extension": [ {
        "url": "http://hl7.org/fhir/us/qicore/StructureDefinition/qicore-recorded",
        "valueDateTime": "2024-01-02T00:00:00.000Z"
      } ],
      "status": "completed",
      "code": {
        "coding": [ {
          "system": "http://www.ama-assn.org/go/cpt",
          "code": "90670",
          "display": "Pneumococcal conjugate vaccine, 13 valent (PCV13), for intramuscular use"
        } ]
      },
      "subject": {
        "reference": "Patient/1e7dc519-5d75-4c07-b23f-ae9421a12943"
      },
      "performedPeriod": {
        "start": "2024-01-02T00:00:00.000Z",
        "end": "2024-01-02T23:59:59.000Z"
      }
    },
    "request": {
      "method": "POST",
      "url": "Procedure/Procedure-7d"
    }
  }, {
    "fullUrl": "https://madie.cms.gov/Procedure/Procedure-8",
    "resource": {
      "resourceType": "Procedure",
      "id": "Procedure-8",
      "meta": {
        "profile": [ "http://hl7.org/fhir/us/qicore/StructureDefinition/qicore-procedure" ]
      },
      "extension": [ {
        "url": "http://hl7.org/fhir/us/qicore/StructureDefinition/qicore-recorded",
        "valueDateTime": "2024-01-02T00:00:00.000Z"
      } ],
      "status": "completed",
      "code": {
        "coding": [ {
          "system": "http://www.ama-assn.org/go/cpt",
          "code": "90633",
          "display": "Hepatitis A vaccine (HepA), pediatric/adolescent dosage-2 dose schedule, for intramuscular use"
        } ]
      },
      "subject": {
        "reference": "Patient/1e7dc519-5d75-4c07-b23f-ae9421a12943"
      },
      "performedPeriod": {
        "start": "2024-01-02T00:00:00.000Z",
        "end": "2024-01-02T23:59:59.000Z"
      }
    },
    "request": {
      "method": "POST",
      "url": "Procedure/Procedure-8"
    }
  }, {
    "fullUrl": "https://madie.cms.gov/Immunization/Immunization-9a",
    "resource": {
      "resourceType": "Immunization",
      "id": "Immunization-9a",
      "meta": {
        "profile": [ "http://hl7.org/fhir/us/qicore/StructureDefinition/qicore-immunization" ]
      },
      "status": "completed",
      "vaccineCode": {
        "coding": [ {
          "system": "http://hl7.org/fhir/sid/cvx",
          "code": "119",
          "display": "rotavirus, live, monovalent vaccine"
        } ]
      },
      "patient": {
        "reference": "Patient/1e7dc519-5d75-4c07-b23f-ae9421a12943"
      },
      "occurrenceDateTime": "2024-01-02T00:00:00.000Z",
      "recorded": "2024-01-02T00:00:00.000Z",
      "primarySource": true
    },
    "request": {
      "method": "POST",
      "url": "Immunization/Immunization-9a"
    }
  }, {
    "fullUrl": "https://madie.cms.gov/Procedure/Procedure-9b",
    "resource": {
      "resourceType": "Procedure",
      "id": "Procedure-9b",
      "meta": {
        "profile": [ "http://hl7.org/fhir/us/qicore/StructureDefinition/qicore-procedure" ]
      },
      "extension": [ {
        "url": "http://hl7.org/fhir/us/qicore/StructureDefinition/qicore-recorded",
        "valueDateTime": "2024-01-02T00:00:00.000Z"
      } ],
      "status": "completed",
      "code": {
        "coding": [ {
          "system": "http://www.ama-assn.org/go/cpt",
          "code": "90681",
          "display": "Rotavirus vaccine, human, attenuated (RV1), 2 dose schedule, live, for oral use"
        } ]
      },
      "subject": {
        "reference": "Patient/1e7dc519-5d75-4c07-b23f-ae9421a12943"
      },
      "performedPeriod": {
        "start": "2024-01-07T00:00:00.000Z",
        "end": "2024-01-07T23:59:59.000Z"
      }
    },
    "request": {
      "method": "POST",
      "url": "Procedure/Procedure-9b"
    }
  }, {
    "fullUrl": "https://madie.cms.gov/Immunization/Immunization-10a",
    "resource": {
      "resourceType": "Immunization",
      "id": "Immunization-10a",
      "meta": {
        "profile": [ "http://hl7.org/fhir/us/qicore/StructureDefinition/qicore-immunization" ]
      },
      "status": "completed",
      "vaccineCode": {
        "coding": [ {
          "system": "http://hl7.org/fhir/sid/cvx",
          "code": "153",
          "display": "\tInfluenza, injectable, Madin Darby Canine Kidney, preservative free"
        } ]
      },
      "patient": {
        "reference": "Patient/1e7dc519-5d75-4c07-b23f-ae9421a12943"
      },
      "occurrenceDateTime": "2024-01-02T00:00:00.000Z",
      "recorded": "2024-01-02T00:00:00.000Z",
      "primarySource": true
    },
    "request": {
      "method": "POST",
      "url": "Immunization/Immunization-10a"
    }
  }, {
    "fullUrl": "https://madie.cms.gov/Procedure/Procedure-10b",
    "resource": {
      "resourceType": "Procedure",
      "id": "Procedure-10b",
      "meta": {
        "profile": [ "http://hl7.org/fhir/us/qicore/StructureDefinition/qicore-procedure" ]
      },
      "extension": [ {
        "url": "http://hl7.org/fhir/us/qicore/StructureDefinition/qicore-recorded",
        "valueDateTime": "2024-01-10T00:00:00.000Z"
      } ],
      "status": "completed",
      "code": {
        "coding": [ {
          "system": "http://www.ama-assn.org/go/cpt",
          "code": "90689",
          "display": "Influenza virus vaccine, quadrivalent (IIV4), inactivated, adjuvanted, preservative free, 0.25 mL dosage, for intramuscular use"
        } ]
      },
      "subject": {
        "reference": "Patient/1e7dc519-5d75-4c07-b23f-ae9421a12943"
      },
      "performedPeriod": {
        "start": "2024-01-10T00:00:00.000Z",
        "end": "2024-01-10T23:59:59.000Z"
      }
    },
    "request": {
      "method": "POST",
      "url": "Procedure/Procedure-10b"
    }
  }, {
    "fullUrl": "https://madie.cms.gov/MeasureReport/10989c2d-73c0-4e5f-8973-47a73f50ff72",
    "resource": {
      "resourceType": "MeasureReport",
      "id": "10989c2d-73c0-4e5f-8973-47a73f50ff72",
      "meta": {
        "profile": [ "http://hl7.org/fhir/us/cqfmeasures/StructureDefinition/test-case-cqfm" ]
      },
      "contained": [ {
        "resourceType": "Parameters",
        "id": "5d466efd-4349-4d9a-b6a6-1a749a05435d-parameters",
        "parameter": [ {
          "name": "subject",
          "valueString": "1e7dc519-5d75-4c07-b23f-ae9421a12943"
        } ]
      } ],
      "extension": [ {
        "url": "http://hl7.org/fhir/us/cqfmeasures/StructureDefinition/cqfm-inputParameters",
        "valueReference": {
          "reference": "#5d466efd-4349-4d9a-b6a6-1a749a05435d-parameters"
        }
      }, {
        "url": "http://hl7.org/fhir/us/cqfmeasures/StructureDefinition/cqfm-testCaseDescription",
        "valueMarkdown": "All vaccines met - procedures"
      } ],
      "modifierExtension": [ {
        "url": "http://hl7.org/fhir/us/cqfmeasures/StructureDefinition/cqfm-isTestCase",
        "valueBoolean": true
      } ],
      "status": "complete",
      "type": "individual",
      "measure": "https://madie.cms.gov/Measure/ChildhoodImmunizationStatusFHIR",
      "period": {
        "start": "2025-01-01",
        "end": "2025-12-31"
      },
      "group": [ {
        "population": [ {
          "code": {
            "coding": [ {
              "system": "http://terminology.hl7.org/CodeSystem/measure-population",
              "code": "initial-population",
              "display": "Initial Population"
            } ]
          },
          "count": 1
        }, {
          "code": {
            "coding": [ {
              "system": "http://terminology.hl7.org/CodeSystem/measure-population",
              "code": "denominator",
              "display": "Denominator"
            } ]
          },
          "count": 1
        }, {
          "code": {
            "coding": [ {
              "system": "http://terminology.hl7.org/CodeSystem/measure-population",
              "code": "denominator-exclusion",
              "display": "Denominator Exclusion"
            } ]
          },
          "count": 0
        }, {
          "code": {
            "coding": [ {
              "system": "http://terminology.hl7.org/CodeSystem/measure-population",
              "code": "numerator",
              "display": "Numerator"
            } ]
          },
          "count": 1
        } ]
      } ],
      "evaluatedResource": [ {
        "reference": "https://madie.cms.gov/Patient/1e7dc519-5d75-4c07-b23f-ae9421a12943"
      }, {
        "reference": "https://madie.cms.gov/Encounter/Encounter-1"
      }, {
        "reference": "https://madie.cms.gov/Immunization/Immunization-1a"
      }, {
        "reference": "https://madie.cms.gov/Immunization/Immunization-1b"
      }, {
        "reference": "https://madie.cms.gov/Immunization/Immunization-1c"
      }, {
        "reference": "https://madie.cms.gov/Procedure/Procedure-1d"
      }, {
        "reference": "https://madie.cms.gov/Immunization/Immunization-2a"
      }, {
        "reference": "https://madie.cms.gov/Immunization/Immunization-2b"
      }, {
        "reference": "https://madie.cms.gov/Procedure/Procedure-2c"
      }, {
        "reference": "https://madie.cms.gov/Procedure/Procedure-3"
      }, {
        "reference": "https://madie.cms.gov/Immunization/Immunization-4a"
      }, {
        "reference": "https://madie.cms.gov/Immunization/Immunization-4b"
      }, {
        "reference": "https://madie.cms.gov/Procedure/Procedure-4c"
      }, {
        "reference": "https://madie.cms.gov/Immunization/Immunization-5a"
      }, {
        "reference": "https://madie.cms.gov/Immunization/Immunization-5b"
      }, {
        "reference": "https://madie.cms.gov/Procedure/Procedure-5c"
      }, {
        "reference": "https://madie.cms.gov/Immunization/Immunization-6"
      }, {
        "reference": "https://madie.cms.gov/Immunization/Immunization-7a"
      }, {
        "reference": "https://madie.cms.gov/Immunization/Immunization-7b"
      }, {
        "reference": "https://madie.cms.gov/Immunization/Immunization-7c"
      }, {
        "reference": "https://madie.cms.gov/Procedure/Procedure-7d"
      }, {
        "reference": "https://madie.cms.gov/Procedure/Procedure-8"
      }, {
        "reference": "https://madie.cms.gov/Immunization/Immunization-9a"
      }, {
        "reference": "https://madie.cms.gov/Procedure/Procedure-9b"
      }, {
        "reference": "https://madie.cms.gov/Immunization/Immunization-10a"
      }, {
        "reference": "https://madie.cms.gov/Procedure/Procedure-10b"
      } ]
    },
    "request": {
      "method": "POST",
      "url": "MeasureReport/10989c2d-73c0-4e5f-8973-47a73f50ff72"
    }
  } ]
}