{
  "resourceType": "Bundle",
  "id": "63233588414ba67d4e1d1c34",
  "type": "transaction",
  "entry": [ {
    "fullUrl": "https://madie.cms.gov/Patient/f8bc4adf-30b1-405a-89a2-385b302e0106",
    "resource": {
      "resourceType": "Patient",
      "id": "f8bc4adf-30b1-405a-89a2-385b302e0106",
      "meta": {
        "profile": [ "http://hl7.org/fhir/us/qicore/StructureDefinition/qicore-patient" ]
      },
      "extension": [ {
        "url": "http://hl7.org/fhir/us/core/StructureDefinition/us-core-race",
        "extension": [ {
          "url": "ombCategory",
          "valueCoding": {
            "system": "urn:oid:2.16.840.1.113883.6.238",
            "code": "1002-5",
            "display": "American Indian or Alaska Native",
            "userSelected": true
          }
        }, {
          "url": "text",
          "valueString": "American Indian or Alaska Native"
        } ]
      }, {
        "url": "http://hl7.org/fhir/us/core/StructureDefinition/us-core-ethnicity",
        "extension": [ {
          "url": "ombCategory",
          "valueCoding": {
            "system": "urn:oid:2.16.840.1.113883.6.238",
            "code": "2135-2",
            "display": "Hispanic or Latino",
            "userSelected": true
          }
        }, {
          "url": "text",
          "valueString": "Hispanic or Latino"
        } ]
      } ],
      "identifier": [ {
        "type": {
          "coding": [ {
            "system": "http://terminology.hl7.org/CodeSystem/v2-0203",
            "code": "MR"
          } ]
        },
        "system": "https://bonnie-fhir.healthit.gov/",
        "value": "63233588414ba67d4e1d1c34"
      } ],
      "name": [ {
        "family": "DENEXFail",
        "given": [ "OrderForPalliativeCareB4Enc" ]
      } ],
      "gender": "male",
      "birthDate": "2005-02-01"
    },
    "request": {
      "method": "POST",
      "url": "Patient/f8bc4adf-30b1-405a-89a2-385b302e0106"
    }
  }, {
    "fullUrl": "https://madie.cms.gov/Encounter/encounter-inpatient-1c2a",
    "resource": {
      "resourceType": "Encounter",
      "id": "encounter-inpatient-1c2a",
      "meta": {
        "profile": [ "http://hl7.org/fhir/us/qicore/StructureDefinition/qicore-encounter" ]
      },
      "status": "finished",
      "class": {
        "system": "http://terminology.hl7.org/CodeSystem/v3-ActCode",
        "code": "AMB",
        "display": "ambulatory"
      },
      "type": [ {
        "coding": [ {
          "system": "http://snomed.info/sct",
          "version": "2022-03",
          "code": "183452005",
          "display": "Emergency hospital admission (procedure)",
          "userSelected": true
        } ]
      } ],
      "subject": {
        "reference": "Patient/f8bc4adf-30b1-405a-89a2-385b302e0106"
      },
      "period": {
        "start": "2025-12-29T23:45:00.000+00:00",
        "end": "2025-12-31T23:59:00.000+00:00"
      }
    },
    "request": {
      "method": "POST",
      "url": "Encounter/encounter-inpatient-1c2a"
    }
  }, {
    "fullUrl": "https://madie.cms.gov/MedicationRequest/schedule-ii-iii-opioid-medications-1c2b",
    "resource": {
      "resourceType": "MedicationRequest",
      "id": "schedule-ii-iii-opioid-medications-1c2b",
      "meta": {
        "profile": [ "http://hl7.org/fhir/us/qicore/StructureDefinition/qicore-medicationrequest" ]
      },
      "status": "active",
      "intent": "order",
      "category": [ {
        "coding": [ {
          "system": "http://terminology.hl7.org/CodeSystem/medicationrequest-category",
          "code": "discharge",
          "display": "Discharge",
          "userSelected": true
        } ]
      } ],
      "doNotPerform": false,
      "medicationCodeableConcept": {
        "coding": [ {
          "system": "http://www.nlm.nih.gov/research/umls/rxnorm",
          "code": "1298088",
          "display": "flurazepam hydrochloride 15 MG Oral Capsule",
          "userSelected": true
        } ]
      },
      "subject": {
        "reference": "Patient/f8bc4adf-30b1-405a-89a2-385b302e0106"
      },
      "authoredOn": "2025-12-31T23:59:00.000+00:00",
      "requester": {
        "reference": "Practitioner/example",
        "display": "Patrick Pump"
      }
    },
    "request": {
      "method": "POST",
      "url": "MedicationRequest/schedule-ii-iii-opioid-medications-1c2b"
    }
  }, {
    "fullUrl": "https://madie.cms.gov/ServiceRequest/palliative-or-hospice-care-1c2e",
    "resource": {
      "resourceType": "ServiceRequest",
      "id": "palliative-or-hospice-care-1c2e",
      "meta": {
        "profile": [ "http://hl7.org/fhir/us/qicore/StructureDefinition/qicore-servicerequest" ]
      },
      "status": "active",
      "intent": "order",
      "code": {
        "coding": [ {
          "system": "http://snomed.info/sct",
          "version": "2022-03",
          "code": "103735009",
          "display": "Palliative care (regime/therapy)",
          "userSelected": true
        } ]
      },
      "subject": {
        "reference": "Patient/f8bc4adf-30b1-405a-89a2-385b302e0106"
      },
      "authoredOn": "2025-01-01T00:55:00.000+00:00"
    },
    "request": {
      "method": "POST",
      "url": "ServiceRequest/palliative-or-hospice-care-1c2e"
    }
  }, {
    "fullUrl": "https://madie.cms.gov/Coverage/1",
    "resource": {
      "resourceType": "Coverage",
      "id": "1",
      "meta": {
        "profile": [ "http://hl7.org/fhir/us/qicore/StructureDefinition/qicore-coverage" ]
      },
      "status": "active",
      "beneficiary": {
        "reference": "Patient/f8bc4adf-30b1-405a-89a2-385b302e0106"
      },
      "payor": [ {
        "reference": "Organization/123456"
      } ]
    },
    "request": {
      "method": "POST",
      "url": "Coverage/1"
    }
  }, {
    "fullUrl": "https://madie.cms.gov/Organization/123456",
    "resource": {
      "resourceType": "Organization",
      "id": "123456",
      "meta": {
        "profile": [ "http://hl7.org/fhir/us/qicore/StructureDefinition/qicore-organization" ]
      },
      "identifier": [ {
        "use": "temp",
        "system": "urn:oid:2.16.840.1.113883.4.4",
        "value": "21-3259825"
      } ],
      "active": true,
      "type": [ {
        "coding": [ {
          "system": "http://terminology.hl7.org/CodeSystem/organization-type",
          "code": "pay",
          "display": "Payer"
        } ]
      } ],
      "name": "Blue Cross Blue Shield of Texas",
      "telecom": [ {
        "system": "phone",
        "value": "(+1) 972-766-6900"
      } ],
      "address": [ {
        "use": "billing",
        "type": "postal",
        "line": [ "P.O. Box 660044" ],
        "city": "Dallas",
        "state": "TX",
        "postalCode": "75266-0044",
        "country": "USA"
      } ]
    },
    "request": {
      "method": "POST",
      "url": "Organization/123456"
    }
  }, {
    "fullUrl": "https://madie.cms.gov/MeasureReport/82c1fd0a-e014-4eda-b771-4e64aba732fc",
    "resource": {
      "resourceType": "MeasureReport",
      "id": "82c1fd0a-e014-4eda-b771-4e64aba732fc",
      "meta": {
        "profile": [ "http://hl7.org/fhir/us/cqfmeasures/StructureDefinition/test-case-cqfm" ]
      },
      "contained": [ {
        "resourceType": "Parameters",
        "id": "f8cd777b-8739-4d9e-b3b6-dcfb3c151454-parameters",
        "parameter": [ {
          "name": "subject",
          "valueString": "f8bc4adf-30b1-405a-89a2-385b302e0106"
        } ]
      } ],
      "extension": [ {
        "url": "http://hl7.org/fhir/us/cqfmeasures/StructureDefinition/cqfm-inputParameters",
        "valueReference": {
          "reference": "#f8cd777b-8739-4d9e-b3b6-dcfb3c151454-parameters"
        }
      }, {
        "url": "http://hl7.org/fhir/us/cqfmeasures/StructureDefinition/cqfm-testCaseDescription",
        "valueMarkdown": "Encounter 12/29 - 12/31, 23:45 -23:59, age 18, opioids, order for palliative care 1 day before encounter"
      } ],
      "modifierExtension": [ {
        "url": "http://hl7.org/fhir/us/cqfmeasures/StructureDefinition/cqfm-isTestCase",
        "valueBoolean": true
      } ],
      "status": "complete",
      "type": "individual",
      "measure": "https://madie.cms.gov/Measure/SafeUseofOpioidsConcurrentPrescribingFHIR",
      "period": {
        "start": "2025-01-01",
        "end": "2025-12-31"
      },
      "group": [ {
        "population": [ {
          "code": {
            "coding": [ {
              "system": "http://terminology.hl7.org/CodeSystem/measure-population",
              "code": "initial-population",
              "display": "Initial Population"
            } ]
          },
          "count": 1
        }, {
          "code": {
            "coding": [ {
              "system": "http://terminology.hl7.org/CodeSystem/measure-population",
              "code": "denominator",
              "display": "Denominator"
            } ]
          },
          "count": 1
        }, {
          "code": {
            "coding": [ {
              "system": "http://terminology.hl7.org/CodeSystem/measure-population",
              "code": "denominator-exclusion",
              "display": "Denominator Exclusion"
            } ]
          },
          "count": 0
        }, {
          "code": {
            "coding": [ {
              "system": "http://terminology.hl7.org/CodeSystem/measure-population",
              "code": "numerator",
              "display": "Numerator"
            } ]
          },
          "count": 0
        } ]
      } ],
      "evaluatedResource": [ {
        "reference": "https://madie.cms.gov/Patient/f8bc4adf-30b1-405a-89a2-385b302e0106"
      }, {
        "reference": "https://madie.cms.gov/Encounter/encounter-inpatient-1c2a"
      }, {
        "reference": "https://madie.cms.gov/MedicationRequest/schedule-ii-iii-opioid-medications-1c2b"
      }, {
        "reference": "https://madie.cms.gov/ServiceRequest/palliative-or-hospice-care-1c2e"
      }, {
        "reference": "https://madie.cms.gov/Coverage/1"
      }, {
        "reference": "https://madie.cms.gov/Organization/123456"
      } ]
    },
    "request": {
      "method": "POST",
      "url": "MeasureReport/82c1fd0a-e014-4eda-b771-4e64aba732fc"
    }
  } ]
}