{"resourceType":"Bundle","id":"tests-68109c29-0e38-4fb1-b994-846311eb3079-bundle","type":"transaction","entry":[{"fullUrl":"https://madie.cms.gov/Patient/68109c29-0e38-4fb1-b994-846311eb3079","resource":{"resourceType":"Patient","id":"68109c29-0e38-4fb1-b994-846311eb3079","meta":{"profile":["http://hl7.org/fhir/us/qicore/StructureDefinition/qicore-patient"]},"extension":[{"url":"http://hl7.org/fhir/us/core/StructureDefinition/us-core-race","extension":[{"url":"ombCategory","valueCoding":{"system":"urn:oid:2.16.840.1.113883.6.238","code":"2106-3","display":"White","userSelected":true}},{"url":"text","valueString":"White"}]},{"url":"http://hl7.org/fhir/us/core/StructureDefinition/us-core-ethnicity","extension":[{"url":"ombCategory","valueCoding":{"system":"urn:oid:2.16.840.1.113883.6.238","code":"2135-2","display":"Hispanic or Latino","userSelected":true}},{"url":"text","valueString":"Hispanic or Latino"}]}],"identifier":[{"type":{"coding":[{"system":"http://terminology.hl7.org/CodeSystem/v2-0203","code":"MR"}]},"system":"https://GoodHealthCare.com/","value":"6109658e98086b538055b9d0"}],"active":true,"name":[{"use":"usual","family":"NUMERPass","given":["OpticDiscExm1MinB4EncEdge"]}],"gender":"male","birthDate":"1969-03-15"},"request":{"method":"PUT","url":"Patient/68109c29-0e38-4fb1-b994-846311eb3079"}},{"fullUrl":"https://madie.cms.gov/Condition/5e1f9548eab2e700004583ec","resource":{"resourceType":"Condition","id":"91c0a023-d489-480f-aac4-a5a509c7f4ae","meta":{"profile":["http://hl7.org/fhir/us/qicore/StructureDefinition/qicore-condition"]},"clinicalStatus":{"coding":[{"system":"http://terminology.hl7.org/CodeSystem/condition-clinical","code":"active","display":"active","userSelected":true}]},"category":[{"coding":[{"system":"http://terminology.hl7.org/CodeSystem/condition-category","code":"problem-list-item","display":"problem-list-item","userSelected":true}]}],"code":{"coding":[{"system":"http://hl7.org/fhir/sid/icd-10-cm","version":"2023","code":"H40.1121"}]},"subject":{"reference":"Patient/68109c29-0e38-4fb1-b994-846311eb3079"},"onsetDateTime":"2019-03-15T07:30:00+00:00"},"request":{"method":"PUT","url":"Condition/91c0a023-d489-480f-aac4-a5a509c7f4ae"}},{"fullUrl":"https://madie.cms.gov/Observation/5c9a433bb848462383850286","resource":{"resourceType":"Observation","id":"d00efce4-3f53-4c3d-b893-e8d33264e705","meta":{"profile":["http://hl7.org/fhir/us/qicore/StructureDefinition/qicore-observation"]},"status":"final","category":[{"coding":[{"system":"http://terminology.hl7.org/CodeSystem/observation-category","code":"laboratory","display":"laboratory","userSelected":true}]}],"code":{"coding":[{"system":"http://loinc.org","version":"2.73","code":"71487-3"}]},"subject":{"reference":"Patient/68109c29-0e38-4fb1-b994-846311eb3079"},"effectiveDateTime":"2025-01-28T08:00:00.000+00:00","valueQuantity":{"value":0.8}},"request":{"method":"PUT","url":"Observation/d00efce4-3f53-4c3d-b893-e8d33264e705"}},{"fullUrl":"https://madie.cms.gov/Observation/5c9a433bb848462383850288","resource":{"resourceType":"Observation","id":"d542123f-81ad-47b1-b1bc-2a28cc4f0f5c","meta":{"profile":["http://hl7.org/fhir/us/qicore/StructureDefinition/qicore-observation"]},"status":"final","category":[{"coding":[{"system":"http://terminology.hl7.org/CodeSystem/observation-category","code":"laboratory","display":"laboratory","userSelected":true}]}],"code":{"coding":[{"system":"http://loinc.org","version":"2.73","code":"71484-0"}]},"subject":{"reference":"Patient/68109c29-0e38-4fb1-b994-846311eb3079"},"effectiveDateTime":"2025-01-28T08:29:00.000+00:00","valueQuantity":{"value":0.7}},"request":{"method":"PUT","url":"Observation/d542123f-81ad-47b1-b1bc-2a28cc4f0f5c"}},{"fullUrl":"https://madie.cms.gov/Encounter/5c9a433bb848462383850285","resource":{"resourceType":"Encounter","id":"c5878f82-bcb7-41cd-ab84-779347690d06","meta":{"profile":["http://hl7.org/fhir/us/qicore/StructureDefinition/qicore-encounter"]},"status":"finished","class":{"system":"http://terminology.hl7.org/CodeSystem/v3-ActCode","code":"AMB","display":"ambulatory","userSelected":true},"type":[{"coding":[{"system":"http://www.ama-assn.org/go/cpt","version":"2023","code":"99213"}]}],"subject":{"reference":"Patient/68109c29-0e38-4fb1-b994-846311eb3079"},"period":{"start":"2025-01-28T08:00:00.000+00:00","end":"2025-01-28T08:30:00.000+00:00"},"length":{"value":0,"unit":"days"}},"request":{"method":"PUT","url":"Encounter/c5878f82-bcb7-41cd-ab84-779347690d06"}},{"fullUrl":"https://madie.cms.gov/MeasureReport/65408bd9-7d96-47a8-8f50-6c38cc90e4dc","resource":{"resourceType":"MeasureReport","id":"65408bd9-7d96-47a8-8f50-6c38cc90e4dc","meta":{"profile":["http://hl7.org/fhir/us/cqfmeasures/StructureDefinition/test-case-cqfm"]},"contained":[{"resourceType":"Parameters","id":"043d87c6-ead6-4f8d-8f36-53e36086c741-parameters","parameter":[{"name":"subject","valueString":"68109c29-0e38-4fb1-b994-846311eb3079"}]}],"extension":[{"url":"http://hl7.org/fhir/us/cqfmeasures/StructureDefinition/cqfm-inputParameters","valueReference":{"reference":"#043d87c6-ead6-4f8d-8f36-53e36086c741-parameters"}},{"url":"http://hl7.org/fhir/us/cqfmeasures/StructureDefinition/cqfm-testCaseDescription","valueMarkdown":"Numerator required optic disc exam occurs 1 minute before end of encounter."}],"modifierExtension":[{"url":"http://hl7.org/fhir/us/cqfmeasures/StructureDefinition/cqfm-isTestCase","valueBoolean":true}],"status":"complete","type":"individual","measure":"https://madie.cms.gov/Measure/POAGOpticNerveEvaluationFHIR","period":{"start":"2025-01-01","end":"2025-12-31"},"group":[{"population":[{"code":{"coding":[{"system":"http://terminology.hl7.org/CodeSystem/measure-population","code":"initial-population","display":"Initial Population"}]},"count":1},{"code":{"coding":[{"system":"http://terminology.hl7.org/CodeSystem/measure-population","code":"denominator","display":"Denominator"}]},"count":1},{"code":{"coding":[{"system":"http://terminology.hl7.org/CodeSystem/measure-population","code":"denominator-exception","display":"Denominator Exception"}]},"count":0},{"code":{"coding":[{"system":"http://terminology.hl7.org/CodeSystem/measure-population","code":"numerator","display":"Numerator"}]},"count":1}]}]},"request":{"method":"PUT","url":"MeasureReport/65408bd9-7d96-47a8-8f50-6c38cc90e4dc"}}]}