{"resourceType":"Bundle","id":"tests-7263b5ad-e3fe-45af-8775-b827ecfd1c93-bundle","type":"transaction","entry":[{"fullUrl":"https://madie.cms.gov/Patient/7263b5ad-e3fe-45af-8775-b827ecfd1c93","resource":{"resourceType":"Patient","id":"7263b5ad-e3fe-45af-8775-b827ecfd1c93","meta":{"profile":["http://hl7.org/fhir/us/qicore/StructureDefinition/qicore-patient"]},"extension":[{"url":"http://hl7.org/fhir/us/core/StructureDefinition/us-core-race","extension":[{"url":"ombCategory","valueCoding":{"system":"urn:oid:2.16.840.1.113883.6.238","code":"1002-5","display":"American Indian or Alaska Native","userSelected":true}},{"url":"text","valueString":"American Indian or Alaska Native"}]},{"url":"http://hl7.org/fhir/us/core/StructureDefinition/us-core-ethnicity","extension":[{"url":"ombCategory","valueCoding":{"system":"urn:oid:2.16.840.1.113883.6.238","code":"2135-2","display":"Hispanic or Latino","userSelected":true}},{"url":"text","valueString":"Hispanic or Latino"}]}],"identifier":[{"type":{"coding":[{"system":"http://terminology.hl7.org/CodeSystem/v2-0203","code":"MR"}]},"system":"https://bonnie-fhir.healthit.gov/","value":"6109658e98086b538055b9d0"}],"active":true,"name":[{"use":"usual","family":"NUMERFail","given":["OpticDiscExmB4EncEdge"]}],"gender":"female","birthDate":"1946-09-18"},"request":{"method":"PUT","url":"Patient/7263b5ad-e3fe-45af-8775-b827ecfd1c93"}},{"fullUrl":"https://madie.cms.gov/Condition/5e1f9548eab2e700004583ec","resource":{"resourceType":"Condition","id":"ac1927b8-5827-4792-b3f9-92e0892a872b","meta":{"profile":["http://hl7.org/fhir/us/qicore/StructureDefinition/qicore-condition"]},"clinicalStatus":{"coding":[{"system":"http://terminology.hl7.org/CodeSystem/condition-clinical","code":"active","display":"active","userSelected":true}]},"category":[{"coding":[{"system":"http://terminology.hl7.org/CodeSystem/condition-category","code":"problem-list-item","display":"problem-list-item","userSelected":true}]}],"code":{"coding":[{"system":"http://hl7.org/fhir/sid/icd-10-cm","code":"H40.10X0"}]},"subject":{"reference":"Patient/7263b5ad-e3fe-45af-8775-b827ecfd1c93"},"onsetDateTime":"2014-06-15T07:00:00+00:00"},"request":{"method":"PUT","url":"Condition/ac1927b8-5827-4792-b3f9-92e0892a872b"}},{"fullUrl":"https://madie.cms.gov/Observation/5c9a433bb848462383850286","resource":{"resourceType":"Observation","id":"2a8bdc16-28f0-4ef0-bce3-ab99494cfa87","meta":{"profile":["http://hl7.org/fhir/us/qicore/StructureDefinition/qicore-observation"]},"status":"final","category":[{"coding":[{"system":"http://terminology.hl7.org/CodeSystem/observation-category","code":"laboratory","display":"laboratory","userSelected":true}]}],"code":{"coding":[{"system":"http://loinc.org","version":"2.73","code":"71486-5"}]},"subject":{"reference":"Patient/7263b5ad-e3fe-45af-8775-b827ecfd1c93"},"effectiveDateTime":"2025-01-22T08:00:00.000+00:00","valueString":"Optic disc neural rim asymmetry of the two eyes consistent with loss of neural tissue"},"request":{"method":"PUT","url":"Observation/2a8bdc16-28f0-4ef0-bce3-ab99494cfa87"}},{"fullUrl":"https://madie.cms.gov/Observation/5c9a433bb848462383850288","resource":{"resourceType":"Observation","id":"a909eb6b-2156-4342-a44d-90db6228e26b","meta":{"profile":["http://hl7.org/fhir/us/qicore/StructureDefinition/qicore-observation"]},"status":"final","category":[{"coding":[{"system":"http://terminology.hl7.org/CodeSystem/observation-category","code":"laboratory","display":"laboratory","userSelected":true}]}],"code":{"coding":[{"system":"http://loinc.org","version":"2.73","code":"71486-5","display":"Left eye Optic disc or retinal nerve fiber layer structural abnormalities by Ophthalmoscopy"}]},"subject":{"reference":"Patient/7263b5ad-e3fe-45af-8775-b827ecfd1c93"},"effectiveDateTime":"2025-01-26T07:59:00.000+00:00","valueQuantity":{"value":0.7}},"request":{"method":"PUT","url":"Observation/a909eb6b-2156-4342-a44d-90db6228e26b"}},{"fullUrl":"https://madie.cms.gov/Encounter/5c9a433bb848462383850285","resource":{"resourceType":"Encounter","id":"274a7658-752e-4a23-9c36-ec9f268269d0","meta":{"profile":["http://hl7.org/fhir/us/qicore/StructureDefinition/qicore-encounter"]},"status":"finished","class":{"system":"http://terminology.hl7.org/CodeSystem/v3-ActCode","code":"AMB","display":"ambulatory","userSelected":true},"type":[{"coding":[{"system":"http://www.ama-assn.org/go/cpt","version":"2023","code":"99213"}]}],"subject":{"reference":"Patient/7263b5ad-e3fe-45af-8775-b827ecfd1c93"},"period":{"start":"2025-01-26T08:00:00.000+00:00","end":"2025-01-26T08:00:00.000+00:00"},"length":{"value":0,"unit":"days"}},"request":{"method":"PUT","url":"Encounter/274a7658-752e-4a23-9c36-ec9f268269d0"}},{"fullUrl":"https://madie.cms.gov/MeasureReport/f7ed090a-0c52-4360-a61b-21316f0d0e0b","resource":{"resourceType":"MeasureReport","id":"f7ed090a-0c52-4360-a61b-21316f0d0e0b","meta":{"profile":["http://hl7.org/fhir/us/cqfmeasures/StructureDefinition/test-case-cqfm"]},"contained":[{"resourceType":"Parameters","id":"be04cccd-9d2c-4ca3-9fa3-9667b10cfb1e-parameters","parameter":[{"name":"subject","valueString":"7263b5ad-e3fe-45af-8775-b827ecfd1c93"}]}],"extension":[{"url":"http://hl7.org/fhir/us/cqfmeasures/StructureDefinition/cqfm-inputParameters","valueReference":{"reference":"#be04cccd-9d2c-4ca3-9fa3-9667b10cfb1e-parameters"}},{"url":"http://hl7.org/fhir/us/cqfmeasures/StructureDefinition/cqfm-testCaseDescription","valueMarkdown":"Required Optic Disc Exam for Patient with POAG Qualifying Encounter occurs before POAG Enc period start by 1 minute"}],"modifierExtension":[{"url":"http://hl7.org/fhir/us/cqfmeasures/StructureDefinition/cqfm-isTestCase","valueBoolean":true}],"status":"complete","type":"individual","measure":"https://madie.cms.gov/Measure/POAGOpticNerveEvaluationFHIR","period":{"start":"2025-01-01","end":"2025-12-31"},"group":[{"population":[{"code":{"coding":[{"system":"http://terminology.hl7.org/CodeSystem/measure-population","code":"initial-population","display":"Initial Population"}]},"count":1},{"code":{"coding":[{"system":"http://terminology.hl7.org/CodeSystem/measure-population","code":"denominator","display":"Denominator"}]},"count":1},{"code":{"coding":[{"system":"http://terminology.hl7.org/CodeSystem/measure-population","code":"denominator-exception","display":"Denominator Exception"}]},"count":0},{"code":{"coding":[{"system":"http://terminology.hl7.org/CodeSystem/measure-population","code":"numerator","display":"Numerator"}]},"count":0}]}]},"request":{"method":"PUT","url":"MeasureReport/f7ed090a-0c52-4360-a61b-21316f0d0e0b"}}]}