{
  "resourceType": "Bundle",
  "id": "64137cbf4b11b147841ab900",
  "type": "transaction",
  "entry": [ {
    "fullUrl": "https://madie.cms.gov/Patient/ae52c591-1a71-4090-aeeb-2dd758f63ce4",
    "resource": {
      "resourceType": "Patient",
      "id": "ae52c591-1a71-4090-aeeb-2dd758f63ce4",
      "meta": {
        "profile": [ "http://hl7.org/fhir/us/qicore/StructureDefinition/qicore-patient" ]
      },
      "extension": [ {
        "url": "http://hl7.org/fhir/us/core/StructureDefinition/us-core-race",
        "extension": [ {
          "url": "ombCategory",
          "valueCoding": {
            "system": "urn:oid:2.16.840.1.113883.6.238",
            "code": "2076-8",
            "display": "Native Hawaiian or Other Pacific Islander",
            "userSelected": true
          }
        }, {
          "url": "text",
          "valueString": "Native Hawaiian or Other Pacific Islander"
        } ]
      }, {
        "url": "http://hl7.org/fhir/us/core/StructureDefinition/us-core-ethnicity",
        "extension": [ {
          "url": "ombCategory",
          "valueCoding": {
            "system": "urn:oid:2.16.840.1.113883.6.238",
            "code": "2186-5",
            "display": "Not Hispanic or Latino",
            "userSelected": true
          }
        }, {
          "url": "text",
          "valueString": "Not Hispanic or Latino"
        } ]
      } ],
      "identifier": [ {
        "type": {
          "coding": [ {
            "system": "http://terminology.hl7.org/CodeSystem/v2-0203",
            "code": "MR"
          } ]
        },
        "system": "https://bonnie-fhir.healthit.gov/",
        "value": "64137cbf4b11b147841ab900"
      } ],
      "name": [ {
        "family": "DENOMPass",
        "given": [ "MutlipeEncounterDiagnosis" ]
      } ],
      "gender": "female",
      "birthDate": "1997-01-01"
    },
    "request": {
      "method": "POST",
      "url": "Patient/ae52c591-1a71-4090-aeeb-2dd758f63ce4"
    }
  }, {
    "fullUrl": "https://madie.cms.gov/Condition/diabetes-b901",
    "resource": {
      "resourceType": "Condition",
      "id": "diabetes-b901",
      "meta": {
        "profile": [ "http://hl7.org/fhir/us/qicore/StructureDefinition/qicore-condition" ]
      },
      "clinicalStatus": {
        "coding": [ {
          "system": "http://terminology.hl7.org/CodeSystem/condition-clinical",
          "code": "active",
          "display": "active",
          "userSelected": true
        } ]
      },
      "category": [ {
        "coding": [ {
          "system": "http://terminology.hl7.org/CodeSystem/condition-category",
          "code": "encounter-diagnosis",
          "display": "Encounter Diagnosis",
          "userSelected": true
        } ]
      } ],
      "code": {
        "coding": [ {
          "system": "http://snomed.info/sct",
          "version": "2021-09",
          "code": "102781000119107",
          "display": "Sensory neuropathy due to type 1 diabetes mellitus (disorder)",
          "userSelected": true
        } ]
      },
      "subject": {
        "reference": "Patient/ae52c591-1a71-4090-aeeb-2dd758f63ce4"
      },
      "onsetDateTime": "2021-06-16T08:00:00.000+00:00"
    },
    "request": {
      "method": "POST",
      "url": "Condition/diabetes-b901"
    }
  }, {
    "fullUrl": "https://madie.cms.gov/Encounter/home-healthcare-services-b904",
    "resource": {
      "resourceType": "Encounter",
      "id": "home-healthcare-services-b904",
      "meta": {
        "profile": [ "http://hl7.org/fhir/us/qicore/StructureDefinition/qicore-encounter" ]
      },
      "status": "finished",
      "class": {
        "system": "http://terminology.hl7.org/CodeSystem/v3-ActCode",
        "code": "AMB",
        "display": "ambulatory",
        "userSelected": true
      },
      "type": [ {
        "coding": [ {
          "system": "http://snomed.info/sct",
          "version": "2021-09",
          "code": "185460008",
          "display": "Home visit request by patient (procedure)",
          "userSelected": true
        } ]
      } ],
      "subject": {
        "reference": "Patient/ae52c591-1a71-4090-aeeb-2dd758f63ce4"
      },
      "period": {
        "start": "2025-02-15T08:00:00.000+00:00",
        "end": "2025-02-15T08:15:00.000+00:00"
      }
    },
    "request": {
      "method": "POST",
      "url": "Encounter/home-healthcare-services-b904"
    }
  }, {
    "fullUrl": "https://madie.cms.gov/Encounter/telephone-visits-b905",
    "resource": {
      "resourceType": "Encounter",
      "id": "telephone-visits-b905",
      "meta": {
        "profile": [ "http://hl7.org/fhir/us/qicore/StructureDefinition/qicore-encounter" ]
      },
      "status": "finished",
      "class": {
        "system": "http://terminology.hl7.org/CodeSystem/v3-ActCode",
        "code": "AMB",
        "display": "ambulatory",
        "userSelected": true
      },
      "type": [ {
        "coding": [ {
          "system": "http://snomed.info/sct",
          "version": "2021-09",
          "code": "185317003",
          "display": "Telephone encounter (procedure)",
          "userSelected": true
        } ]
      } ],
      "subject": {
        "reference": "Patient/ae52c591-1a71-4090-aeeb-2dd758f63ce4"
      },
      "period": {
        "start": "2025-03-07T08:00:00.000+00:00",
        "end": "2025-03-07T08:15:00.000+00:00"
      }
    },
    "request": {
      "method": "POST",
      "url": "Encounter/telephone-visits-b905"
    }
  }, {
    "fullUrl": "https://madie.cms.gov/MeasureReport/5c243c30-d65f-4ea1-87f0-6aa73b1d0d74",
    "resource": {
      "resourceType": "MeasureReport",
      "id": "5c243c30-d65f-4ea1-87f0-6aa73b1d0d74",
      "meta": {
        "profile": [ "http://hl7.org/fhir/us/cqfmeasures/StructureDefinition/test-case-cqfm" ]
      },
      "contained": [ {
        "resourceType": "Parameters",
        "id": "8bd2a88f-dea7-4bc2-936e-010e1d75cfc4-parameters",
        "parameter": [ {
          "name": "subject",
          "valueString": "ae52c591-1a71-4090-aeeb-2dd758f63ce4"
        } ]
      } ],
      "extension": [ {
        "url": "http://hl7.org/fhir/us/cqfmeasures/StructureDefinition/cqfm-inputParameters",
        "valueReference": {
          "reference": "#8bd2a88f-dea7-4bc2-936e-010e1d75cfc4-parameters"
        }
      }, {
        "url": "http://hl7.org/fhir/us/cqfmeasures/StructureDefinition/cqfm-testCaseDescription",
        "valueMarkdown": "This patient is 27. Have multiple qualifying encounters and diagnosis\n"
      } ],
      "modifierExtension": [ {
        "url": "http://hl7.org/fhir/us/cqfmeasures/StructureDefinition/cqfm-isTestCase",
        "valueBoolean": true
      } ],
      "status": "complete",
      "type": "individual",
      "measure": "https://madie.cms.gov/Measure/KidneyHealthEvaluationFHIR",
      "period": {
        "start": "2025-01-01",
        "end": "2025-12-31"
      },
      "group": [ {
        "population": [ {
          "code": {
            "coding": [ {
              "system": "http://terminology.hl7.org/CodeSystem/measure-population",
              "code": "initial-population",
              "display": "Initial Population"
            } ]
          },
          "count": 1
        }, {
          "code": {
            "coding": [ {
              "system": "http://terminology.hl7.org/CodeSystem/measure-population",
              "code": "denominator",
              "display": "Denominator"
            } ]
          },
          "count": 1
        }, {
          "code": {
            "coding": [ {
              "system": "http://terminology.hl7.org/CodeSystem/measure-population",
              "code": "denominator-exclusion",
              "display": "Denominator Exclusion"
            } ]
          },
          "count": 0
        }, {
          "code": {
            "coding": [ {
              "system": "http://terminology.hl7.org/CodeSystem/measure-population",
              "code": "numerator",
              "display": "Numerator"
            } ]
          },
          "count": 0
        } ]
      } ],
      "evaluatedResource": [ {
        "reference": "Patient/ae52c591-1a71-4090-aeeb-2dd758f63ce4"
      }, {
        "reference": "Condition/diabetes-b901"
      }, {
        "reference": "Encounter/home-healthcare-services-b904"
      }, {
        "reference": "Encounter/telephone-visits-b905"
      } ]
    },
    "request": {
      "method": "POST",
      "url": "MeasureReport/5c243c30-d65f-4ea1-87f0-6aa73b1d0d74"
    }
  } ]
}