{"resourceType":"Bundle","id":"tests-08a2c605-1316-4d3c-b26e-2b40a28a2e44-bundle","type":"transaction","entry":[{"fullUrl":"https://madie.cms.gov/Patient/08a2c605-1316-4d3c-b26e-2b40a28a2e44","resource":{"resourceType":"Patient","id":"08a2c605-1316-4d3c-b26e-2b40a28a2e44","meta":{"profile":["http://hl7.org/fhir/us/qicore/StructureDefinition/qicore-patient"]},"extension":[{"url":"http://hl7.org/fhir/us/core/StructureDefinition/us-core-race","extension":[{"url":"ombCategory","valueCoding":{"system":"urn:oid:2.16.840.1.113883.6.238","code":"1002-5","display":"American Indian or Alaska Native","userSelected":true}},{"url":"text","valueString":"American Indian or Alaska Native"}]},{"url":"http://hl7.org/fhir/us/core/StructureDefinition/us-core-ethnicity","extension":[{"url":"ombCategory","valueCoding":{"system":"urn:oid:2.16.840.1.113883.6.238","code":"2135-2","display":"Hispanic or Latino","userSelected":true}},{"url":"text","valueString":"Hispanic or Latino"}]}],"identifier":[{"type":{"coding":[{"system":"http://terminology.hl7.org/CodeSystem/v2-0203","code":"MR"}]},"system":"https://bonnie-fhir.healthit.gov/","value":"62ebf3c03098e555509819d4"}],"name":[{"family":"NUMERPop2Pass","given":["PrescribedLowIntensityStatin"]}],"gender":"male","birthDate":"2002-01-01"},"request":{"method":"PUT","url":"Patient/08a2c605-1316-4d3c-b26e-2b40a28a2e44"}},{"fullUrl":"https://madie.cms.gov/Encounter/outpatient-consultation-6c12","resource":{"resourceType":"Encounter","id":"d2f2356a-1c72-42d8-9d6c-8436d89fb623","meta":{"profile":["http://hl7.org/fhir/us/qicore/StructureDefinition/qicore-encounter"]},"status":"finished","class":{"system":"http://terminology.hl7.org/CodeSystem/v3-ActCode","code":"AMB","display":"ambulatory"},"type":[{"coding":[{"system":"http://snomed.info/sct","version":"2022-03","code":"281036007","display":"Follow-up consultation (procedure)","userSelected":true}]}],"subject":{"reference":"Patient/08a2c605-1316-4d3c-b26e-2b40a28a2e44"},"period":{"start":"2025-01-01T08:00:00.000+00:00","end":"2025-01-01T08:45:00.000+00:00"}},"request":{"method":"PUT","url":"Encounter/d2f2356a-1c72-42d8-9d6c-8436d89fb623"}},{"fullUrl":"https://madie.cms.gov/MedicationRequest/low-intensity-statin-therapy-6c14","resource":{"resourceType":"MedicationRequest","id":"237a5b24-8aa9-402d-80ca-f5fdd4c2ec60","meta":{"profile":["http://hl7.org/fhir/us/qicore/StructureDefinition/qicore-medicationrequest"]},"status":"active","intent":"order","doNotPerform":false,"medicationCodeableConcept":{"coding":[{"system":"http://www.nlm.nih.gov/research/umls/rxnorm","code":"1790679","display":"simvastatin 4 MG/ML Oral Suspension","userSelected":true}]},"subject":{"reference":"Patient/08a2c605-1316-4d3c-b26e-2b40a28a2e44"},"authoredOn":"2025-01-01T08:00:00.000+00:00","requester":{"reference":"Practitioner/example"},"dosageInstruction":[{"timing":{"event":["2025-01-01T08:00:00.000+00:00"],"repeat":{"boundsPeriod":{"start":"2025-01-01T08:00:00.000+00:00","end":"2025-01-31T08:15:00.000+00:00"},"count":90,"countMax":90},"code":{"coding":[{"system":"http://terminology.hl7.org/CodeSystem/v3-GTSAbbreviation","code":"QD","display":"QD","userSelected":true}]}}}]},"request":{"method":"PUT","url":"MedicationRequest/237a5b24-8aa9-402d-80ca-f5fdd4c2ec60"}},{"fullUrl":"https://madie.cms.gov/Condition/familial-hypercholesterolemia-19db","resource":{"resourceType":"Condition","id":"faea5f1f-bb3c-4ca9-b2d5-509a22c29067","meta":{"profile":["http://hl7.org/fhir/us/qicore/StructureDefinition/qicore-condition"]},"clinicalStatus":{"coding":[{"system":"http://terminology.hl7.org/CodeSystem/condition-clinical","code":"active","display":"Active","userSelected":true}]},"category":[{"coding":[{"system":"http://terminology.hl7.org/CodeSystem/condition-category","code":"problem-list-item","display":"Problem List Item"}]}],"code":{"coding":[{"system":"http://snomed.info/sct","version":"2022-03","code":"398036000","display":"Familial hypercholesterolemia (disorder)","userSelected":true}]},"subject":{"reference":"Patient/08a2c605-1316-4d3c-b26e-2b40a28a2e44"},"onsetPeriod":{"start":"2025-12-31T08:00:00.000+00:00"}},"request":{"method":"PUT","url":"Condition/faea5f1f-bb3c-4ca9-b2d5-509a22c29067"}},{"fullUrl":"https://madie.cms.gov/Coverage/1","resource":{"resourceType":"Coverage","id":"683b0fe7-2986-4f48-9875-e9f2c910b128","meta":{"profile":["http://hl7.org/fhir/us/qicore/StructureDefinition/qicore-coverage"]},"status":"active","beneficiary":{"reference":"Patient/08a2c605-1316-4d3c-b26e-2b40a28a2e44"},"payor":[{"reference":"Organization/26111c91-b0e2-476c-a20b-e3f39799f8f5"}]},"request":{"method":"PUT","url":"Coverage/683b0fe7-2986-4f48-9875-e9f2c910b128"}},{"fullUrl":"https://madie.cms.gov/Organization/123456","resource":{"resourceType":"Organization","id":"26111c91-b0e2-476c-a20b-e3f39799f8f5","meta":{"profile":["http://hl7.org/fhir/us/qicore/StructureDefinition/qicore-organization"]},"identifier":[{"use":"temp","system":"urn:oid:2.16.840.1.113883.4.4","value":"21-3259825"}],"active":true,"type":[{"coding":[{"system":"http://terminology.hl7.org/CodeSystem/organization-type","code":"pay","display":"Payer"}]}],"name":"Blue Cross Blue Shield of Texas","telecom":[{"system":"phone","value":"(+1) 972-766-6900"}],"address":[{"use":"billing","type":"postal","line":["P.O. Box 660044"],"city":"Dallas","state":"TX","postalCode":"75266-0044","country":"USA"}]},"request":{"method":"PUT","url":"Organization/26111c91-b0e2-476c-a20b-e3f39799f8f5"}},{"fullUrl":"https://madie.cms.gov/Practitioner/4567","resource":{"resourceType":"Practitioner","id":"ce74f689-c750-4828-b07f-c100f80be93d","meta":{"profile":["http://hl7.org/fhir/us/qicore/StructureDefinition/qicore-practitioner"]},"identifier":[{"system":"http://hl7.org/fhir/sid/us-npi","value":"4567"}],"name":[{"family":"Evil","prefix":["Dr"]}]},"request":{"method":"PUT","url":"Practitioner/ce74f689-c750-4828-b07f-c100f80be93d"}},{"fullUrl":"https://madie.cms.gov/MeasureReport/27231f04-8b55-44af-8b1c-d26a46c4d23e","resource":{"resourceType":"MeasureReport","id":"27231f04-8b55-44af-8b1c-d26a46c4d23e","meta":{"profile":["http://hl7.org/fhir/us/cqfmeasures/StructureDefinition/test-case-cqfm"]},"contained":[{"resourceType":"Parameters","id":"c773f345-a9cd-413c-a298-2b118fa470f6-parameters","parameter":[{"name":"subject","valueString":"08a2c605-1316-4d3c-b26e-2b40a28a2e44"}]}],"extension":[{"url":"http://hl7.org/fhir/us/cqfmeasures/StructureDefinition/cqfm-inputParameters","valueReference":{"reference":"#c773f345-a9cd-413c-a298-2b118fa470f6-parameters"}},{"url":"http://hl7.org/fhir/us/cqfmeasures/StructureDefinition/cqfm-testCaseDescription","valueMarkdown":"Enc. first day of MP, DX of hypercholesterolemia, has active low intensity statin "}],"modifierExtension":[{"url":"http://hl7.org/fhir/us/cqfmeasures/StructureDefinition/cqfm-isTestCase","valueBoolean":true}],"status":"complete","type":"individual","measure":"https://madie.cms.gov/Measure/StatinTherapyforthePreventionandTreatmentofCardiovascularDiseaseFHIR","period":{"start":"2025-01-01","end":"2025-12-31"},"group":[{"population":[{"code":{"coding":[{"system":"http://terminology.hl7.org/CodeSystem/measure-population","code":"initial-population","display":"Initial Population"}]},"count":0},{"code":{"coding":[{"system":"http://terminology.hl7.org/CodeSystem/measure-population","code":"denominator","display":"Denominator"}]},"count":0},{"code":{"coding":[{"system":"http://terminology.hl7.org/CodeSystem/measure-population","code":"denominator-exclusion","display":"Denominator Exclusion"}]},"count":0},{"code":{"coding":[{"system":"http://terminology.hl7.org/CodeSystem/measure-population","code":"numerator","display":"Numerator"}]},"count":0},{"code":{"coding":[{"system":"http://terminology.hl7.org/CodeSystem/measure-population","code":"denominator-exception","display":"Denominator Exception"}]},"count":0}]},{"population":[{"code":{"coding":[{"system":"http://terminology.hl7.org/CodeSystem/measure-population","code":"initial-population","display":"Initial Population"}]},"count":1},{"code":{"coding":[{"system":"http://terminology.hl7.org/CodeSystem/measure-population","code":"denominator","display":"Denominator"}]},"count":1},{"code":{"coding":[{"system":"http://terminology.hl7.org/CodeSystem/measure-population","code":"denominator-exclusion","display":"Denominator Exclusion"}]},"count":0},{"code":{"coding":[{"system":"http://terminology.hl7.org/CodeSystem/measure-population","code":"numerator","display":"Numerator"}]},"count":1},{"code":{"coding":[{"system":"http://terminology.hl7.org/CodeSystem/measure-population","code":"denominator-exception","display":"Denominator Exception"}]},"count":0}]},{"population":[{"code":{"coding":[{"system":"http://terminology.hl7.org/CodeSystem/measure-population","code":"initial-population","display":"Initial Population"}]},"count":0},{"code":{"coding":[{"system":"http://terminology.hl7.org/CodeSystem/measure-population","code":"denominator","display":"Denominator"}]},"count":0},{"code":{"coding":[{"system":"http://terminology.hl7.org/CodeSystem/measure-population","code":"denominator-exclusion","display":"Denominator Exclusion"}]},"count":0},{"code":{"coding":[{"system":"http://terminology.hl7.org/CodeSystem/measure-population","code":"numerator","display":"Numerator"}]},"count":0},{"code":{"coding":[{"system":"http://terminology.hl7.org/CodeSystem/measure-population","code":"denominator-exception","display":"Denominator Exception"}]},"count":0}]},{"population":[{"code":{"coding":[{"system":"http://terminology.hl7.org/CodeSystem/measure-population","code":"initial-population","display":"Initial Population"}]},"count":0},{"code":{"coding":[{"system":"http://terminology.hl7.org/CodeSystem/measure-population","code":"denominator","display":"Denominator"}]},"count":0},{"code":{"coding":[{"system":"http://terminology.hl7.org/CodeSystem/measure-population","code":"denominator-exclusion","display":"Denominator Exclusion"}]},"count":0},{"code":{"coding":[{"system":"http://terminology.hl7.org/CodeSystem/measure-population","code":"numerator","display":"Numerator"}]},"count":0},{"code":{"coding":[{"system":"http://terminology.hl7.org/CodeSystem/measure-population","code":"denominator-exception","display":"Denominator Exception"}]},"count":0}]}]},"request":{"method":"PUT","url":"MeasureReport/27231f04-8b55-44af-8b1c-d26a46c4d23e"}}]}