{
  "resourceType": "Bundle",
  "id": "4613103103131",
  "type": "transaction",
  "entry": [ {
    "fullUrl": "https://madie.cms.gov/Patient/e648fa70-0532-49b0-92f6-dfb5a6d28d94",
    "resource": {
      "resourceType": "Patient",
      "id": "e648fa70-0532-49b0-92f6-dfb5a6d28d94",
      "meta": {
        "profile": [ "http://hl7.org/fhir/us/qicore/StructureDefinition/qicore-patient" ]
      },
      "extension": [ {
        "url": "http://hl7.org/fhir/us/core/StructureDefinition/us-core-race",
        "extension": [ {
          "url": "ombCategory",
          "valueCoding": {
            "system": "urn:oid:2.16.840.1.113883.6.238",
            "code": "2106-3",
            "display": "White"
          }
        }, {
          "url": "text",
          "valueString": "White"
        } ]
      }, {
        "url": "http://hl7.org/fhir/us/core/StructureDefinition/us-core-ethnicity",
        "extension": [ {
          "url": "ombCategory",
          "valueCoding": {
            "system": "urn:oid:2.16.840.1.113883.6.238",
            "code": "2135-2",
            "display": "Hispanic or Latino"
          }
        }, {
          "url": "text",
          "valueString": "Hispanic or Latino"
        } ]
      } ],
      "identifier": [ {
        "type": {
          "coding": [ {
            "system": "http://terminology.hl7.org/CodeSystem/v2-0203",
            "code": "MR"
          } ]
        },
        "system": "https://bonnie-fhir.healthit.gov/",
        "value": "613103ab313C414126351"
      } ],
      "name": [ {
        "family": "DENEXCEPPass",
        "given": [ "BCGNotAvailable" ]
      } ],
      "gender": "female",
      "birthDate": "1975-12-27"
    },
    "request": {
      "method": "POST",
      "url": "Patient/e648fa70-0532-49b0-92f6-dfb5a6d28d94"
    }
  }, {
    "fullUrl": "https://madie.cms.gov/Condition/461313103",
    "resource": {
      "resourceType": "Condition",
      "id": "461313103",
      "meta": {
        "profile": [ "http://hl7.org/fhir/us/qicore/StructureDefinition/qicore-condition" ]
      },
      "clinicalStatus": {
        "coding": [ {
          "system": "http://terminology.hl7.org/CodeSystem/condition-clinical",
          "code": "active",
          "display": "Active"
        } ]
      },
      "verificationStatus": {
        "coding": [ {
          "system": "http://terminology.hl7.org/CodeSystem/condition-ver-status",
          "code": "confirmed",
          "display": "Confirmed"
        } ]
      },
      "category": [ {
        "coding": [ {
          "system": "http://terminology.hl7.org/CodeSystem/condition-category",
          "code": "problem-list-item",
          "display": "Problem List Item"
        } ]
      } ],
      "code": {
        "coding": [ {
          "system": "http://hl7.org/fhir/sid/icd-10-cm",
          "version": "2024",
          "code": "C67.1",
          "display": "Malignant neoplasm of dome of bladder"
        } ]
      },
      "subject": {
        "reference": "Patient/e648fa70-0532-49b0-92f6-dfb5a6d28d94"
      },
      "onsetDateTime": "2025-03-05T08:00:00.000+00:00"
    },
    "request": {
      "method": "POST",
      "url": "Condition/461313103"
    }
  }, {
    "fullUrl": "https://madie.cms.gov/Encounter/461321030",
    "resource": {
      "resourceType": "Encounter",
      "id": "461321030",
      "meta": {
        "profile": [ "http://hl7.org/fhir/us/qicore/StructureDefinition/qicore-encounter" ]
      },
      "status": "finished",
      "class": {
        "system": "http://terminology.hl7.org/CodeSystem/v3-ActCode",
        "code": "AMB",
        "display": "ambulatory"
      },
      "type": [ {
        "coding": [ {
          "system": "http://www.ama-assn.org/go/cpt",
          "version": "2024",
          "code": "99202"
        } ]
      } ],
      "subject": {
        "reference": "Patient/e648fa70-0532-49b0-92f6-dfb5a6d28d94"
      },
      "period": {
        "start": "2025-03-05T08:00:00.000+00:00",
        "end": "2025-03-05T08:15:00.000+00:00"
      }
    },
    "request": {
      "method": "POST",
      "url": "Encounter/461321030"
    }
  }, {
    "fullUrl": "https://madie.cms.gov/MedicationAdministration/464631033",
    "resource": {
      "resourceType": "MedicationAdministration",
      "id": "464631033",
      "meta": {
        "profile": [ "http://hl7.org/fhir/us/qicore/StructureDefinition/qicore-mednotadministered" ]
      },
      "extension": [ {
        "url": "http://hl7.org/fhir/us/qicore/StructureDefinition/qicore-recorded",
        "valueDateTime": "2025-03-06T08:00:00.000+00:00"
      } ],
      "status": "not-done",
      "statusReason": [ {
        "coding": [ {
          "system": "http://snomed.info/sct",
          "version": "http://snomed.info/sct/731000124108/version/20240301",
          "code": "242990004",
          "display": "Drug not available for administration (event)"
        } ]
      } ],
      "medicationCodeableConcept": {
        "coding": [ {
          "system": "http://www.nlm.nih.gov/research/umls/rxnorm",
          "version": "04012024",
          "code": "1653484",
          "display": "BCG, live, Tice strain 50 MG/ML Topical Suspension"
        } ]
      },
      "subject": {
        "reference": "Patient/e648fa70-0532-49b0-92f6-dfb5a6d28d94"
      },
      "effectivePeriod": {
        "start": "2025-03-03T08:00:00.000+00:00",
        "end": "2025-03-06T08:00:00.000+00:00"
      }
    },
    "request": {
      "method": "POST",
      "url": "MedicationAdministration/464631033"
    }
  }, {
    "fullUrl": "https://madie.cms.gov/Procedure/46132035131",
    "resource": {
      "resourceType": "Procedure",
      "id": "46132035131",
      "meta": {
        "profile": [ "http://hl7.org/fhir/us/qicore/StructureDefinition/qicore-procedure" ]
      },
      "extension": [ {
        "url": "http://hl7.org/fhir/us/qicore/StructureDefinition/qicore-recorded",
        "valueDateTime": "2025-03-02T08:00:00.000+00:00"
      } ],
      "status": "completed",
      "code": {
        "coding": [ {
          "system": "http://snomed.info/sct",
          "version": "http://snomed.info/sct/731000124108/version/20240301",
          "code": "254292007",
          "display": "Tumor staging"
        } ]
      },
      "subject": {
        "reference": "Patient/e648fa70-0532-49b0-92f6-dfb5a6d28d94"
      },
      "performedPeriod": {
        "start": "2025-03-05T08:00:00.000+00:00",
        "end": "2025-03-06T08:15:00.000+00:00"
      }
    },
    "request": {
      "method": "POST",
      "url": "Procedure/46132035131"
    }
  }, {
    "fullUrl": "https://madie.cms.gov/Observation/351310303",
    "resource": {
      "resourceType": "Observation",
      "id": "351310303",
      "meta": {
        "profile": [ "http://hl7.org/fhir/us/qicore/StructureDefinition/qicore-observation" ]
      },
      "partOf": [ {
        "reference": "Procedure/46132035131"
      } ],
      "status": "final",
      "category": [ {
        "coding": [ {
          "system": "http://terminology.hl7.org/CodeSystem/observation-category",
          "code": "procedure",
          "display": "Procedure"
        } ]
      } ],
      "code": {
        "coding": [ {
          "system": "http://loinc.org",
          "version": "2.76",
          "code": "21902-2",
          "display": "Stage group.pathology Cancer"
        } ]
      },
      "subject": {
        "reference": "Patient/e648fa70-0532-49b0-92f6-dfb5a6d28d94"
      },
      "effectivePeriod": {
        "start": "2025-03-05T08:00:00.000+00:00",
        "end": "2025-03-06T08:15:00.000+00:00"
      },
      "issued": "2025-03-05T08:00:00.000+00:00",
      "valueCodeableConcept": {
        "coding": [ {
          "system": "http://snomed.info/sct",
          "version": "http://snomed.info/sct/731000124108/version/20240301",
          "code": "1228883000",
          "display": "American Joint Committee on Cancer cTa (qualifier value)"
        } ]
      }
    },
    "request": {
      "method": "POST",
      "url": "Observation/351310303"
    }
  }, {
    "fullUrl": "https://madie.cms.gov/MeasureReport/2716e0b0-8209-4242-907e-62542a1989f3",
    "resource": {
      "resourceType": "MeasureReport",
      "id": "2716e0b0-8209-4242-907e-62542a1989f3",
      "meta": {
        "profile": [ "http://hl7.org/fhir/us/cqfmeasures/StructureDefinition/test-case-cqfm" ]
      },
      "contained": [ {
        "resourceType": "Parameters",
        "id": "aa6dfedb-4440-482b-97f2-8d4f7916b716-parameters",
        "parameter": [ {
          "name": "subject",
          "valueString": "e648fa70-0532-49b0-92f6-dfb5a6d28d94"
        } ]
      } ],
      "extension": [ {
        "url": "http://hl7.org/fhir/us/cqfmeasures/StructureDefinition/cqfm-inputParameters",
        "valueReference": {
          "reference": "#aa6dfedb-4440-482b-97f2-8d4f7916b716-parameters"
        }
      }, {
        "url": "http://hl7.org/fhir/us/cqfmeasures/StructureDefinition/cqfm-testCaseDescription",
        "valueMarkdown": "Patient meets IPP.  BCG not available during MP. Should pass. Note: Issue with Denominator Exception due to negation issues."
      } ],
      "modifierExtension": [ {
        "url": "http://hl7.org/fhir/us/cqfmeasures/StructureDefinition/cqfm-isTestCase",
        "valueBoolean": true
      } ],
      "status": "complete",
      "type": "individual",
      "measure": "https://madie.cms.gov/Measure/IntravesicalBacillusCalmetteGuerinForBladderCancerFHIR",
      "period": {
        "start": "2025-01-01",
        "end": "2025-12-31"
      },
      "group": [ {
        "population": [ {
          "code": {
            "coding": [ {
              "system": "http://terminology.hl7.org/CodeSystem/measure-population",
              "code": "initial-population",
              "display": "Initial Population"
            } ]
          },
          "count": 1
        }, {
          "code": {
            "coding": [ {
              "system": "http://terminology.hl7.org/CodeSystem/measure-population",
              "code": "denominator",
              "display": "Denominator"
            } ]
          },
          "count": 1
        }, {
          "code": {
            "coding": [ {
              "system": "http://terminology.hl7.org/CodeSystem/measure-population",
              "code": "denominator-exclusion",
              "display": "Denominator Exclusion"
            } ]
          },
          "count": 0
        }, {
          "code": {
            "coding": [ {
              "system": "http://terminology.hl7.org/CodeSystem/measure-population",
              "code": "numerator",
              "display": "Numerator"
            } ]
          },
          "count": 0
        }, {
          "code": {
            "coding": [ {
              "system": "http://terminology.hl7.org/CodeSystem/measure-population",
              "code": "denominator-exception",
              "display": "Denominator Exception"
            } ]
          },
          "count": 0
        } ]
      } ],
      "evaluatedResource": [ {
        "reference": "https://madie.cms.gov/Patient/e648fa70-0532-49b0-92f6-dfb5a6d28d94"
      }, {
        "reference": "https://madie.cms.gov/Condition/461313103"
      }, {
        "reference": "https://madie.cms.gov/Encounter/461321030"
      }, {
        "reference": "https://madie.cms.gov/MedicationAdministration/464631033"
      }, {
        "reference": "https://madie.cms.gov/Procedure/46132035131"
      }, {
        "reference": "https://madie.cms.gov/Observation/351310303"
      } ]
    },
    "request": {
      "method": "POST",
      "url": "MeasureReport/2716e0b0-8209-4242-907e-62542a1989f3"
    }
  } ]
}