{
  "resourceType": "Bundle",
  "id": "NUMERFail-sDNA3YearsPriorMP",
  "type": "transaction",
  "entry": [ {
    "fullUrl": "https://madie.cms.gov/Patient/5445cc72-68a1-4b73-b06d-4cf52098e0db",
    "resource": {
      "resourceType": "Patient",
      "id": "5445cc72-68a1-4b73-b06d-4cf52098e0db",
      "meta": {
        "profile": [ "http://hl7.org/fhir/us/qicore/StructureDefinition/qicore-patient" ]
      },
      "extension": [ {
        "url": "http://hl7.org/fhir/us/core/StructureDefinition/us-core-race",
        "extension": [ {
          "url": "ombCategory",
          "valueCoding": {
            "system": "urn:oid:2.16.840.1.113883.6.238",
            "code": "2028-9",
            "display": "Asian"
          }
        }, {
          "url": "text",
          "valueString": "Asian"
        } ]
      }, {
        "url": "http://hl7.org/fhir/us/core/StructureDefinition/us-core-ethnicity",
        "extension": [ {
          "url": "ombCategory",
          "valueCoding": {
            "system": "urn:oid:2.16.840.1.113883.6.238",
            "code": "2135-2",
            "display": "Hispanic or Latino"
          }
        }, {
          "url": "text",
          "valueString": "Hispanic or Latino"
        } ]
      } ],
      "identifier": [ {
        "system": "http://hospital.smarthealthit.org",
        "value": "999999995"
      } ],
      "name": [ {
        "family": "Bertha",
        "given": [ "Betty" ]
      } ],
      "gender": "female",
      "birthDate": "1979-01-01"
    },
    "request": {
      "method": "POST",
      "url": "Patient/5445cc72-68a1-4b73-b06d-4cf52098e0db"
    }
  }, {
    "fullUrl": "https://madie.cms.gov/Encounter/Encounter-20",
    "resource": {
      "resourceType": "Encounter",
      "id": "Encounter-20",
      "meta": {
        "profile": [ "http://hl7.org/fhir/us/qicore/StructureDefinition/qicore-encounter" ]
      },
      "status": "finished",
      "class": {
        "system": "http://terminology.hl7.org/CodeSystem/v3-ActCode",
        "code": "AMB",
        "display": "ambulatory"
      },
      "type": [ {
        "coding": [ {
          "system": "http://snomed.info/sct",
          "code": "185317003",
          "display": "Telephone encounter (procedure)"
        } ]
      } ],
      "subject": {
        "reference": "Patient/5445cc72-68a1-4b73-b06d-4cf52098e0db"
      },
      "period": {
        "start": "2025-01-01T01:00:00.000Z",
        "end": "2025-01-01T01:15:00.000Z"
      }
    },
    "request": {
      "method": "POST",
      "url": "Encounter/Encounter-20"
    }
  }, {
    "fullUrl": "https://madie.cms.gov/Observation/Observation-6",
    "resource": {
      "resourceType": "Observation",
      "id": "Observation-6",
      "meta": {
        "profile": [ "http://hl7.org/fhir/us/qicore/StructureDefinition/qicore-observation" ]
      },
      "status": "corrected",
      "category": [ {
        "coding": [ {
          "system": "http://terminology.hl7.org/CodeSystem/observation-category",
          "code": "laboratory"
        } ]
      } ],
      "code": {
        "coding": [ {
          "system": "http://loinc.org",
          "code": "77353-1",
          "display": "Noninvasive colorectal cancer DNA and occult blood screening [Interpretation] in Stool Narrative"
        } ]
      },
      "subject": {
        "reference": "Patient/5445cc72-68a1-4b73-b06d-4cf52098e0db"
      },
      "effectivePeriod": {
        "start": "2022-12-31T23:50:00.000Z",
        "end": "2022-12-31T23:59:00.000Z"
      },
      "valueCodeableConcept": {
        "coding": [ {
          "system": "http://snomed.info/sct",
          "code": "373066001",
          "display": "Yes (qualifier value)"
        } ]
      }
    },
    "request": {
      "method": "POST",
      "url": "Observation/Observation-6"
    }
  }, {
    "fullUrl": "https://madie.cms.gov/MeasureReport/0e3f406b-246d-4dc3-8273-633b8ac50161",
    "resource": {
      "resourceType": "MeasureReport",
      "id": "0e3f406b-246d-4dc3-8273-633b8ac50161",
      "meta": {
        "profile": [ "http://hl7.org/fhir/us/cqfmeasures/StructureDefinition/test-case-cqfm" ]
      },
      "contained": [ {
        "resourceType": "Parameters",
        "id": "bca9c542-8d2b-41b6-a712-dfa99da59842-parameters",
        "parameter": [ {
          "name": "subject",
          "valueString": "5445cc72-68a1-4b73-b06d-4cf52098e0db"
        } ]
      } ],
      "extension": [ {
        "url": "http://hl7.org/fhir/us/cqfmeasures/StructureDefinition/cqfm-inputParameters",
        "valueReference": {
          "reference": "#bca9c542-8d2b-41b6-a712-dfa99da59842-parameters"
        }
      }, {
        "url": "http://hl7.org/fhir/us/cqfmeasures/StructureDefinition/cqfm-testCaseDescription",
        "valueMarkdown": "Patient has an Stool DNA (sDNA) with FIT test three years prior to the measurement period."
      } ],
      "modifierExtension": [ {
        "url": "http://hl7.org/fhir/us/cqfmeasures/StructureDefinition/cqfm-isTestCase",
        "valueBoolean": true
      } ],
      "status": "complete",
      "type": "individual",
      "measure": "https://madie.cms.gov/Measure/ColonCancerScreeningFHIR",
      "period": {
        "start": "2025-01-01",
        "end": "2025-12-31"
      },
      "group": [ {
        "population": [ {
          "code": {
            "coding": [ {
              "system": "http://terminology.hl7.org/CodeSystem/measure-population",
              "code": "initial-population",
              "display": "Initial Population"
            } ]
          },
          "count": 1
        }, {
          "code": {
            "coding": [ {
              "system": "http://terminology.hl7.org/CodeSystem/measure-population",
              "code": "denominator",
              "display": "Denominator"
            } ]
          },
          "count": 1
        }, {
          "code": {
            "coding": [ {
              "system": "http://terminology.hl7.org/CodeSystem/measure-population",
              "code": "denominator-exclusion",
              "display": "Denominator Exclusion"
            } ]
          },
          "count": 0
        }, {
          "code": {
            "coding": [ {
              "system": "http://terminology.hl7.org/CodeSystem/measure-population",
              "code": "numerator",
              "display": "Numerator"
            } ]
          },
          "count": 0
        } ]
      } ],
      "evaluatedResource": [ {
        "reference": "https://madie.cms.gov/Patient/5445cc72-68a1-4b73-b06d-4cf52098e0db"
      }, {
        "reference": "https://madie.cms.gov/Encounter/Encounter-20"
      }, {
        "reference": "https://madie.cms.gov/Observation/Observation-6"
      } ]
    },
    "request": {
      "method": "POST",
      "url": "MeasureReport/0e3f406b-246d-4dc3-8273-633b8ac50161"
    }
  } ]
}