{"resourceType":"Bundle","id":"tests-e64fd85a-d643-423d-9e3f-d4838e181aa9-bundle","type":"transaction","entry":[{"fullUrl":"https://madie.cms.gov/Patient/e64fd85a-d643-423d-9e3f-d4838e181aa9","resource":{"resourceType":"Patient","id":"e64fd85a-d643-423d-9e3f-d4838e181aa9","meta":{"profile":["http://hl7.org/fhir/us/qicore/StructureDefinition/qicore-patient"]},"extension":[{"url":"http://hl7.org/fhir/us/core/StructureDefinition/us-core-race","extension":[{"url":"ombCategory","valueCoding":{"system":"urn:oid:2.16.840.1.113883.6.238","code":"1002-5","display":"American Indian or Alaska Native"}},{"url":"text","valueString":"American Indian or Alaska Native"}]},{"url":"http://hl7.org/fhir/us/core/StructureDefinition/us-core-ethnicity","extension":[{"url":"ombCategory","valueCoding":{"system":"urn:oid:2.16.840.1.113883.6.238","code":"2186-5","display":"Not Hispanic or Latino"}},{"url":"text","valueString":"Not Hispanic or Latino"}]}],"identifier":[{"type":{"coding":[{"system":"http://terminology.hl7.org/CodeSystem/v2-0203","code":"MR"}]},"system":"https://bonnie-fhir.healthit.gov/","value":"7846135168496841685"}],"active":true,"name":[{"use":"usual","family":"NUMERPop2Pass","given":["BetaBlockerOrderEachEnc"]}],"gender":"male","birthDate":"1982-09-11"},"request":{"method":"PUT","url":"Patient/e64fd85a-d643-423d-9e3f-d4838e181aa9"}},{"fullUrl":"https://madie.cms.gov/Encounter/3254976513541684634","resource":{"resourceType":"Encounter","id":"b0112e15-d977-48f4-9504-6814a98b70b8","meta":{"profile":["http://hl7.org/fhir/us/qicore/StructureDefinition/qicore-encounter"]},"status":"finished","class":{"system":"http://terminology.hl7.org/CodeSystem/v3-ActCode","code":"AMB","display":"ambulatory encounter"},"type":[{"coding":[{"system":"http://snomed.info/sct","version":"http://snomed.info/sct/731000124108/version/20230901","code":"185463005"}]}],"subject":{"reference":"Patient/e64fd85a-d643-423d-9e3f-d4838e181aa9"},"period":{"start":"2025-08-16T16:00:00+00:00","end":"2025-08-16T17:00:00+00:00"}},"request":{"method":"PUT","url":"Encounter/b0112e15-d977-48f4-9504-6814a98b70b8"}},{"fullUrl":"https://madie.cms.gov/Encounter/6346846846351351","resource":{"resourceType":"Encounter","id":"25cdb5a8-a4ce-4d1c-95fe-73ede8d1674a","meta":{"profile":["http://hl7.org/fhir/us/qicore/StructureDefinition/qicore-encounter"]},"status":"finished","class":{"system":"http://terminology.hl7.org/CodeSystem/v3-ActCode","code":"AMB","display":"ambulatory encounter"},"type":[{"coding":[{"system":"http://www.ama-assn.org/go/cpt","version":"2024","code":"99205"}]}],"subject":{"reference":"Patient/e64fd85a-d643-423d-9e3f-d4838e181aa9"},"period":{"start":"2025-12-03T16:45:00.000+00:00","end":"2025-12-03T17:45:00.000+00:00"}},"request":{"method":"PUT","url":"Encounter/25cdb5a8-a4ce-4d1c-95fe-73ede8d1674a"}},{"fullUrl":"https://madie.cms.gov/Condition/5c954d9db848462de0ae6f9d","resource":{"resourceType":"Condition","id":"b9799a60-5af8-4f70-aeb2-76c6fe3ec25a","meta":{"profile":["http://hl7.org/fhir/us/qicore/StructureDefinition/qicore-condition"]},"clinicalStatus":{"coding":[{"system":"http://terminology.hl7.org/CodeSystem/condition-clinical","code":"active","display":"Active"}]},"verificationStatus":{"coding":[{"system":"http://terminology.hl7.org/CodeSystem/condition-ver-status","code":"confirmed","display":"Confirmed"}]},"category":[{"coding":[{"system":"http://terminology.hl7.org/CodeSystem/condition-category","code":"problem-list-item","display":"Problem List Item"}]}],"code":{"coding":[{"system":"http://hl7.org/fhir/sid/icd-10-cm","version":"2020","code":"I21.09"}]},"subject":{"reference":"Patient/e64fd85a-d643-423d-9e3f-d4838e181aa9"},"onsetPeriod":{"start":"2025-12-01T16:45:00+00:00","end":"2025-12-01T17:00:00+00:00"}},"request":{"method":"PUT","url":"Condition/b9799a60-5af8-4f70-aeb2-76c6fe3ec25a"}},{"fullUrl":"https://madie.cms.gov/MedicationRequest/5c954d9db848462de0ae6fa1","resource":{"resourceType":"MedicationRequest","id":"22330c67-1f70-4c77-8b19-932fbc2d766b","meta":{"profile":["http://hl7.org/fhir/us/qicore/StructureDefinition/qicore-medicationrequest"]},"status":"completed","intent":"order","medicationCodeableConcept":{"coding":[{"system":"http://www.nlm.nih.gov/research/umls/rxnorm","version":"04012024","code":"1234256","display":"4 ML labetalol hydrochloride 5 MG/ML Cartridge"}]},"subject":{"reference":"Patient/e64fd85a-d643-423d-9e3f-d4838e181aa9"},"authoredOn":"2025-08-16T16:00:00.000+00:00","requester":{"reference":"Practitioner/1351644115135131"},"dosageInstruction":[{"timing":{"repeat":{"boundsPeriod":{"start":"2025-08-16T16:00:00.000+00:00","end":"2025-12-02T16:00:00.000+00:00"}}}}]},"request":{"method":"PUT","url":"MedicationRequest/22330c67-1f70-4c77-8b19-932fbc2d766b"}},{"fullUrl":"https://madie.cms.gov/Practitioner/1351644115135131","resource":{"resourceType":"Practitioner","id":"99c01931-52a4-4b2b-8858-3d8e692fe77c","meta":{"profile":["http://hl7.org/fhir/us/qicore/StructureDefinition/qicore-practitioner"]},"identifier":[{"use":"temp","system":"urn:oid:2.16.840.1.113883.4.336","value":"Practitioner-23"}],"active":true,"name":[{"family":"Careful","given":["Adam"],"prefix":["Dr"]}],"address":[{"use":"home","line":["534 Erewhon St"],"city":"PleasantVille","state":"UT","postalCode":"84414"}],"qualification":[{"identifier":[{"system":"http://example.org/UniversityIdentifier","value":"12345"}],"code":{"coding":[{"system":"http://terminology.hl7.org/CodeSystem/v2-0360|2.7","code":"BS","display":"Bachelor of Science"}],"text":"Bachelor of Science"},"period":{"start":"1995"},"issuer":{"display":"Example University"}}]},"request":{"method":"PUT","url":"Practitioner/99c01931-52a4-4b2b-8858-3d8e692fe77c"}},{"fullUrl":"https://madie.cms.gov/MedicationRequest/5c954d9db848462de0ae6fa2","resource":{"resourceType":"MedicationRequest","id":"edc7ce07-bc45-4096-90c5-f7a9736f2315","meta":{"profile":["http://hl7.org/fhir/us/qicore/StructureDefinition/qicore-medicationrequest"]},"status":"active","intent":"order","medicationCodeableConcept":{"coding":[{"system":"http://www.nlm.nih.gov/research/umls/rxnorm","version":"04012024","code":"198007","display":"nadolol 40 MG Oral Tablet"}]},"subject":{"reference":"Patient/e64fd85a-d643-423d-9e3f-d4838e181aa9"},"authoredOn":"2025-12-03T16:45:00.000+00:00","requester":{"reference":"Practitioner/1351644115135131"},"dosageInstruction":[{"timing":{"repeat":{"boundsPeriod":{"start":"2025-12-03T16:45:00.000+00:00","end":"2026-04-04T16:45:00.000+00:00"}}}}]},"request":{"method":"PUT","url":"MedicationRequest/edc7ce07-bc45-4096-90c5-f7a9736f2315"}},{"fullUrl":"https://madie.cms.gov/Condition/135498494165131","resource":{"resourceType":"Condition","id":"0fc990c2-fb85-4f0d-8c35-805674855f4e","meta":{"profile":["http://hl7.org/fhir/us/qicore/StructureDefinition/qicore-condition"]},"clinicalStatus":{"coding":[{"system":"http://terminology.hl7.org/CodeSystem/condition-clinical","code":"active","display":"Active"}]},"verificationStatus":{"coding":[{"system":"http://terminology.hl7.org/CodeSystem/condition-ver-status","code":"confirmed","display":"Confirmed"}]},"category":[{"coding":[{"system":"http://terminology.hl7.org/CodeSystem/condition-category","code":"problem-list-item","display":"Problem List Item"}]}],"code":{"coding":[{"system":"http://snomed.info/sct","version":"http://snomed.info/sct/731000124108/version/20240301","code":"10365005","display":"Right main coronary artery thrombosis (disorder)"}]},"subject":{"reference":"Patient/e64fd85a-d643-423d-9e3f-d4838e181aa9"},"onsetPeriod":{"start":"2025-12-02T16:45:00.000+00:00"}},"request":{"method":"PUT","url":"Condition/0fc990c2-fb85-4f0d-8c35-805674855f4e"}},{"fullUrl":"https://madie.cms.gov/MeasureReport/0e40f81e-143c-4c0c-b85e-7d6f6b24a056","resource":{"resourceType":"MeasureReport","id":"0e40f81e-143c-4c0c-b85e-7d6f6b24a056","meta":{"profile":["http://hl7.org/fhir/us/cqfmeasures/StructureDefinition/test-case-cqfm"]},"contained":[{"resourceType":"Parameters","id":"8b543ff4-0f77-4708-975b-0be64a1795b3-parameters","parameter":[{"name":"subject","valueString":"e64fd85a-d643-423d-9e3f-d4838e181aa9"}]}],"extension":[{"url":"http://hl7.org/fhir/us/cqfmeasures/StructureDefinition/cqfm-inputParameters","valueReference":{"reference":"#8b543ff4-0f77-4708-975b-0be64a1795b3-parameters"}},{"url":"http://hl7.org/fhir/us/cqfmeasures/StructureDefinition/cqfm-testCaseDescription","valueMarkdown":"Pt > 18, has two qualifying ambulatory visits, a CAD Encounter, no history of moderate or severe LVSD, a prior MI and beta blocker therapy ordered during 2nd visit"}],"modifierExtension":[{"url":"http://hl7.org/fhir/us/cqfmeasures/StructureDefinition/cqfm-isTestCase","valueBoolean":true}],"status":"complete","type":"individual","measure":"https://madie.cms.gov/Measure/CADBetaBlockerTherapyPriorMIorLVSDFHIR","period":{"start":"2025-01-01","end":"2025-12-31"},"group":[{"population":[{"code":{"coding":[{"system":"http://terminology.hl7.org/CodeSystem/measure-population","code":"initial-population","display":"Initial Population"}]},"count":1},{"code":{"coding":[{"system":"http://terminology.hl7.org/CodeSystem/measure-population","code":"denominator","display":"Denominator"}]},"count":0},{"code":{"coding":[{"system":"http://terminology.hl7.org/CodeSystem/measure-population","code":"numerator","display":"Numerator"}]},"count":0},{"code":{"coding":[{"system":"http://terminology.hl7.org/CodeSystem/measure-population","code":"denominator-exception","display":"Denominator Exception"}]},"count":0}]},{"population":[{"code":{"coding":[{"system":"http://terminology.hl7.org/CodeSystem/measure-population","code":"initial-population","display":"Initial Population"}]},"count":1},{"code":{"coding":[{"system":"http://terminology.hl7.org/CodeSystem/measure-population","code":"denominator","display":"Denominator"}]},"count":1},{"code":{"coding":[{"system":"http://terminology.hl7.org/CodeSystem/measure-population","code":"numerator","display":"Numerator"}]},"count":1},{"code":{"coding":[{"system":"http://terminology.hl7.org/CodeSystem/measure-population","code":"denominator-exception","display":"Denominator Exception"}]},"count":0}]}]},"request":{"method":"PUT","url":"MeasureReport/0e40f81e-143c-4c0c-b85e-7d6f6b24a056"}}]}