{"resourceType":"Bundle","id":"tests-b472b9b5-419f-4e40-81c7-2086b4b3962d-bundle","type":"transaction","entry":[{"fullUrl":"https://madie.cms.gov/Patient/b472b9b5-419f-4e40-81c7-2086b4b3962d","resource":{"resourceType":"Patient","id":"b472b9b5-419f-4e40-81c7-2086b4b3962d","meta":{"profile":["http://hl7.org/fhir/us/qicore/StructureDefinition/qicore-patient"]},"extension":[{"url":"http://hl7.org/fhir/us/core/StructureDefinition/us-core-race","extension":[{"url":"ombCategory","valueCoding":{"system":"urn:oid:2.16.840.1.113883.6.238","code":"1002-5","display":"American Indian or Alaska Native"}},{"url":"text","valueString":"American Indian or Alaska Native"}]},{"url":"http://hl7.org/fhir/us/core/StructureDefinition/us-core-ethnicity","extension":[{"url":"ombCategory","valueCoding":{"system":"urn:oid:2.16.840.1.113883.6.238","code":"2186-5","display":"Not Hispanic or Latino"}},{"url":"text","valueString":"Not Hispanic or Latino"}]}],"identifier":[{"type":{"coding":[{"system":"http://terminology.hl7.org/CodeSystem/v2-0203","code":"MR"}]},"system":"https://bonnie-fhir.healthit.gov/","value":"62d99a52aa9f5c6ec34ff3c2"}],"active":true,"name":[{"use":"usual","family":"DENEXCEPPop1Fail","given":["AtrioBlockCardiacPacerPx"]}],"gender":"female","birthDate":"1982-06-28"},"request":{"method":"PUT","url":"Patient/b472b9b5-419f-4e40-81c7-2086b4b3962d"}},{"fullUrl":"https://madie.cms.gov/Encounter/5c954d9db848462de0ae6fff","resource":{"resourceType":"Encounter","id":"52d40ffa-9c67-4482-8286-b518a62274d3","meta":{"profile":["http://hl7.org/fhir/us/qicore/StructureDefinition/qicore-encounter"]},"status":"finished","class":{"system":"http://terminology.hl7.org/CodeSystem/v3-ActCode","code":"AMB","display":"ambulatory encounter"},"type":[{"coding":[{"system":"http://www.ama-assn.org/go/cpt","version":"2024","code":"99205"}]}],"subject":{"reference":"Patient/b472b9b5-419f-4e40-81c7-2086b4b3962d"},"period":{"start":"2025-01-23T11:00:00.000+00:00","end":"2025-01-23T11:15:00.000+00:00"}},"request":{"method":"PUT","url":"Encounter/52d40ffa-9c67-4482-8286-b518a62274d3"}},{"fullUrl":"https://madie.cms.gov/Encounter/5c954d9db848462de0ae7000","resource":{"resourceType":"Encounter","id":"afce073b-5f36-4dfb-979c-a7ebab34c52b","meta":{"profile":["http://hl7.org/fhir/us/qicore/StructureDefinition/qicore-encounter"]},"status":"finished","class":{"system":"http://terminology.hl7.org/CodeSystem/v3-ActCode","code":"AMB","display":"ambulatory encounter"},"type":[{"coding":[{"system":"http://snomed.info/sct","version":"http://snomed.info/sct/731000124108/version/20230901","code":"185320006","display":"Encounter by computer link (procedure)"}]}],"subject":{"reference":"Patient/b472b9b5-419f-4e40-81c7-2086b4b3962d"},"period":{"start":"2025-02-25T13:15:00+00:00","end":"2025-02-25T14:15:00+00:00"}},"request":{"method":"PUT","url":"Encounter/afce073b-5f36-4dfb-979c-a7ebab34c52b"}},{"fullUrl":"https://madie.cms.gov/Condition/5c954d9db848462de0ae6ffd","resource":{"resourceType":"Condition","id":"cd5b9b80-2972-4856-b4e4-f2d0e459bfba","meta":{"profile":["http://hl7.org/fhir/us/qicore/StructureDefinition/qicore-condition"]},"clinicalStatus":{"coding":[{"system":"http://terminology.hl7.org/CodeSystem/condition-clinical","code":"active","display":"Active"}]},"verificationStatus":{"coding":[{"system":"http://terminology.hl7.org/CodeSystem/condition-ver-status","code":"confirmed","display":"Confirmed"}]},"category":[{"coding":[{"system":"http://terminology.hl7.org/CodeSystem/condition-category","code":"problem-list-item","display":"Problem List Item"}]}],"code":{"coding":[{"system":"http://hl7.org/fhir/sid/icd-10-cm","version":"2024","code":"I44.1"}]},"subject":{"reference":"Patient/b472b9b5-419f-4e40-81c7-2086b4b3962d"},"onsetPeriod":{"start":"2025-01-24T15:00:00+00:00"}},"request":{"method":"PUT","url":"Condition/cd5b9b80-2972-4856-b4e4-f2d0e459bfba"}},{"fullUrl":"https://madie.cms.gov/Observation/5c954d9db848462de0ae7002","resource":{"resourceType":"Observation","id":"1d8da652-8c98-4202-831a-b749c120da0d","meta":{"profile":["http://hl7.org/fhir/StructureDefinition/heartrate"]},"status":"final","category":[{"coding":[{"system":"http://terminology.hl7.org/CodeSystem/observation-category","code":"vital-signs","display":"Vital Signs"}]}],"code":{"coding":[{"system":"http://loinc.org","version":"2.76","code":"8867-4"}]},"subject":{"reference":"Patient/b472b9b5-419f-4e40-81c7-2086b4b3962d"},"effectiveDateTime":"2025-02-25T13:15:00+00:00","valueQuantity":{"value":25,"unit":"/min","system":"http://unitsofmeasure.org","code":"/min"}},"request":{"method":"PUT","url":"Observation/1d8da652-8c98-4202-831a-b749c120da0d"}},{"fullUrl":"https://madie.cms.gov/Observation/5c954d9db848462de0ae7004","resource":{"resourceType":"Observation","id":"a47cc437-26bc-49e2-bb7d-cb6f5f7d11b7","meta":{"profile":["http://hl7.org/fhir/StructureDefinition/heartrate"]},"status":"final","category":[{"coding":[{"system":"http://terminology.hl7.org/CodeSystem/observation-category","code":"vital-signs","display":"Vital Signs"}]}],"code":{"coding":[{"system":"http://loinc.org","version":"2.76","code":"8867-4"}]},"subject":{"reference":"Patient/b472b9b5-419f-4e40-81c7-2086b4b3962d"},"effectiveDateTime":"2025-02-25T18:15:00+00:00","valueQuantity":{"value":20,"unit":"/min","system":"http://unitsofmeasure.org","code":"/min"}},"request":{"method":"PUT","url":"Observation/a47cc437-26bc-49e2-bb7d-cb6f5f7d11b7"}},{"fullUrl":"https://madie.cms.gov/Condition/7681316354663468","resource":{"resourceType":"Condition","id":"e99bad47-eb29-480e-91ef-71d657651d81","meta":{"profile":["http://hl7.org/fhir/us/qicore/StructureDefinition/qicore-condition"]},"clinicalStatus":{"coding":[{"system":"http://terminology.hl7.org/CodeSystem/condition-clinical","code":"active","display":"Active"}]},"verificationStatus":{"coding":[{"system":"http://terminology.hl7.org/CodeSystem/condition-ver-status","code":"confirmed","display":"Confirmed"}]},"category":[{"coding":[{"system":"http://terminology.hl7.org/CodeSystem/condition-category","code":"problem-list-item","display":"Problem List Item"}]}],"code":{"coding":[{"system":"http://snomed.info/sct","version":"http://snomed.info/sct/731000124108/version/20240301","code":"981000124106","display":"Moderate left ventricular systolic dysfunction (disorder)"}]},"subject":{"reference":"Patient/b472b9b5-419f-4e40-81c7-2086b4b3962d"},"onsetPeriod":{"start":"2025-01-05T17:00:00.000+00:00","end":"2025-02-02T17:00:00.000+00:00"}},"request":{"method":"PUT","url":"Condition/e99bad47-eb29-480e-91ef-71d657651d81"}},{"fullUrl":"https://madie.cms.gov/Condition/1687498465165131","resource":{"resourceType":"Condition","id":"706630af-fce3-4a59-8acb-313565730b16","meta":{"profile":["http://hl7.org/fhir/us/qicore/StructureDefinition/qicore-condition"]},"clinicalStatus":{"coding":[{"system":"http://terminology.hl7.org/CodeSystem/condition-clinical","code":"active","display":"Active"}]},"verificationStatus":{"coding":[{"system":"http://terminology.hl7.org/CodeSystem/condition-ver-status","code":"confirmed","display":"Confirmed"}]},"category":[{"coding":[{"system":"http://terminology.hl7.org/CodeSystem/condition-category","code":"problem-list-item","display":"Problem List Item"}]}],"code":{"coding":[{"system":"http://snomed.info/sct","version":"http://snomed.info/sct/731000124108/version/20240301","code":"10365005","display":"Right main coronary artery thrombosis (disorder)"}]},"subject":{"reference":"Patient/b472b9b5-419f-4e40-81c7-2086b4b3962d"},"onsetDateTime":"2025-01-23T11:00:00.000+00:00"},"request":{"method":"PUT","url":"Condition/706630af-fce3-4a59-8acb-313565730b16"}},{"fullUrl":"https://madie.cms.gov/Procedure/4684984635165161","resource":{"resourceType":"Procedure","id":"bf10f839-879c-444a-869a-8fc96e608ce8","meta":{"profile":["http://hl7.org/fhir/us/qicore/StructureDefinition/qicore-procedure"]},"extension":[{"url":"http://hl7.org/fhir/us/qicore/StructureDefinition/qicore-recorded","valueDateTime":"2025-01-22T08:00:00.000+00:00"}],"status":"completed","code":{"coding":[{"system":"http://snomed.info/sct","version":"http://snomed.info/sct/731000124108/version/20240301","code":"1231779006","display":"Implantation of leadless cardiac pacemaker (procedure)"}]},"subject":{"reference":"Patient/b472b9b5-419f-4e40-81c7-2086b4b3962d"},"performedPeriod":{"start":"2025-01-22T08:00:00.000+00:00","end":"2025-01-22T08:30:00.000+00:00"}},"request":{"method":"PUT","url":"Procedure/bf10f839-879c-444a-869a-8fc96e608ce8"}},{"fullUrl":"https://madie.cms.gov/MeasureReport/306147ae-e450-407e-9b4a-46bab9d85a55","resource":{"resourceType":"MeasureReport","id":"306147ae-e450-407e-9b4a-46bab9d85a55","meta":{"profile":["http://hl7.org/fhir/us/cqfmeasures/StructureDefinition/test-case-cqfm"]},"contained":[{"resourceType":"Parameters","id":"c3ec3d04-ac2f-4c45-a8b5-6b93dd60b8c9-parameters","parameter":[{"name":"subject","valueString":"b472b9b5-419f-4e40-81c7-2086b4b3962d"}]}],"extension":[{"url":"http://hl7.org/fhir/us/cqfmeasures/StructureDefinition/cqfm-inputParameters","valueReference":{"reference":"#c3ec3d04-ac2f-4c45-a8b5-6b93dd60b8c9-parameters"}},{"url":"http://hl7.org/fhir/us/cqfmeasures/StructureDefinition/cqfm-testCaseDescription","valueMarkdown":"Pt > 18, 2 visits in MP, AV block onset after 1st visit b4 2nd visit, pulse of 25 bpm during 2nd visit, a pulse of 20 bpm after 2nd visit, moderate LVSD onset b4 1st visit, CAD Dx onset during 2nd visit, and Cardiac Pacer Px during MP b4 1st visit"}],"modifierExtension":[{"url":"http://hl7.org/fhir/us/cqfmeasures/StructureDefinition/cqfm-isTestCase","valueBoolean":true}],"status":"complete","type":"individual","measure":"https://madie.cms.gov/Measure/CADBetaBlockerTherapyPriorMIorLVSDFHIR","period":{"start":"2025-01-01","end":"2025-12-31"},"group":[{"population":[{"code":{"coding":[{"system":"http://terminology.hl7.org/CodeSystem/measure-population","code":"initial-population","display":"Initial Population"}]},"count":1},{"code":{"coding":[{"system":"http://terminology.hl7.org/CodeSystem/measure-population","code":"denominator","display":"Denominator"}]},"count":1},{"code":{"coding":[{"system":"http://terminology.hl7.org/CodeSystem/measure-population","code":"numerator","display":"Numerator"}]},"count":0},{"code":{"coding":[{"system":"http://terminology.hl7.org/CodeSystem/measure-population","code":"denominator-exception","display":"Denominator Exception"}]},"count":0}]},{"population":[{"code":{"coding":[{"system":"http://terminology.hl7.org/CodeSystem/measure-population","code":"initial-population","display":"Initial Population"}]},"count":1},{"code":{"coding":[{"system":"http://terminology.hl7.org/CodeSystem/measure-population","code":"denominator","display":"Denominator"}]},"count":0},{"code":{"coding":[{"system":"http://terminology.hl7.org/CodeSystem/measure-population","code":"numerator","display":"Numerator"}]},"count":0},{"code":{"coding":[{"system":"http://terminology.hl7.org/CodeSystem/measure-population","code":"denominator-exception","display":"Denominator Exception"}]},"count":0}]}]},"request":{"method":"PUT","url":"MeasureReport/306147ae-e450-407e-9b4a-46bab9d85a55"}}]}