{"resourceType":"Bundle","id":"tests-6cf089cd-0c1a-4e4f-b8d9-11c0db757c4b-bundle","type":"transaction","entry":[{"fullUrl":"https://madie.cms.gov/Patient/6cf089cd-0c1a-4e4f-b8d9-11c0db757c4b","resource":{"resourceType":"Patient","id":"6cf089cd-0c1a-4e4f-b8d9-11c0db757c4b","meta":{"profile":["http://hl7.org/fhir/us/qicore/StructureDefinition/qicore-patient"]},"extension":[{"url":"http://hl7.org/fhir/us/core/StructureDefinition/us-core-race","extension":[{"url":"ombCategory","valueCoding":{"system":"urn:oid:2.16.840.1.113883.6.238","code":"1002-5","display":"American Indian or Alaska Native"}},{"url":"text","valueString":"American Indian or Alaska Native"}]},{"url":"http://hl7.org/fhir/us/core/StructureDefinition/us-core-ethnicity","extension":[{"url":"ombCategory","valueCoding":{"system":"urn:oid:2.16.840.1.113883.6.238","code":"2186-5","display":"Not Hispanic or Latino"}},{"url":"text","valueString":"Not Hispanic or Latino"}]}],"identifier":[{"type":{"coding":[{"system":"http://terminology.hl7.org/CodeSystem/v2-0203","code":"MR"}]},"system":"https://bonnie-fhir.healthit.gov/","value":"576545341346746345"}],"active":true,"name":[{"use":"usual","family":"DENEXCEPPop2Pass","given":["ConsecHeartRatesLT50"]}],"gender":"male","birthDate":"1957-05-30"},"request":{"method":"PUT","url":"Patient/6cf089cd-0c1a-4e4f-b8d9-11c0db757c4b"}},{"fullUrl":"https://madie.cms.gov/Encounter/63464343432452425","resource":{"resourceType":"Encounter","id":"ad9e8783-b385-4dc8-8df1-1f1489d2afb7","meta":{"profile":["http://hl7.org/fhir/us/qicore/StructureDefinition/qicore-encounter"]},"status":"finished","class":{"system":"http://terminology.hl7.org/CodeSystem/v3-ActCode","code":"AMB","display":"ambulatory encounter"},"type":[{"coding":[{"system":"http://snomed.info/sct","version":"http://snomed.info/sct/731000124108/version/20240301","code":"209099002","display":"History and physical examination with management of domiciliary or rest home patient (procedure)"}]}],"subject":{"reference":"Patient/6cf089cd-0c1a-4e4f-b8d9-11c0db757c4b"},"period":{"start":"2025-04-05T06:00:00+00:00","end":"2025-04-05T07:00:00+00:00"}},"request":{"method":"PUT","url":"Encounter/ad9e8783-b385-4dc8-8df1-1f1489d2afb7"}},{"fullUrl":"https://madie.cms.gov/Encounter/4945964321341324132","resource":{"resourceType":"Encounter","id":"9b48d020-b5e9-473c-be53-d5a7c57f3069","meta":{"profile":["http://hl7.org/fhir/us/qicore/StructureDefinition/qicore-encounter"]},"status":"finished","class":{"system":"http://terminology.hl7.org/CodeSystem/v3-ActCode","code":"AMB","display":"ambulatory encounter"},"type":[{"coding":[{"system":"http://snomed.info/sct","version":"http://snomed.info/sct/731000124108/version/20240301","code":"209099002","display":"History and physical examination with management of domiciliary or rest home patient (procedure)"}]}],"subject":{"reference":"Patient/6cf089cd-0c1a-4e4f-b8d9-11c0db757c4b"},"period":{"start":"2025-07-08T09:00:00+00:00","end":"2025-07-08T10:00:00+00:00"}},"request":{"method":"PUT","url":"Encounter/9b48d020-b5e9-473c-be53-d5a7c57f3069"}},{"fullUrl":"https://madie.cms.gov/Condition/5246546346563433465","resource":{"resourceType":"Condition","id":"64bc527e-a3eb-42d0-8cda-f41634b7351a","meta":{"profile":["http://hl7.org/fhir/us/qicore/StructureDefinition/qicore-condition"]},"clinicalStatus":{"coding":[{"system":"http://terminology.hl7.org/CodeSystem/condition-clinical","code":"active","display":"Active"}]},"verificationStatus":{"coding":[{"system":"http://terminology.hl7.org/CodeSystem/condition-ver-status","code":"confirmed","display":"Confirmed"}]},"category":[{"coding":[{"system":"http://terminology.hl7.org/CodeSystem/condition-category","code":"problem-list-item","display":"Problem List Item"}]}],"code":{"coding":[{"system":"http://hl7.org/fhir/sid/icd-10-cm","version":"2024","code":"I21.01"}]},"subject":{"reference":"Patient/6cf089cd-0c1a-4e4f-b8d9-11c0db757c4b"},"onsetPeriod":{"start":"2022-11-22T07:30:00+00:00","end":"2022-11-22T08:30:00+00:00"}},"request":{"method":"PUT","url":"Condition/64bc527e-a3eb-42d0-8cda-f41634b7351a"}},{"fullUrl":"https://madie.cms.gov/Condition/68953343434343413","resource":{"resourceType":"Condition","id":"7b1d023f-6f4b-4f3e-b95e-6a68a88ae737","meta":{"profile":["http://hl7.org/fhir/us/qicore/StructureDefinition/qicore-condition"]},"clinicalStatus":{"coding":[{"system":"http://terminology.hl7.org/CodeSystem/condition-clinical","code":"active","display":"Active"}]},"verificationStatus":{"coding":[{"system":"http://terminology.hl7.org/CodeSystem/condition-ver-status","code":"confirmed"}]},"category":[{"coding":[{"system":"http://terminology.hl7.org/CodeSystem/condition-category","code":"problem-list-item","display":"Problem List Item"}]}],"code":{"coding":[{"system":"http://snomed.info/sct","version":"http://snomed.info/sct/731000124108/version/20240301","code":"10365005","display":"Right main coronary artery thrombosis (disorder)"}]},"subject":{"reference":"Patient/6cf089cd-0c1a-4e4f-b8d9-11c0db757c4b"},"onsetPeriod":{"start":"2025-01-21T07:00:00.000+00:00"}},"request":{"method":"PUT","url":"Condition/7b1d023f-6f4b-4f3e-b95e-6a68a88ae737"}},{"fullUrl":"https://madie.cms.gov/Observation/3416634646465124546","resource":{"resourceType":"Observation","id":"d79057bd-1901-4df5-92bb-4ce67edab36c","meta":{"profile":["http://hl7.org/fhir/StructureDefinition/heartrate"]},"status":"final","category":[{"coding":[{"system":"http://terminology.hl7.org/CodeSystem/observation-category","code":"vital-signs","display":"Vital Signs"}]}],"code":{"coding":[{"system":"http://loinc.org","version":"2.76","code":"8867-4"}]},"subject":{"reference":"Patient/6cf089cd-0c1a-4e4f-b8d9-11c0db757c4b"},"effectiveDateTime":"2025-07-08T09:15:00+00:00","valueQuantity":{"value":40,"unit":"/min","system":"http://unitsofmeasure.org","code":"/min"}},"request":{"method":"PUT","url":"Observation/d79057bd-1901-4df5-92bb-4ce67edab36c"}},{"fullUrl":"https://madie.cms.gov/Observation/6345645312563463226","resource":{"resourceType":"Observation","id":"666f3a03-b46e-44ab-aafd-779042b189bd","meta":{"profile":["http://hl7.org/fhir/StructureDefinition/heartrate"]},"status":"final","category":[{"coding":[{"system":"http://terminology.hl7.org/CodeSystem/observation-category","code":"vital-signs","display":"Vital Signs"}]}],"code":{"coding":[{"system":"http://loinc.org","version":"2.76","code":"8867-4"}]},"subject":{"reference":"Patient/6cf089cd-0c1a-4e4f-b8d9-11c0db757c4b"},"effectiveDateTime":"2025-07-08T09:30:00+00:00","valueQuantity":{"value":45,"unit":"/min","system":"http://unitsofmeasure.org","code":"/min"}},"request":{"method":"PUT","url":"Observation/666f3a03-b46e-44ab-aafd-779042b189bd"}},{"fullUrl":"https://madie.cms.gov/MeasureReport/801c8548-4ac5-4f38-9c69-85a6267ed7d7","resource":{"resourceType":"MeasureReport","id":"801c8548-4ac5-4f38-9c69-85a6267ed7d7","meta":{"profile":["http://hl7.org/fhir/us/cqfmeasures/StructureDefinition/test-case-cqfm"]},"contained":[{"resourceType":"Parameters","id":"e0abed80-684f-47bf-8e37-93f36d519cce-parameters","parameter":[{"name":"subject","valueString":"6cf089cd-0c1a-4e4f-b8d9-11c0db757c4b"}]}],"extension":[{"url":"http://hl7.org/fhir/us/cqfmeasures/StructureDefinition/cqfm-inputParameters","valueReference":{"reference":"#e0abed80-684f-47bf-8e37-93f36d519cce-parameters"}},{"url":"http://hl7.org/fhir/us/cqfmeasures/StructureDefinition/cqfm-testCaseDescription","valueMarkdown":"Pt > 18, 2 visits in MP, MI onset > 2 yrs b4 MP, CAD onset during MP b4 1st visit, and 2 consecutive heart rate readings on day of last visit < 50"}],"modifierExtension":[{"url":"http://hl7.org/fhir/us/cqfmeasures/StructureDefinition/cqfm-isTestCase","valueBoolean":true}],"status":"complete","type":"individual","measure":"https://madie.cms.gov/Measure/CADBetaBlockerTherapyPriorMIorLVSDFHIR","period":{"start":"2025-01-01","end":"2025-12-31"},"group":[{"population":[{"code":{"coding":[{"system":"http://terminology.hl7.org/CodeSystem/measure-population","code":"initial-population","display":"Initial Population"}]},"count":1},{"code":{"coding":[{"system":"http://terminology.hl7.org/CodeSystem/measure-population","code":"denominator","display":"Denominator"}]},"count":0},{"code":{"coding":[{"system":"http://terminology.hl7.org/CodeSystem/measure-population","code":"numerator","display":"Numerator"}]},"count":0},{"code":{"coding":[{"system":"http://terminology.hl7.org/CodeSystem/measure-population","code":"denominator-exception","display":"Denominator Exception"}]},"count":0}]},{"population":[{"code":{"coding":[{"system":"http://terminology.hl7.org/CodeSystem/measure-population","code":"initial-population","display":"Initial Population"}]},"count":1},{"code":{"coding":[{"system":"http://terminology.hl7.org/CodeSystem/measure-population","code":"denominator","display":"Denominator"}]},"count":1},{"code":{"coding":[{"system":"http://terminology.hl7.org/CodeSystem/measure-population","code":"numerator","display":"Numerator"}]},"count":0},{"code":{"coding":[{"system":"http://terminology.hl7.org/CodeSystem/measure-population","code":"denominator-exception","display":"Denominator Exception"}]},"count":1}]}]},"request":{"method":"PUT","url":"MeasureReport/801c8548-4ac5-4f38-9c69-85a6267ed7d7"}}]}