{"resourceType":"Bundle","id":"tests-39baa108-b124-4300-b71c-dc21cc509d64-bundle","type":"transaction","entry":[{"fullUrl":"https://madie.cms.gov/Patient/39baa108-b124-4300-b71c-dc21cc509d64","resource":{"resourceType":"Patient","id":"39baa108-b124-4300-b71c-dc21cc509d64","meta":{"profile":["http://hl7.org/fhir/us/qicore/StructureDefinition/qicore-patient"]},"text":{"status":"generated","div":"<div xmlns=\"http://www.w3.org/1999/xhtml\"><div class=\"hapiHeaderText\">DAGCSDayAfterAnes<b>NUMERPASS </b></div><table class=\"hapiPropertyTable\"><tbody><tr><td>Identifier</td><td>af7fb96c408ff8f32d85ce64a563f18b</td></tr><tr><td>Date of birth</td><td><span>02 January 1974</span></td></tr></tbody></table></div>"},"extension":[{"url":"http://hl7.org/fhir/us/core/StructureDefinition/us-core-race","extension":[{"url":"ombCategory","valueCoding":{"system":"urn:oid:2.16.840.1.113883.6.238","code":"1002-5","display":"American Indian or Alaska Native","userSelected":true}},{"url":"text","valueString":"American Indian or Alaska Native"}]},{"url":"http://hl7.org/fhir/us/core/StructureDefinition/us-core-ethnicity","extension":[{"url":"ombCategory","valueCoding":{"system":"urn:oid:2.16.840.1.113883.6.238","code":"2135-2","display":"Hispanic or Latino","userSelected":true}},{"url":"text","valueString":"Hispanic or Latino"}]}],"identifier":[{"type":{"coding":[{"system":"http://terminology.hl7.org/CodeSystem/v2-0203","code":"MR"}]},"system":"https://bonnie-fhir.healthit.gov/","value":"612e6a9002c62a011f2ea5f9"}],"active":true,"name":[{"use":"usual","family":"NUMERPass","given":["DAGCSDayAfterAnes"]}],"gender":"male","birthDate":"1974-01-02"},"request":{"method":"PUT","url":"Patient/39baa108-b124-4300-b71c-dc21cc509d64"}},{"fullUrl":"https://madie.cms.gov/Encounter/5ca6295fb8484628b8de1dcf","resource":{"resourceType":"Encounter","id":"e23d264d-a730-49de-a4ba-5d5db15f9aeb","meta":{"profile":["http://hl7.org/fhir/us/qicore/StructureDefinition/qicore-encounter"]},"status":"finished","class":{"system":"http://terminology.hl7.org/CodeSystem/v3-ActCode","code":"IMP","display":"inpatient encounter"},"type":[{"coding":[{"system":"http://snomed.info/sct","code":"8715000"}]}],"subject":{"reference":"Patient/39baa108-b124-4300-b71c-dc21cc509d64"},"period":{"start":"2025-11-01T08:00:00+00:00","end":"2025-11-26T08:15:00+00:00"},"length":{"value":25.0,"unit":"days"},"location":[{"location":{"reference":"Location/Location-1"},"period":{"start":"2025-11-03T08:15:00.000+00:00","end":"2025-11-06T08:00:00.000+00:00"}}]},"request":{"method":"PUT","url":"Encounter/e23d264d-a730-49de-a4ba-5d5db15f9aeb"}},{"fullUrl":"https://madie.cms.gov/Coverage/5fa041501c76ba66d99591ed","resource":{"resourceType":"Coverage","id":"3c22136b-2367-46c9-ab73-c46e8b6bd19a","status":"active","beneficiary":{"reference":"Patient/39baa108-b124-4300-b71c-dc21cc509d64"},"period":{"start":"1974-01-02T08:00:00+00:00"},"payor":[{"reference":"Organization/26111c91-b0e2-476c-a20b-e3f39799f8f5"}]},"request":{"method":"PUT","url":"Coverage/3c22136b-2367-46c9-ab73-c46e8b6bd19a"}},{"fullUrl":"https://madie.cms.gov/Procedure/5ca6295fb8484628b8de1dd1","resource":{"resourceType":"Procedure","id":"44a4b6a8-c44c-4383-95ec-f2d1bb26647c","meta":{"profile":["http://hl7.org/fhir/us/qicore/StructureDefinition/qicore-procedure"]},"extension":[{"url":"http://hl7.org/fhir/us/qicore/StructureDefinition/qicore-recorded","valueDateTime":"2012-11-19T09:35:00-04:00"}],"status":"completed","code":{"coding":[{"system":"http://snomed.info/sct","code":"18946005"}]},"subject":{"reference":"Patient/39baa108-b124-4300-b71c-dc21cc509d64"},"performedPeriod":{"start":"2025-11-03T09:00:00+00:00","end":"2025-11-03T19:15:00+00:00"}},"request":{"method":"PUT","url":"Procedure/44a4b6a8-c44c-4383-95ec-f2d1bb26647c"}},{"fullUrl":"https://madie.cms.gov/Procedure/device-application-f808","resource":{"resourceType":"Procedure","id":"5d162f29-e520-451c-8557-52710d1fa165","meta":{"profile":["http://hl7.org/fhir/us/qicore/StructureDefinition/qicore-procedure"]},"extension":[{"url":"http://hl7.org/fhir/us/qicore/StructureDefinition/qicore-recorded","valueDateTime":"2012-11-01T09:35:00-04:00"}],"status":"completed","code":{"coding":[{"system":"http://snomed.info/sct","code":"442410008","display":"Application of venous foot pump (procedure)"}]},"subject":{"reference":"Patient/39baa108-b124-4300-b71c-dc21cc509d64"},"performedDateTime":"2025-11-04T07:00:00.000+00:00","usedCode":[{"coding":[{"system":"http://snomed.info/sct","code":"229511001","display":"Application of graduated compression garment (procedure)","userSelected":true}]}]},"request":{"method":"PUT","url":"Procedure/5d162f29-e520-451c-8557-52710d1fa165"}},{"fullUrl":"https://madie.cms.gov/Organization/123456","resource":{"resourceType":"Organization","id":"26111c91-b0e2-476c-a20b-e3f39799f8f5","meta":{"profile":["http://hl7.org/fhir/us/qicore/StructureDefinition/qicore-organization"]},"identifier":[{"use":"temp","system":"urn:oid:2.16.840.1.113883.4.4","value":"21-3259825"}],"active":true,"type":[{"coding":[{"system":"http://terminology.hl7.org/CodeSystem/organization-type","code":"pay","display":"Payer"}]}],"name":"Blue Cross Blue Shield of Texas","telecom":[{"system":"phone","value":"(+1) 972-766-6900"}],"address":[{"use":"billing","type":"postal","line":["P.O. Box 660044"],"city":"Dallas","state":"TX","postalCode":"75266-0044","country":"USA"}]},"request":{"method":"PUT","url":"Organization/26111c91-b0e2-476c-a20b-e3f39799f8f5"}},{"fullUrl":"https://madie.cms.gov/Practitioner/practitioner-123456","resource":{"resourceType":"Practitioner","id":"0a706aaf-b0aa-4e19-aa29-e2c6c135bb65","identifier":[{"system":"http://hl7.org/fhir/sid/us-npi","value":"123456"}],"name":[{"family":"Evil","prefix":["Dr"]}]},"request":{"method":"PUT","url":"Practitioner/0a706aaf-b0aa-4e19-aa29-e2c6c135bb65"}},{"fullUrl":"https://madie.cms.gov/Location/Location-1","resource":{"resourceType":"Location","id":"96368fab-d701-451a-85c1-56df800f344a","meta":{"profile":["http://hl7.org/fhir/us/qicore/StructureDefinition/qicore-location"]},"identifier":[{"use":"usual","system":"http://exampleoflocation.com","value":"B1-S.F2"}],"name":"Medical Surgical East, first floor","type":[{"coding":[{"system":"https://www.cdc.gov/nhsn/cdaportal/terminology/codesystem/hsloc.html","code":"1025-6","display":"Trauma Critical Care","userSelected":true}]}]},"request":{"method":"PUT","url":"Location/96368fab-d701-451a-85c1-56df800f344a"}},{"fullUrl":"https://madie.cms.gov/MeasureReport/102ef1ae-97e6-452b-8697-482d24cee4be","resource":{"resourceType":"MeasureReport","id":"102ef1ae-97e6-452b-8697-482d24cee4be","meta":{"profile":["http://hl7.org/fhir/us/cqfmeasures/StructureDefinition/test-case-cqfm"]},"contained":[{"resourceType":"Parameters","id":"27643ba9-6ef3-4c99-8c15-e2b945597ee3-parameters","parameter":[{"name":"subject","valueString":"39baa108-b124-4300-b71c-dc21cc509d64"}]}],"extension":[{"url":"http://hl7.org/fhir/us/cqfmeasures/StructureDefinition/cqfm-inputParameters","valueReference":{"reference":"#27643ba9-6ef3-4c99-8c15-e2b945597ee3-parameters"}},{"url":"http://hl7.org/fhir/us/cqfmeasures/StructureDefinition/cqfm-testCaseDescription","valueMarkdown":"Device GCS applied on 1 Day After Anesthesia sug "}],"modifierExtension":[{"url":"http://hl7.org/fhir/us/cqfmeasures/StructureDefinition/cqfm-isTestCase","valueBoolean":true}],"status":"complete","type":"individual","measure":"https://madie.cms.gov/Measure/IntensiveCareUnitVenousThromboembolismProphylaxisFHIR","period":{"start":"2025-01-01","end":"2025-12-31"},"group":[{"population":[{"code":{"coding":[{"system":"http://terminology.hl7.org/CodeSystem/measure-population","code":"initial-population","display":"Initial Population"}]},"count":1},{"code":{"coding":[{"system":"http://terminology.hl7.org/CodeSystem/measure-population","code":"denominator","display":"Denominator"}]},"count":1},{"code":{"coding":[{"system":"http://terminology.hl7.org/CodeSystem/measure-population","code":"denominator-exclusion","display":"Denominator Exclusion"}]},"count":0},{"code":{"coding":[{"system":"http://terminology.hl7.org/CodeSystem/measure-population","code":"numerator","display":"Numerator"}]},"count":1},{"code":{"coding":[{"system":"http://terminology.hl7.org/CodeSystem/measure-population","code":"denominator-exception","display":"Denominator Exception"}]},"count":0}]}]},"request":{"method":"PUT","url":"MeasureReport/102ef1ae-97e6-452b-8697-482d24cee4be"}}]}