{"resourceType":"Bundle","id":"tests-6eba9c05-05eb-4337-811b-f5303159919f-bundle","type":"transaction","entry":[{"fullUrl":"https://madie.cms.gov/Patient/6eba9c05-05eb-4337-811b-f5303159919f","resource":{"resourceType":"Patient","id":"6eba9c05-05eb-4337-811b-f5303159919f","meta":{"profile":["http://hl7.org/fhir/us/qicore/StructureDefinition/qicore-patient"]},"text":{"status":"generated","div":"<div xmlns=\"http://www.w3.org/1999/xhtml\"><div class=\"hapiHeaderText\">ComfortMeasuresOnICUAfterAnes <b>DENEXPASS </b></div><table class=\"hapiPropertyTable\"><tbody><tr><td>Identifier</td><td>41ae90b5ce0802ca16fefff2109852a5</td></tr><tr><td>Date of birth</td><td><span>23 July 1947</span></td></tr></tbody></table></div>"},"extension":[{"url":"http://hl7.org/fhir/us/core/StructureDefinition/us-core-race","extension":[{"url":"ombCategory","valueCoding":{"system":"urn:oid:2.16.840.1.113883.6.238","code":"1002-5","display":"American Indian or Alaska Native","userSelected":true}},{"url":"text","valueString":"American Indian or Alaska Native"}]},{"url":"http://hl7.org/fhir/us/core/StructureDefinition/us-core-ethnicity","extension":[{"url":"ombCategory","valueCoding":{"system":"urn:oid:2.16.840.1.113883.6.238","code":"2135-2","display":"Hispanic or Latino","userSelected":true}},{"url":"text","valueString":"Hispanic or Latino"}]}],"identifier":[{"type":{"coding":[{"system":"http://terminology.hl7.org/CodeSystem/v2-0203","code":"MR"}]},"system":"https://bonnie-fhir.healthit.gov/","value":"612e6e7e02c62a011f2ee96c"}],"active":true,"name":[{"use":"usual","family":"DENEXPass","given":["ComfortMeasuresOnICUAfterAnes"]}],"gender":"female","birthDate":"1947-07-23"},"request":{"method":"PUT","url":"Patient/6eba9c05-05eb-4337-811b-f5303159919f"}},{"fullUrl":"https://madie.cms.gov/Encounter/5ce80970b848467c29eaf27e","resource":{"resourceType":"Encounter","id":"9dd878a2-3fd7-42cf-82c7-05b8646c07cd","meta":{"profile":["http://hl7.org/fhir/us/qicore/StructureDefinition/qicore-encounter"]},"status":"finished","class":{"system":"http://terminology.hl7.org/CodeSystem/v3-ActCode","code":"IMP","display":"inpatient encounter"},"type":[{"coding":[{"system":"http://snomed.info/sct","code":"8715000"}]}],"subject":{"reference":"Patient/6eba9c05-05eb-4337-811b-f5303159919f"},"period":{"start":"2025-12-04T08:00:00+00:00","end":"2025-12-30T08:15:00+00:00"},"length":{"value":26.0,"unit":"days"},"location":[{"location":{"reference":"Location/Location-1"},"period":{"start":"2025-12-06T08:00:00.000+00:00","end":"2025-12-12T08:12:00.000+00:00"}}]},"request":{"method":"PUT","url":"Encounter/9dd878a2-3fd7-42cf-82c7-05b8646c07cd"}},{"fullUrl":"https://madie.cms.gov/ServiceRequest/5ce80970b848467c29eaf280","resource":{"resourceType":"ServiceRequest","id":"bd555e6b-8aa4-4ede-954f-2dc20a5545f3","meta":{"profile":["http://hl7.org/fhir/us/qicore/StructureDefinition/qicore-servicerequest"]},"status":"completed","intent":"order","code":{"coding":[{"system":"http://snomed.info/sct","code":"133918004"}]},"subject":{"reference":"Patient/6eba9c05-05eb-4337-811b-f5303159919f"},"authoredOn":"2025-12-06T11:30:00+00:00"},"request":{"method":"PUT","url":"ServiceRequest/bd555e6b-8aa4-4ede-954f-2dc20a5545f3"}},{"fullUrl":"https://madie.cms.gov/Coverage/5fa040ec1c76ba66d9958f01","resource":{"resourceType":"Coverage","id":"53851d3c-7257-4a10-a052-6bd38c7edb65","status":"active","beneficiary":{"reference":"Patient/6eba9c05-05eb-4337-811b-f5303159919f"},"period":{"start":"1974-03-03T08:00:00+00:00"},"payor":[{"reference":"Organization/26111c91-b0e2-476c-a20b-e3f39799f8f5"}]},"request":{"method":"PUT","url":"Coverage/53851d3c-7257-4a10-a052-6bd38c7edb65"}},{"fullUrl":"https://madie.cms.gov/Procedure/5ce80970b848467c29eaf27f","resource":{"resourceType":"Procedure","id":"37333dd0-3e25-46eb-b438-444f03a6111d","meta":{"profile":["http://hl7.org/fhir/us/qicore/StructureDefinition/qicore-procedure"]},"extension":[{"url":"http://hl7.org/fhir/us/qicore/StructureDefinition/qicore-recorded","valueDateTime":"2012-12-04T09:35:00-04:00"}],"status":"completed","code":{"coding":[{"system":"http://www.cms.gov/Medicare/Coding/ICD10","code":"3E030FZ"}]},"subject":{"reference":"Patient/6eba9c05-05eb-4337-811b-f5303159919f"},"performedPeriod":{"start":"2025-12-04T11:00:00+00:00","end":"2025-12-06T11:15:00+00:00"}},"request":{"method":"PUT","url":"Procedure/37333dd0-3e25-46eb-b438-444f03a6111d"}},{"fullUrl":"https://madie.cms.gov/Location/Location-1","resource":{"resourceType":"Location","id":"49c789ae-51e1-4e20-bb8c-d9ec49e43bbe","meta":{"profile":["http://hl7.org/fhir/us/qicore/StructureDefinition/qicore-location"]},"identifier":[{"use":"usual","system":"http://exampleoflocation.com","value":"B1-S.F2"}],"name":"Medical Surgical East, first floor","type":[{"coding":[{"system":"https://www.cdc.gov/nhsn/cdaportal/terminology/codesystem/hsloc.html","code":"1025-6","display":"Trauma Critical Care","userSelected":true}]}]},"request":{"method":"PUT","url":"Location/49c789ae-51e1-4e20-bb8c-d9ec49e43bbe"}},{"fullUrl":"https://madie.cms.gov/Organization/123456","resource":{"resourceType":"Organization","id":"26111c91-b0e2-476c-a20b-e3f39799f8f5","meta":{"profile":["http://hl7.org/fhir/us/qicore/StructureDefinition/qicore-organization"]},"identifier":[{"use":"temp","system":"urn:oid:2.16.840.1.113883.4.4","value":"21-3259825"}],"active":true,"type":[{"coding":[{"system":"http://terminology.hl7.org/CodeSystem/organization-type","code":"pay","display":"Payer"}]}],"name":"Blue Cross Blue Shield of Texas","telecom":[{"system":"phone","value":"(+1) 972-766-6900"}],"address":[{"use":"billing","type":"postal","line":["P.O. Box 660044"],"city":"Dallas","state":"TX","postalCode":"75266-0044","country":"USA"}]},"request":{"method":"PUT","url":"Organization/26111c91-b0e2-476c-a20b-e3f39799f8f5"}},{"fullUrl":"https://madie.cms.gov/Practitioner/practitioner-123456","resource":{"resourceType":"Practitioner","id":"4d62be08-d5e0-4598-8635-3f36c98a2ae9","identifier":[{"system":"http://hl7.org/fhir/sid/us-npi","value":"123456"}],"name":[{"family":"Evil","prefix":["Dr"]}]},"request":{"method":"PUT","url":"Practitioner/4d62be08-d5e0-4598-8635-3f36c98a2ae9"}},{"fullUrl":"https://madie.cms.gov/MeasureReport/ab936c1c-ea16-4b28-a3d6-4cc234caf4e5","resource":{"resourceType":"MeasureReport","id":"ab936c1c-ea16-4b28-a3d6-4cc234caf4e5","meta":{"profile":["http://hl7.org/fhir/us/cqfmeasures/StructureDefinition/test-case-cqfm"]},"contained":[{"resourceType":"Parameters","id":"56a4e4bb-7d01-49ab-84e5-38205f2c5b0e-parameters","parameter":[{"name":"subject","valueString":"6eba9c05-05eb-4337-811b-f5303159919f"}]}],"extension":[{"url":"http://hl7.org/fhir/us/cqfmeasures/StructureDefinition/cqfm-inputParameters","valueReference":{"reference":"#56a4e4bb-7d01-49ab-84e5-38205f2c5b0e-parameters"}},{"url":"http://hl7.org/fhir/us/cqfmeasures/StructureDefinition/cqfm-testCaseDescription","valueMarkdown":"comfort measures starts after end of neuraxial anesthesia and in ICU\n"}],"modifierExtension":[{"url":"http://hl7.org/fhir/us/cqfmeasures/StructureDefinition/cqfm-isTestCase","valueBoolean":true}],"status":"complete","type":"individual","measure":"https://madie.cms.gov/Measure/IntensiveCareUnitVenousThromboembolismProphylaxisFHIR","period":{"start":"2025-01-01","end":"2025-12-31"},"group":[{"population":[{"code":{"coding":[{"system":"http://terminology.hl7.org/CodeSystem/measure-population","code":"initial-population","display":"Initial Population"}]},"count":1},{"code":{"coding":[{"system":"http://terminology.hl7.org/CodeSystem/measure-population","code":"denominator","display":"Denominator"}]},"count":1},{"code":{"coding":[{"system":"http://terminology.hl7.org/CodeSystem/measure-population","code":"denominator-exclusion","display":"Denominator Exclusion"}]},"count":1},{"code":{"coding":[{"system":"http://terminology.hl7.org/CodeSystem/measure-population","code":"numerator","display":"Numerator"}]},"count":0},{"code":{"coding":[{"system":"http://terminology.hl7.org/CodeSystem/measure-population","code":"denominator-exception","display":"Denominator Exception"}]},"count":0}]}]},"request":{"method":"PUT","url":"MeasureReport/ab936c1c-ea16-4b28-a3d6-4cc234caf4e5"}}]}