{"resourceType":"Bundle","id":"tests-4c32b73b-abba-431b-a352-f0f454e7c9dd-bundle","type":"transaction","entry":[{"fullUrl":"https://madie.cms.gov/Patient/4c32b73b-abba-431b-a352-f0f454e7c9dd","resource":{"resourceType":"Patient","id":"4c32b73b-abba-431b-a352-f0f454e7c9dd","meta":{"profile":["http://hl7.org/fhir/us/qicore/StructureDefinition/qicore-patient"]},"text":{"status":"generated","div":"<div xmlns=\"http://www.w3.org/1999/xhtml\"><div class=\"hapiHeaderText\">PtRefDAIPCDuringOBS <b>NUMERPASS </b></div><table class=\"hapiPropertyTable\"><tbody><tr><td>Identifier</td><td>5f7ad5e9fc357bf072546722e2c19e60</td></tr><tr><td>Date of birth</td><td><span>02 January 1974</span></td></tr></tbody></table></div>"},"extension":[{"url":"http://hl7.org/fhir/us/core/StructureDefinition/us-core-race","extension":[{"url":"ombCategory","valueCoding":{"system":"urn:oid:2.16.840.1.113883.6.238","code":"1002-5","display":"American Indian or Alaska Native","userSelected":true}},{"url":"text","valueString":"American Indian or Alaska Native"}]},{"url":"http://hl7.org/fhir/us/core/StructureDefinition/us-core-ethnicity","extension":[{"url":"ombCategory","valueCoding":{"system":"urn:oid:2.16.840.1.113883.6.238","code":"2135-2","display":"Hispanic or Latino","userSelected":true}},{"url":"text","valueString":"Hispanic or Latino"}]}],"identifier":[{"type":{"coding":[{"system":"http://terminology.hl7.org/CodeSystem/v2-0203","code":"MR"}]},"system":"https://bonnie-fhir.healthit.gov/","value":"612e6ab302c62a011f2eafaf"}],"active":true,"name":[{"use":"usual","family":"NUMERPass","given":["PtRefDAIPCDuringOBS"]}],"gender":"male","birthDate":"1974-01-02"},"request":{"method":"PUT","url":"Patient/4c32b73b-abba-431b-a352-f0f454e7c9dd"}},{"fullUrl":"https://madie.cms.gov/Encounter/5ca62960b8484628b8de1e50","resource":{"resourceType":"Encounter","id":"686cf4c1-6355-4f77-aec6-b7ebe9a175bf","meta":{"profile":["http://hl7.org/fhir/us/qicore/StructureDefinition/qicore-encounter"]},"status":"finished","class":{"system":"http://terminology.hl7.org/CodeSystem/v3-ActCode","code":"OBSENC","display":"observation encounter"},"type":[{"coding":[{"system":"http://snomed.info/sct","code":"448951000124107"}]}],"subject":{"reference":"Patient/4c32b73b-abba-431b-a352-f0f454e7c9dd"},"period":{"start":"2025-10-31T05:00:00+00:00","end":"2025-11-01T07:15:00+00:00"},"length":{"value":1,"unit":"days"}},"request":{"method":"PUT","url":"Encounter/686cf4c1-6355-4f77-aec6-b7ebe9a175bf"}},{"fullUrl":"https://madie.cms.gov/Encounter/5ca62960b8484628b8de1e51","resource":{"resourceType":"Encounter","id":"e29287c5-f083-4fa2-ba21-4ed12dd306f2","meta":{"profile":["http://hl7.org/fhir/us/qicore/StructureDefinition/qicore-encounter"]},"status":"finished","class":{"system":"http://terminology.hl7.org/CodeSystem/v3-ActCode","code":"IMP","display":"inpatient encounter"},"type":[{"coding":[{"system":"http://snomed.info/sct","code":"8715000"}]}],"subject":{"reference":"Patient/4c32b73b-abba-431b-a352-f0f454e7c9dd"},"period":{"start":"2025-11-01T08:00:00+00:00","end":"2025-11-26T08:15:00+00:00"},"length":{"value":25,"unit":"days"},"location":[{"location":{"reference":"Location/Location-1"},"period":{"start":"2025-11-01T09:00:00.000+00:00","end":"2025-11-02T08:15:00.000+00:00"}}]},"request":{"method":"PUT","url":"Encounter/e29287c5-f083-4fa2-ba21-4ed12dd306f2"}},{"fullUrl":"https://madie.cms.gov/Coverage/5fa041561c76ba66d9959259","resource":{"resourceType":"Coverage","id":"cadf5fb2-8302-4b8b-bd33-05631fdbecee","status":"active","beneficiary":{"reference":"Patient/4c32b73b-abba-431b-a352-f0f454e7c9dd"},"period":{"start":"1974-01-02T08:00:00+00:00"},"payor":[{"reference":"Organization/26111c91-b0e2-476c-a20b-e3f39799f8f5"}]},"request":{"method":"PUT","url":"Coverage/cadf5fb2-8302-4b8b-bd33-05631fdbecee"}},{"fullUrl":"https://madie.cms.gov/Procedure/device-application-2c38","resource":{"resourceType":"Procedure","id":"f52be9ab-ab20-4c09-a54f-324da4f7c187","meta":{"profile":["http://hl7.org/fhir/us/qicore/StructureDefinition/qicore-procedurenotdone"]},"extension":[{"url":"http://hl7.org/fhir/us/qicore/StructureDefinition/qicore-recorded","valueDateTime":"2025-10-31T17:00:00+00:00"}],"status":"not-done","statusReason":{"coding":[{"system":"http://snomed.info/sct","code":"443390004","display":"Refusal of treatment by patient (situation)","userSelected":true}]},"code":{"coding":[{"system":"http://snomed.info/sct","version":"2025-03","code":"443448006","display":"Application of intermittent pneumatic compression device (procedure)","userSelected":true}]},"subject":{"reference":"Patient/4c32b73b-abba-431b-a352-f0f454e7c9dd"},"_performedDateTime":{"extension":[{"url":"http://hl7.org/fhir/StructureDefinition/data-absent-reason","valueCode":"not-performed"}]}},"request":{"method":"PUT","url":"Procedure/f52be9ab-ab20-4c09-a54f-324da4f7c187"}},{"fullUrl":"https://madie.cms.gov/Location/Location-1","resource":{"resourceType":"Location","id":"865bf237-537b-462c-8fa2-93f5efeb3fcf","meta":{"profile":["http://hl7.org/fhir/us/qicore/StructureDefinition/qicore-location"]},"identifier":[{"use":"usual","system":"http://exampleoflocation.com","value":"B1-S.F2"}],"name":"Medical Surgical East, first floor","type":[{"coding":[{"system":"https://www.cdc.gov/nhsn/cdaportal/terminology/codesystem/hsloc.html","code":"1025-6","display":"Trauma Critical Care","userSelected":true}]}]},"request":{"method":"PUT","url":"Location/865bf237-537b-462c-8fa2-93f5efeb3fcf"}},{"fullUrl":"https://madie.cms.gov/Organization/123456","resource":{"resourceType":"Organization","id":"26111c91-b0e2-476c-a20b-e3f39799f8f5","meta":{"profile":["http://hl7.org/fhir/us/qicore/StructureDefinition/qicore-organization"]},"identifier":[{"use":"temp","system":"urn:oid:2.16.840.1.113883.4.4","value":"21-3259825"}],"active":true,"type":[{"coding":[{"system":"http://terminology.hl7.org/CodeSystem/organization-type","code":"pay","display":"Payer"}]}],"name":"Blue Cross Blue Shield of Texas","telecom":[{"system":"phone","value":"(+1) 972-766-6900"}],"address":[{"use":"billing","type":"postal","line":["P.O. Box 660044"],"city":"Dallas","state":"TX","postalCode":"75266-0044","country":"USA"}]},"request":{"method":"PUT","url":"Organization/26111c91-b0e2-476c-a20b-e3f39799f8f5"}},{"fullUrl":"https://madie.cms.gov/Practitioner/practitioner-123456","resource":{"resourceType":"Practitioner","id":"95191e30-76ba-45d8-9299-8ed636d98953","identifier":[{"system":"http://hl7.org/fhir/sid/us-npi","value":"123456"}],"name":[{"family":"Evil","prefix":["Dr"]}]},"request":{"method":"PUT","url":"Practitioner/95191e30-76ba-45d8-9299-8ed636d98953"}},{"fullUrl":"https://madie.cms.gov/MeasureReport/470eca06-5759-4249-a7b9-e18ff4b3be40","resource":{"resourceType":"MeasureReport","id":"470eca06-5759-4249-a7b9-e18ff4b3be40","meta":{"profile":["http://hl7.org/fhir/us/cqfmeasures/StructureDefinition/test-case-cqfm"]},"contained":[{"resourceType":"Parameters","id":"fb37e33c-2f7f-4e53-91b0-7dd24aa22e04-parameters","parameter":[{"name":"subject","valueString":"4c32b73b-abba-431b-a352-f0f454e7c9dd"}]}],"extension":[{"url":"http://hl7.org/fhir/us/cqfmeasures/StructureDefinition/cqfm-inputParameters","valueReference":{"reference":"#fb37e33c-2f7f-4e53-91b0-7dd24aa22e04-parameters"}},{"url":"http://hl7.org/fhir/us/cqfmeasures/StructureDefinition/cqfm-testCaseDescription","valueMarkdown":"meets IPP, meets Denominator, IPC applied not done PatRfsl a - during OBS\n"}],"modifierExtension":[{"url":"http://hl7.org/fhir/us/cqfmeasures/StructureDefinition/cqfm-isTestCase","valueBoolean":true}],"status":"complete","type":"individual","measure":"https://madie.cms.gov/Measure/IntensiveCareUnitVenousThromboembolismProphylaxisFHIR","period":{"start":"2025-01-01","end":"2025-12-31"},"group":[{"population":[{"code":{"coding":[{"system":"http://terminology.hl7.org/CodeSystem/measure-population","code":"initial-population","display":"Initial Population"}]},"count":1},{"code":{"coding":[{"system":"http://terminology.hl7.org/CodeSystem/measure-population","code":"denominator","display":"Denominator"}]},"count":1},{"code":{"coding":[{"system":"http://terminology.hl7.org/CodeSystem/measure-population","code":"denominator-exclusion","display":"Denominator Exclusion"}]},"count":0},{"code":{"coding":[{"system":"http://terminology.hl7.org/CodeSystem/measure-population","code":"numerator","display":"Numerator"}]},"count":1},{"code":{"coding":[{"system":"http://terminology.hl7.org/CodeSystem/measure-population","code":"denominator-exception","display":"Denominator Exception"}]},"count":0}]}]},"request":{"method":"PUT","url":"MeasureReport/470eca06-5759-4249-a7b9-e18ff4b3be40"}}]}