{"resourceType":"Bundle","id":"tests-2ba8879a-0026-4837-ba3c-d9c4504dadf7-bundle","type":"transaction","entry":[{"fullUrl":"https://madie.cms.gov/Patient/2ba8879a-0026-4837-ba3c-d9c4504dadf7","resource":{"resourceType":"Patient","id":"2ba8879a-0026-4837-ba3c-d9c4504dadf7","meta":{"profile":["http://hl7.org/fhir/us/qicore/StructureDefinition/qicore-patient"]},"text":{"status":"generated","div":"<div xmlns=\"http://www.w3.org/1999/xhtml\"><div class=\"hapiHeaderText\">ICUStartConcurrentEncStart <b>DENOMPASS </b></div><table class=\"hapiPropertyTable\"><tbody><tr><td>Identifier</td><td>d2ffb757f543275338776a1648cb3dc0</td></tr><tr><td>Date of birth</td><td><span>31 January 1979</span></td></tr></tbody></table></div>"},"extension":[{"url":"http://hl7.org/fhir/us/core/StructureDefinition/us-core-race","extension":[{"url":"ombCategory","valueCoding":{"system":"urn:oid:2.16.840.1.113883.6.238","code":"1002-5","display":"American Indian or Alaska Native","userSelected":true}},{"url":"text","valueString":"American Indian or Alaska Native"}]},{"url":"http://hl7.org/fhir/us/core/StructureDefinition/us-core-ethnicity","extension":[{"url":"ombCategory","valueCoding":{"system":"urn:oid:2.16.840.1.113883.6.238","code":"2135-2","display":"Hispanic or Latino","userSelected":true}},{"url":"text","valueString":"Hispanic or Latino"}]}],"identifier":[{"type":{"coding":[{"system":"http://terminology.hl7.org/CodeSystem/v2-0203","code":"MR"}]},"system":"https://bonnie-fhir.healthit.gov/","value":"612e6f1602c62a011f2f0b00"}],"active":true,"name":[{"use":"usual","family":"DENOMPass","given":["ICUStartConcurrentEncStart"]}],"gender":"male","birthDate":"1979-01-31"},"request":{"method":"PUT","url":"Patient/2ba8879a-0026-4837-ba3c-d9c4504dadf7"}},{"fullUrl":"https://madie.cms.gov/Encounter/5ce8096eb848467c29eaf161","resource":{"resourceType":"Encounter","id":"fb801554-ebf1-46ed-8805-a74137e19ce0","meta":{"profile":["http://hl7.org/fhir/us/qicore/StructureDefinition/qicore-encounter"]},"status":"finished","class":{"system":"http://terminology.hl7.org/CodeSystem/v3-ActCode","code":"IMP","display":"inpatient encounter"},"type":[{"coding":[{"system":"http://snomed.info/sct","code":"8715000"}]}],"subject":{"reference":"Patient/2ba8879a-0026-4837-ba3c-d9c4504dadf7"},"period":{"start":"2025-12-01T08:00:00+00:00","end":"2025-12-31T23:59:00+00:00"},"length":{"value":30.0,"unit":"days"},"location":[{"location":{"reference":"Location/Location-1"},"period":{"start":"2025-12-01T08:00:00+00:00","end":"2025-12-03T11:59:00+00:00"}}]},"request":{"method":"PUT","url":"Encounter/fb801554-ebf1-46ed-8805-a74137e19ce0"}},{"fullUrl":"https://madie.cms.gov/Coverage/5fa040fc1c76ba66d9959039","resource":{"resourceType":"Coverage","id":"29b55d22-a491-4139-9edb-b47311cd1971","status":"active","beneficiary":{"reference":"Patient/2ba8879a-0026-4837-ba3c-d9c4504dadf7"},"period":{"start":"1974-03-03T08:00:00+00:00"},"payor":[{"reference":"Organization/26111c91-b0e2-476c-a20b-e3f39799f8f5"}]},"request":{"method":"PUT","url":"Coverage/29b55d22-a491-4139-9edb-b47311cd1971"}},{"fullUrl":"https://madie.cms.gov/Location/Location-1","resource":{"resourceType":"Location","id":"3b5a02c2-eadb-4853-8bf1-242a83942e01","meta":{"profile":["http://hl7.org/fhir/us/qicore/StructureDefinition/qicore-location"]},"identifier":[{"use":"usual","system":"http://exampleoflocation.com","value":"B1-S.F2"}],"name":"Medical Surgical East, first floor","type":[{"coding":[{"system":"https://www.cdc.gov/nhsn/cdaportal/terminology/codesystem/hsloc.html","code":"1025-6","display":"Trauma Critical Care","userSelected":true}]}]},"request":{"method":"PUT","url":"Location/3b5a02c2-eadb-4853-8bf1-242a83942e01"}},{"fullUrl":"https://madie.cms.gov/Organization/123456","resource":{"resourceType":"Organization","id":"26111c91-b0e2-476c-a20b-e3f39799f8f5","meta":{"profile":["http://hl7.org/fhir/us/qicore/StructureDefinition/qicore-organization"]},"identifier":[{"use":"temp","system":"urn:oid:2.16.840.1.113883.4.4","value":"21-3259825"}],"active":true,"type":[{"coding":[{"system":"http://terminology.hl7.org/CodeSystem/organization-type","code":"pay","display":"Payer"}]}],"name":"Blue Cross Blue Shield of Texas","telecom":[{"system":"phone","value":"(+1) 972-766-6900"}],"address":[{"use":"billing","type":"postal","line":["P.O. Box 660044"],"city":"Dallas","state":"TX","postalCode":"75266-0044","country":"USA"}]},"request":{"method":"PUT","url":"Organization/26111c91-b0e2-476c-a20b-e3f39799f8f5"}},{"fullUrl":"https://madie.cms.gov/Practitioner/practitioner-123456","resource":{"resourceType":"Practitioner","id":"3aaf7e6c-0ef1-459f-939f-3ff33878f543","identifier":[{"system":"http://hl7.org/fhir/sid/us-npi","value":"123456"}],"name":[{"family":"Evil","prefix":["Dr"]}]},"request":{"method":"PUT","url":"Practitioner/3aaf7e6c-0ef1-459f-939f-3ff33878f543"}},{"fullUrl":"https://madie.cms.gov/MeasureReport/70191752-5117-4a28-8068-17862604e2ee","resource":{"resourceType":"MeasureReport","id":"70191752-5117-4a28-8068-17862604e2ee","meta":{"profile":["http://hl7.org/fhir/us/cqfmeasures/StructureDefinition/test-case-cqfm"]},"contained":[{"resourceType":"Parameters","id":"4d6562f9-b4df-415c-ae42-e30b54cd8e58-parameters","parameter":[{"name":"subject","valueString":"2ba8879a-0026-4837-ba3c-d9c4504dadf7"}]}],"extension":[{"url":"http://hl7.org/fhir/us/cqfmeasures/StructureDefinition/cqfm-inputParameters","valueReference":{"reference":"#4d6562f9-b4df-415c-ae42-e30b54cd8e58-parameters"}},{"url":"http://hl7.org/fhir/us/cqfmeasures/StructureDefinition/cqfm-testCaseDescription","valueMarkdown":"ICU starts concurrent with admission\n"}],"modifierExtension":[{"url":"http://hl7.org/fhir/us/cqfmeasures/StructureDefinition/cqfm-isTestCase","valueBoolean":true}],"status":"complete","type":"individual","measure":"https://madie.cms.gov/Measure/IntensiveCareUnitVenousThromboembolismProphylaxisFHIR","period":{"start":"2025-01-01","end":"2025-12-31"},"group":[{"population":[{"code":{"coding":[{"system":"http://terminology.hl7.org/CodeSystem/measure-population","code":"initial-population","display":"Initial Population"}]},"count":1},{"code":{"coding":[{"system":"http://terminology.hl7.org/CodeSystem/measure-population","code":"denominator","display":"Denominator"}]},"count":1},{"code":{"coding":[{"system":"http://terminology.hl7.org/CodeSystem/measure-population","code":"denominator-exclusion","display":"Denominator Exclusion"}]},"count":0},{"code":{"coding":[{"system":"http://terminology.hl7.org/CodeSystem/measure-population","code":"numerator","display":"Numerator"}]},"count":0},{"code":{"coding":[{"system":"http://terminology.hl7.org/CodeSystem/measure-population","code":"denominator-exception","display":"Denominator Exception"}]},"count":0}]}]},"request":{"method":"PUT","url":"MeasureReport/70191752-5117-4a28-8068-17862604e2ee"}}]}