{"resourceType":"Bundle","id":"tests-25265601-4e27-4fe0-8d35-68ebac8f9894-bundle","type":"transaction","entry":[{"fullUrl":"https://madie.cms.gov/Patient/25265601-4e27-4fe0-8d35-68ebac8f9894","resource":{"resourceType":"Patient","id":"25265601-4e27-4fe0-8d35-68ebac8f9894","meta":{"profile":["http://hl7.org/fhir/us/qicore/StructureDefinition/qicore-patient"]},"text":{"status":"generated","div":"<div xmlns=\"http://www.w3.org/1999/xhtml\"><div class=\"hapiHeaderText\">GlycoDayAfterAnesNullMedEndtime <b>NUMERPASS </b></div><table class=\"hapiPropertyTable\"><tbody><tr><td>Identifier</td><td>4a42020f0b8dee0fc88266e960041057</td></tr><tr><td>Date of birth</td><td><span>03 March 1974</span></td></tr></tbody></table></div>"},"extension":[{"url":"http://hl7.org/fhir/us/core/StructureDefinition/us-core-race","extension":[{"url":"ombCategory","valueCoding":{"system":"urn:oid:2.16.840.1.113883.6.238","code":"1002-5","display":"American Indian or Alaska Native","userSelected":true}},{"url":"text","valueString":"American Indian or Alaska Native"}]},{"url":"http://hl7.org/fhir/us/core/StructureDefinition/us-core-ethnicity","extension":[{"url":"ombCategory","valueCoding":{"system":"urn:oid:2.16.840.1.113883.6.238","code":"2135-2","display":"Hispanic or Latino","userSelected":true}},{"url":"text","valueString":"Hispanic or Latino"}]}],"identifier":[{"type":{"coding":[{"system":"http://terminology.hl7.org/CodeSystem/v2-0203","code":"MR"}]},"system":"https://bonnie-fhir.healthit.gov/","value":"612e6ebc02c62a011f2ef6a5"}],"active":true,"name":[{"use":"usual","family":"NUMERPass","given":["GlycoDayAfterAnesNullMedEndtime"]}],"gender":"female","birthDate":"1974-03-03"},"request":{"method":"PUT","url":"Patient/25265601-4e27-4fe0-8d35-68ebac8f9894"}},{"fullUrl":"https://madie.cms.gov/Encounter/5ce80970b848467c29eaf28b","resource":{"resourceType":"Encounter","id":"c07dd7e5-d1d6-4e9d-a8a2-7ef10734b984","meta":{"profile":["http://hl7.org/fhir/us/qicore/StructureDefinition/qicore-encounter"]},"status":"finished","class":{"system":"http://terminology.hl7.org/CodeSystem/v3-ActCode","code":"IMP","display":"inpatient encounter"},"type":[{"coding":[{"system":"http://snomed.info/sct","code":"8715000"}]}],"subject":{"reference":"Patient/25265601-4e27-4fe0-8d35-68ebac8f9894"},"period":{"start":"2025-12-04T08:00:00+00:00","end":"2025-12-30T08:15:00+00:00"},"length":{"value":26.0,"unit":"days"},"location":[{"location":{"reference":"Location/Location-1"},"period":{"start":"2025-12-06T08:00:00.000+00:00","end":"2025-12-12T08:15:00.000+00:00"}}]},"request":{"method":"PUT","url":"Encounter/c07dd7e5-d1d6-4e9d-a8a2-7ef10734b984"}},{"fullUrl":"https://madie.cms.gov/Coverage/5fa040ed1c76ba66d9958f1f","resource":{"resourceType":"Coverage","id":"0717002f-bcf6-4d54-818e-22d319234d13","status":"active","beneficiary":{"reference":"Patient/25265601-4e27-4fe0-8d35-68ebac8f9894"},"period":{"start":"1974-03-03T08:00:00+00:00"},"payor":[{"reference":"Organization/26111c91-b0e2-476c-a20b-e3f39799f8f5"}]},"request":{"method":"PUT","url":"Coverage/0717002f-bcf6-4d54-818e-22d319234d13"}},{"fullUrl":"https://madie.cms.gov/MedicationAdministration/5ce80970b848467c29eaf28c","resource":{"resourceType":"MedicationAdministration","id":"bfeafcf4-63ac-42c8-a2f8-d4db9d98041e","meta":{"profile":["http://hl7.org/fhir/us/qicore/StructureDefinition/qicore-medicationadministration"]},"status":"completed","medicationCodeableConcept":{"coding":[{"system":"http://www.nlm.nih.gov/research/umls/rxnorm","code":"200349"}]},"subject":{"reference":"Patient/25265601-4e27-4fe0-8d35-68ebac8f9894"},"effectivePeriod":{"start":"2025-12-08T11:30:00+00:00"}},"request":{"method":"PUT","url":"MedicationAdministration/bfeafcf4-63ac-42c8-a2f8-d4db9d98041e"}},{"fullUrl":"https://madie.cms.gov/Procedure/5ce80970b848467c29eaf28d","resource":{"resourceType":"Procedure","id":"4a75c121-4783-4604-8ca4-7aaa105dda28","meta":{"profile":["http://hl7.org/fhir/us/qicore/StructureDefinition/qicore-procedure"]},"extension":[{"url":"http://hl7.org/fhir/us/qicore/StructureDefinition/qicore-recorded","valueDateTime":"2012-12-07T09:35:00-04:00"}],"status":"completed","code":{"coding":[{"system":"http://snomed.info/sct","code":"18946005"}]},"subject":{"reference":"Patient/25265601-4e27-4fe0-8d35-68ebac8f9894"},"performedPeriod":{"start":"2025-12-07T11:00:00+00:00","end":"2025-12-07T11:15:00+00:00"}},"request":{"method":"PUT","url":"Procedure/4a75c121-4783-4604-8ca4-7aaa105dda28"}},{"fullUrl":"https://madie.cms.gov/Location/Location-1","resource":{"resourceType":"Location","id":"1a26314e-0d10-45ee-974f-7fe0af58c7bd","meta":{"profile":["http://hl7.org/fhir/us/qicore/StructureDefinition/qicore-location"]},"identifier":[{"use":"usual","system":"http://exampleoflocation.com","value":"B1-S.F2"}],"name":"Medical Surgical East, first floor","type":[{"coding":[{"system":"https://www.cdc.gov/nhsn/cdaportal/terminology/codesystem/hsloc.html","code":"1025-6","display":"Trauma Critical Care","userSelected":true}]}]},"request":{"method":"PUT","url":"Location/1a26314e-0d10-45ee-974f-7fe0af58c7bd"}},{"fullUrl":"https://madie.cms.gov/Organization/123456","resource":{"resourceType":"Organization","id":"26111c91-b0e2-476c-a20b-e3f39799f8f5","meta":{"profile":["http://hl7.org/fhir/us/qicore/StructureDefinition/qicore-organization"]},"identifier":[{"use":"temp","system":"urn:oid:2.16.840.1.113883.4.4","value":"21-3259825"}],"active":true,"type":[{"coding":[{"system":"http://terminology.hl7.org/CodeSystem/organization-type","code":"pay","display":"Payer"}]}],"name":"Blue Cross Blue Shield of Texas","telecom":[{"system":"phone","value":"(+1) 972-766-6900"}],"address":[{"use":"billing","type":"postal","line":["P.O. Box 660044"],"city":"Dallas","state":"TX","postalCode":"75266-0044","country":"USA"}]},"request":{"method":"PUT","url":"Organization/26111c91-b0e2-476c-a20b-e3f39799f8f5"}},{"fullUrl":"https://madie.cms.gov/Practitioner/practitioner-123456","resource":{"resourceType":"Practitioner","id":"e2efd4cb-04c5-4e4d-91f0-c9852e9ef553","identifier":[{"system":"http://hl7.org/fhir/sid/us-npi","value":"123456"}],"name":[{"family":"Evil","prefix":["Dr"]}]},"request":{"method":"PUT","url":"Practitioner/e2efd4cb-04c5-4e4d-91f0-c9852e9ef553"}},{"fullUrl":"https://madie.cms.gov/MeasureReport/da5cc6dc-f299-4f9e-bb77-17253adf46b3","resource":{"resourceType":"MeasureReport","id":"da5cc6dc-f299-4f9e-bb77-17253adf46b3","meta":{"profile":["http://hl7.org/fhir/us/cqfmeasures/StructureDefinition/test-case-cqfm"]},"contained":[{"resourceType":"Parameters","id":"92212cf1-0bc6-4a1a-94c2-dc3596f4fc73-parameters","parameter":[{"name":"subject","valueString":"25265601-4e27-4fe0-8d35-68ebac8f9894"}]}],"extension":[{"url":"http://hl7.org/fhir/us/cqfmeasures/StructureDefinition/cqfm-inputParameters","valueReference":{"reference":"#92212cf1-0bc6-4a1a-94c2-dc3596f4fc73-parameters"}},{"url":"http://hl7.org/fhir/us/cqfmeasures/StructureDefinition/cqfm-testCaseDescription","valueMarkdown":"Glycoprotein IIb/IIIa Inhibitors administered day after neuraxial anesthesia\n"}],"modifierExtension":[{"url":"http://hl7.org/fhir/us/cqfmeasures/StructureDefinition/cqfm-isTestCase","valueBoolean":true}],"status":"complete","type":"individual","measure":"https://madie.cms.gov/Measure/IntensiveCareUnitVenousThromboembolismProphylaxisFHIR","period":{"start":"2025-01-01","end":"2025-12-31"},"group":[{"population":[{"code":{"coding":[{"system":"http://terminology.hl7.org/CodeSystem/measure-population","code":"initial-population","display":"Initial Population"}]},"count":1},{"code":{"coding":[{"system":"http://terminology.hl7.org/CodeSystem/measure-population","code":"denominator","display":"Denominator"}]},"count":1},{"code":{"coding":[{"system":"http://terminology.hl7.org/CodeSystem/measure-population","code":"denominator-exclusion","display":"Denominator Exclusion"}]},"count":0},{"code":{"coding":[{"system":"http://terminology.hl7.org/CodeSystem/measure-population","code":"numerator","display":"Numerator"}]},"count":1},{"code":{"coding":[{"system":"http://terminology.hl7.org/CodeSystem/measure-population","code":"denominator-exception","display":"Denominator Exception"}]},"count":0}]}]},"request":{"method":"PUT","url":"MeasureReport/da5cc6dc-f299-4f9e-bb77-17253adf46b3"}}]}