{"resourceType":"Bundle","id":"tests-926d2075-8536-4e61-9154-934460890b9b-bundle","type":"transaction","entry":[{"fullUrl":"https://madie.cms.gov/Patient/926d2075-8536-4e61-9154-934460890b9b","resource":{"resourceType":"Patient","id":"926d2075-8536-4e61-9154-934460890b9b","meta":{"profile":["http://hl7.org/fhir/us/qicore/StructureDefinition/qicore-patient"]},"text":{"status":"generated","div":"<div xmlns=\"http://www.w3.org/1999/xhtml\"><div class=\"hapiHeaderText\">FactorXaDuringICUDxVTE <b>NUMERPASS </b></div><table class=\"hapiPropertyTable\"><tbody><tr><td>Identifier</td><td>ba9e367399672c89721f9d3c22d115ac</td></tr><tr><td>Date of birth</td><td><span>03 March 1974</span></td></tr></tbody></table></div>"},"extension":[{"url":"http://hl7.org/fhir/us/core/StructureDefinition/us-core-race","extension":[{"url":"ombCategory","valueCoding":{"system":"urn:oid:2.16.840.1.113883.6.238","code":"1002-5","display":"American Indian or Alaska Native","userSelected":true}},{"url":"text","valueString":"American Indian or Alaska Native"}]},{"url":"http://hl7.org/fhir/us/core/StructureDefinition/us-core-ethnicity","extension":[{"url":"ombCategory","valueCoding":{"system":"urn:oid:2.16.840.1.113883.6.238","code":"2135-2","display":"Hispanic or Latino","userSelected":true}},{"url":"text","valueString":"Hispanic or Latino"}]}],"identifier":[{"type":{"coding":[{"system":"http://terminology.hl7.org/CodeSystem/v2-0203","code":"MR"}]},"system":"https://bonnie-fhir.healthit.gov/","value":"612e6ec102c62a011f2ef74a"}],"active":true,"name":[{"use":"usual","family":"NUMERPass","given":["FactorXaDuringICUDxVTE"]}],"gender":"female","birthDate":"1974-03-03"},"request":{"method":"PUT","url":"Patient/926d2075-8536-4e61-9154-934460890b9b"}},{"fullUrl":"https://madie.cms.gov/Encounter/5ce80970b848467c29eaf1fd","resource":{"resourceType":"Encounter","id":"306ca05f-d21a-4b1b-a0cc-a300b9d14034","meta":{"profile":["http://hl7.org/fhir/us/qicore/StructureDefinition/qicore-encounter"]},"status":"finished","class":{"system":"http://terminology.hl7.org/CodeSystem/v3-ActCode","code":"IMP","display":"inpatient encounter"},"type":[{"coding":[{"system":"http://snomed.info/sct","code":"8715000"}]}],"subject":{"reference":"Patient/926d2075-8536-4e61-9154-934460890b9b"},"period":{"start":"2025-12-04T08:00:00+00:00","end":"2025-12-30T08:15:00+00:00"},"length":{"value":26,"unit":"days"},"location":[{"location":{"reference":"Location/intensive-care-unit-5583"},"period":{"start":"2025-12-06T08:00:00.000+00:00","end":"2025-12-08T08:15:00.000+00:00"}}]},"request":{"method":"PUT","url":"Encounter/306ca05f-d21a-4b1b-a0cc-a300b9d14034"}},{"fullUrl":"https://madie.cms.gov/Coverage/5fa040ee1c76ba66d9958f28","resource":{"resourceType":"Coverage","id":"bd877057-c56a-42f3-9670-df39d68ca47b","status":"active","beneficiary":{"reference":"Patient/926d2075-8536-4e61-9154-934460890b9b"},"period":{"start":"1974-03-03T08:00:00+00:00"},"payor":[{"reference":"Organization/26111c91-b0e2-476c-a20b-e3f39799f8f5"}]},"request":{"method":"PUT","url":"Coverage/bd877057-c56a-42f3-9670-df39d68ca47b"}},{"fullUrl":"https://madie.cms.gov/Condition/5ce80970b848467c29eaf1fc","resource":{"resourceType":"Condition","id":"7f589ffa-9990-4e04-9a3c-bb6db0cd166d","meta":{"profile":["http://hl7.org/fhir/us/qicore/StructureDefinition/qicore-condition"]},"clinicalStatus":{"coding":[{"system":"http://terminology.hl7.org/CodeSystem/condition-clinical","code":"inactive"}]},"verificationStatus":{"coding":[{"system":"http://terminology.hl7.org/CodeSystem/condition-ver-status","code":"confirmed"}]},"category":[{"coding":[{"system":"http://terminology.hl7.org/CodeSystem/condition-category","code":"problem-list-item","display":"Problem List Item"}]}],"code":{"coding":[{"system":"http://hl7.org/fhir/sid/icd-10-cm","code":"I26.09","display":"Other pulmonary embolism with acute cor pulmonale"}]},"subject":{"reference":"Patient/926d2075-8536-4e61-9154-934460890b9b"},"onsetPeriod":{"start":"2025-11-03T08:00:00+00:00","end":"2025-12-03T08:00:00+00:00"}},"request":{"method":"PUT","url":"Condition/7f589ffa-9990-4e04-9a3c-bb6db0cd166d"}},{"fullUrl":"https://madie.cms.gov/MedicationAdministration/5ce80970b848467c29eaf1fe","resource":{"resourceType":"MedicationAdministration","id":"78f75367-858c-4466-a621-fd7749d01eb3","meta":{"profile":["http://hl7.org/fhir/us/qicore/StructureDefinition/qicore-medicationadministration"]},"status":"completed","medicationCodeableConcept":{"coding":[{"system":"http://www.nlm.nih.gov/research/umls/rxnorm","code":"1599543","display":"edoxaban 15 MG Oral Tablet"}]},"subject":{"reference":"Patient/926d2075-8536-4e61-9154-934460890b9b"},"effectivePeriod":{"start":"2025-12-06T11:30:00+00:00","end":"2025-12-06T11:35:00+00:00"}},"request":{"method":"PUT","url":"MedicationAdministration/78f75367-858c-4466-a621-fd7749d01eb3"}},{"fullUrl":"https://madie.cms.gov/Location/intensive-care-unit-5583","resource":{"resourceType":"Location","id":"f394d03a-d1d9-4e02-9453-b5c0bd89601a","meta":{"profile":["http://hl7.org/fhir/us/qicore/StructureDefinition/qicore-location"]},"identifier":[{"use":"usual","system":"http://exampleoflocation.com","value":"B1-S.F2"}],"name":"Medical Surgical East, first floor","type":[{"coding":[{"system":"https://www.cdc.gov/nhsn/cdaportal/terminology/codesystem/hsloc.html","version":"2020","code":"1025-6","display":"Trauma Critical Care","userSelected":true}]}]},"request":{"method":"PUT","url":"Location/f394d03a-d1d9-4e02-9453-b5c0bd89601a"}},{"fullUrl":"https://madie.cms.gov/Organization/123456","resource":{"resourceType":"Organization","id":"26111c91-b0e2-476c-a20b-e3f39799f8f5","meta":{"profile":["http://hl7.org/fhir/us/qicore/StructureDefinition/qicore-organization"]},"identifier":[{"use":"temp","system":"urn:oid:2.16.840.1.113883.4.4","value":"21-3259825"}],"active":true,"type":[{"coding":[{"system":"http://terminology.hl7.org/CodeSystem/organization-type","code":"pay","display":"Payer"}]}],"name":"Blue Cross Blue Shield of Texas","telecom":[{"system":"phone","value":"(+1) 972-766-6900"}],"address":[{"use":"billing","type":"postal","line":["P.O. Box 660044"],"city":"Dallas","state":"TX","postalCode":"75266-0044","country":"USA"}]},"request":{"method":"PUT","url":"Organization/26111c91-b0e2-476c-a20b-e3f39799f8f5"}},{"fullUrl":"https://madie.cms.gov/MeasureReport/141734e9-266d-4aab-9f3d-9908973d2e3f","resource":{"resourceType":"MeasureReport","id":"141734e9-266d-4aab-9f3d-9908973d2e3f","meta":{"profile":["http://hl7.org/fhir/us/cqfmeasures/StructureDefinition/test-case-cqfm"]},"contained":[{"resourceType":"Parameters","id":"633717af-86a2-4fa9-975f-c6c5ceea690c-parameters","parameter":[{"name":"subject","valueString":"926d2075-8536-4e61-9154-934460890b9b"}]}],"extension":[{"url":"http://hl7.org/fhir/us/cqfmeasures/StructureDefinition/cqfm-inputParameters","valueReference":{"reference":"#633717af-86a2-4fa9-975f-c6c5ceea690c-parameters"}},{"url":"http://hl7.org/fhir/us/cqfmeasures/StructureDefinition/cqfm-testCaseDescription","valueMarkdown":" Oral Factor Xa Inhibitor administered after start of ICU admission\n"}],"modifierExtension":[{"url":"http://hl7.org/fhir/us/cqfmeasures/StructureDefinition/cqfm-isTestCase","valueBoolean":true}],"status":"complete","type":"individual","measure":"https://madie.cms.gov/Measure/IntensiveCareUnitVenousThromboembolismProphylaxisFHIR","period":{"start":"2025-01-01","end":"2025-12-31"},"group":[{"population":[{"code":{"coding":[{"system":"http://terminology.hl7.org/CodeSystem/measure-population","code":"initial-population","display":"Initial Population"}]},"count":1},{"code":{"coding":[{"system":"http://terminology.hl7.org/CodeSystem/measure-population","code":"denominator","display":"Denominator"}]},"count":1},{"code":{"coding":[{"system":"http://terminology.hl7.org/CodeSystem/measure-population","code":"denominator-exclusion","display":"Denominator Exclusion"}]},"count":0},{"code":{"coding":[{"system":"http://terminology.hl7.org/CodeSystem/measure-population","code":"numerator","display":"Numerator"}]},"count":1},{"code":{"coding":[{"system":"http://terminology.hl7.org/CodeSystem/measure-population","code":"denominator-exception","display":"Denominator Exception"}]},"count":0}]}]},"request":{"method":"PUT","url":"MeasureReport/141734e9-266d-4aab-9f3d-9908973d2e3f"}}]}