{"resourceType":"Bundle","id":"tests-9ac19ff5-34ba-47bc-babe-3073ddd972a7-bundle","type":"transaction","entry":[{"fullUrl":"https://madie.cms.gov/Patient/9ac19ff5-34ba-47bc-babe-3073ddd972a7","resource":{"resourceType":"Patient","id":"9ac19ff5-34ba-47bc-babe-3073ddd972a7","meta":{"profile":["http://hl7.org/fhir/us/qicore/StructureDefinition/qicore-patient"]},"text":{"status":"generated","div":"<div xmlns=\"http://www.w3.org/1999/xhtml\"><div class=\"hapiHeaderText\">HipReplNotPrin <b>DENEXFAIL </b></div><table class=\"hapiPropertyTable\"><tbody><tr><td>Identifier</td><td>927546d7b5f5a2cf7c76d1f1c4b3dffe</td></tr><tr><td>Date of birth</td><td><span>03 March 1974</span></td></tr></tbody></table></div>"},"extension":[{"url":"http://hl7.org/fhir/us/core/StructureDefinition/us-core-race","extension":[{"url":"ombCategory","valueCoding":{"system":"urn:oid:2.16.840.1.113883.6.238","code":"1002-5","display":"American Indian or Alaska Native","userSelected":true}},{"url":"text","valueString":"American Indian or Alaska Native"}]},{"url":"http://hl7.org/fhir/us/core/StructureDefinition/us-core-ethnicity","extension":[{"url":"ombCategory","valueCoding":{"system":"urn:oid:2.16.840.1.113883.6.238","code":"2135-2","display":"Hispanic or Latino","userSelected":true}},{"url":"text","valueString":"Hispanic or Latino"}]}],"identifier":[{"type":{"coding":[{"system":"http://terminology.hl7.org/CodeSystem/v2-0203","code":"MR"}]},"system":"https://bonnie-fhir.healthit.gov/","value":"612e6e9702c62a011f2eefa5"}],"active":true,"name":[{"use":"usual","family":"DENEXFail","given":["HipReplNotPrin"]}],"gender":"female","birthDate":"1974-03-03"},"request":{"method":"PUT","url":"Patient/9ac19ff5-34ba-47bc-babe-3073ddd972a7"}},{"fullUrl":"https://madie.cms.gov/Encounter/5ce8096eb848467c29eaf110","resource":{"resourceType":"Encounter","id":"4c346e24-b2a3-49dc-822e-ae153ea0da0f","meta":{"profile":["http://hl7.org/fhir/us/qicore/StructureDefinition/qicore-encounter"]},"status":"finished","class":{"system":"http://terminology.hl7.org/CodeSystem/v3-ActCode","code":"IMP","display":"inpatient encounter"},"type":[{"coding":[{"system":"http://snomed.info/sct","code":"8715000"}]}],"subject":{"reference":"Patient/9ac19ff5-34ba-47bc-babe-3073ddd972a7"},"period":{"start":"2025-12-04T08:00:00+00:00","end":"2025-12-30T08:15:00+00:00"},"length":{"value":26.0,"unit":"days"},"location":[{"location":{"reference":"Location/intensive-care-unit-bbcd"},"period":{"start":"2025-12-06T08:00:00.000+00:00","end":"2025-12-08T08:15:00.000+00:00"}}]},"request":{"method":"PUT","url":"Encounter/4c346e24-b2a3-49dc-822e-ae153ea0da0f"}},{"fullUrl":"https://madie.cms.gov/Coverage/5fa040f41c76ba66d9958fa0","resource":{"resourceType":"Coverage","id":"873b34bd-d289-4437-8fd6-b74aa3028d19","status":"active","beneficiary":{"reference":"Patient/9ac19ff5-34ba-47bc-babe-3073ddd972a7"},"period":{"start":"1974-03-03T08:00:00+00:00"},"payor":[{"reference":"Organization/26111c91-b0e2-476c-a20b-e3f39799f8f5"}]},"request":{"method":"PUT","url":"Coverage/873b34bd-d289-4437-8fd6-b74aa3028d19"}},{"fullUrl":"https://madie.cms.gov/Procedure/5ce8096eb848467c29eaf111","resource":{"resourceType":"Procedure","id":"1e4bde5a-2067-4bf4-b91d-1a82027e56cf","meta":{"profile":["http://hl7.org/fhir/us/qicore/StructureDefinition/qicore-procedure"]},"extension":[{"url":"http://hl7.org/fhir/us/qicore/StructureDefinition/qicore-recorded","valueDateTime":"2012-12-06T09:35:00-04:00"}],"status":"completed","code":{"coding":[{"system":"http://snomed.info/sct","code":"7989006"}]},"subject":{"reference":"Patient/9ac19ff5-34ba-47bc-babe-3073ddd972a7"},"performedPeriod":{"start":"2025-12-06T08:15:00+00:00","end":"2025-12-06T11:15:00+00:00"}},"request":{"method":"PUT","url":"Procedure/1e4bde5a-2067-4bf4-b91d-1a82027e56cf"}},{"fullUrl":"https://madie.cms.gov/Location/intensive-care-unit-bbcd","resource":{"resourceType":"Location","id":"22d826ff-4ad6-4498-aaa9-6b35cc921fd6","meta":{"profile":["http://hl7.org/fhir/us/qicore/StructureDefinition/qicore-location"]},"identifier":[{"use":"usual","system":"http://exampleoflocation.com","value":"B1-S.F2"}],"name":"Medical Surgical East, first floor","type":[{"coding":[{"system":"https://www.cdc.gov/nhsn/cdaportal/terminology/codesystem/hsloc.html","code":"1025-6","display":"Trauma Critical Care","userSelected":true}]}]},"request":{"method":"PUT","url":"Location/22d826ff-4ad6-4498-aaa9-6b35cc921fd6"}},{"fullUrl":"https://madie.cms.gov/Organization/123456","resource":{"resourceType":"Organization","id":"26111c91-b0e2-476c-a20b-e3f39799f8f5","meta":{"profile":["http://hl7.org/fhir/us/qicore/StructureDefinition/qicore-organization"]},"identifier":[{"use":"temp","system":"urn:oid:2.16.840.1.113883.4.4","value":"21-3259825"}],"active":true,"type":[{"coding":[{"system":"http://terminology.hl7.org/CodeSystem/organization-type","code":"pay","display":"Payer"}]}],"name":"Blue Cross Blue Shield of Texas","telecom":[{"system":"phone","value":"(+1) 972-766-6900"}],"address":[{"use":"billing","type":"postal","line":["P.O. Box 660044"],"city":"Dallas","state":"TX","postalCode":"75266-0044","country":"USA"}]},"request":{"method":"PUT","url":"Organization/26111c91-b0e2-476c-a20b-e3f39799f8f5"}},{"fullUrl":"https://madie.cms.gov/Practitioner/practitioner-123456","resource":{"resourceType":"Practitioner","id":"21bc3bf4-e4cb-4194-82e1-4cb71c782d1d","identifier":[{"system":"http://hl7.org/fhir/sid/us-npi","value":"123456"}],"name":[{"family":"Evil","prefix":["Dr"]}]},"request":{"method":"PUT","url":"Practitioner/21bc3bf4-e4cb-4194-82e1-4cb71c782d1d"}},{"fullUrl":"https://madie.cms.gov/MeasureReport/311ec53c-be1e-4d45-9d31-e11fffef8f77","resource":{"resourceType":"MeasureReport","id":"311ec53c-be1e-4d45-9d31-e11fffef8f77","meta":{"profile":["http://hl7.org/fhir/us/cqfmeasures/StructureDefinition/test-case-cqfm"]},"contained":[{"resourceType":"Parameters","id":"753ff3af-c5ea-4197-8eef-510041e3f8de-parameters","parameter":[{"name":"subject","valueString":"9ac19ff5-34ba-47bc-babe-3073ddd972a7"}]}],"extension":[{"url":"http://hl7.org/fhir/us/cqfmeasures/StructureDefinition/cqfm-inputParameters","valueReference":{"reference":"#753ff3af-c5ea-4197-8eef-510041e3f8de-parameters"}},{"url":"http://hl7.org/fhir/us/cqfmeasures/StructureDefinition/cqfm-testCaseDescription","valueMarkdown":"Hip replacement not principal\n"}],"modifierExtension":[{"url":"http://hl7.org/fhir/us/cqfmeasures/StructureDefinition/cqfm-isTestCase","valueBoolean":true}],"status":"complete","type":"individual","measure":"https://madie.cms.gov/Measure/IntensiveCareUnitVenousThromboembolismProphylaxisFHIR","period":{"start":"2025-01-01","end":"2025-12-31"},"group":[{"population":[{"code":{"coding":[{"system":"http://terminology.hl7.org/CodeSystem/measure-population","code":"initial-population","display":"Initial Population"}]},"count":1},{"code":{"coding":[{"system":"http://terminology.hl7.org/CodeSystem/measure-population","code":"denominator","display":"Denominator"}]},"count":1},{"code":{"coding":[{"system":"http://terminology.hl7.org/CodeSystem/measure-population","code":"denominator-exclusion","display":"Denominator Exclusion"}]},"count":0},{"code":{"coding":[{"system":"http://terminology.hl7.org/CodeSystem/measure-population","code":"numerator","display":"Numerator"}]},"count":0},{"code":{"coding":[{"system":"http://terminology.hl7.org/CodeSystem/measure-population","code":"denominator-exception","display":"Denominator Exception"}]},"count":0}]}]},"request":{"method":"PUT","url":"MeasureReport/311ec53c-be1e-4d45-9d31-e11fffef8f77"}}]}