{"resourceType":"Bundle","id":"tests-6f2d7289-6559-4e18-95be-7d52e61e161b-bundle","type":"transaction","entry":[{"fullUrl":"https://madie.cms.gov/Patient/6f2d7289-6559-4e18-95be-7d52e61e161b","resource":{"resourceType":"Patient","id":"6f2d7289-6559-4e18-95be-7d52e61e161b","meta":{"profile":["http://hl7.org/fhir/us/qicore/StructureDefinition/qicore-patient"]},"text":{"status":"generated","div":"<div xmlns=\"http://www.w3.org/1999/xhtml\"><div class=\"hapiHeaderText\">EncEndsAfterMP <b>IPFAIL </b></div><table class=\"hapiPropertyTable\"><tbody><tr><td>Identifier</td><td>b1d28eead06b6f01d6aa6061622efda1</td></tr><tr><td>Date of birth</td><td><span>03 March 1974</span></td></tr></tbody></table></div>"},"extension":[{"url":"http://hl7.org/fhir/us/core/StructureDefinition/us-core-race","extension":[{"url":"ombCategory","valueCoding":{"system":"urn:oid:2.16.840.1.113883.6.238","code":"1002-5","display":"American Indian or Alaska Native","userSelected":true}},{"url":"text","valueString":"American Indian or Alaska Native"}]},{"url":"http://hl7.org/fhir/us/core/StructureDefinition/us-core-ethnicity","extension":[{"url":"ombCategory","valueCoding":{"system":"urn:oid:2.16.840.1.113883.6.238","code":"2135-2","display":"Hispanic or Latino","userSelected":true}},{"url":"text","valueString":"Hispanic or Latino"}]}],"identifier":[{"type":{"coding":[{"system":"http://terminology.hl7.org/CodeSystem/v2-0203","code":"MR"}]},"system":"https://bonnie-fhir.healthit.gov/","value":"612e6f3b02c62a011f2f11ba"}],"active":true,"name":[{"use":"usual","family":"IPFail","given":["EncEndsAfterMP"]}],"gender":"female","birthDate":"1974-03-03"},"request":{"method":"PUT","url":"Patient/6f2d7289-6559-4e18-95be-7d52e61e161b"}},{"fullUrl":"https://madie.cms.gov/Encounter/5ce8096cb848467c29eaf082","resource":{"resourceType":"Encounter","id":"13005a5c-7a81-4bda-81a8-0a2a426883ac","meta":{"profile":["http://hl7.org/fhir/us/qicore/StructureDefinition/qicore-encounter"]},"status":"finished","class":{"system":"http://terminology.hl7.org/CodeSystem/v3-ActCode","code":"IMP","display":"inpatient encounter"},"type":[{"coding":[{"system":"http://snomed.info/sct","code":"8715000"}]}],"subject":{"reference":"Patient/6f2d7289-6559-4e18-95be-7d52e61e161b"},"period":{"start":"2025-12-25T08:00:00+00:00","end":"2026-01-01T08:15:00+00:00"},"length":{"value":7.0,"unit":"days"},"location":[{"location":{"reference":"Location/Location-1"},"period":{"start":"2025-12-26T08:00:00.000+00:00","end":"2025-12-28T08:15:00.000+00:00"}}]},"request":{"method":"PUT","url":"Encounter/13005a5c-7a81-4bda-81a8-0a2a426883ac"}},{"fullUrl":"https://madie.cms.gov/Coverage/5fa041011c76ba66d995908a","resource":{"resourceType":"Coverage","id":"699a7ec5-cb45-4055-8fc9-8f9c4314e28c","status":"active","beneficiary":{"reference":"Patient/6f2d7289-6559-4e18-95be-7d52e61e161b"},"period":{"start":"1974-03-03T08:00:00+00:00"},"payor":[{"reference":"Organization/26111c91-b0e2-476c-a20b-e3f39799f8f5"}]},"request":{"method":"PUT","url":"Coverage/699a7ec5-cb45-4055-8fc9-8f9c4314e28c"}},{"fullUrl":"https://madie.cms.gov/Condition/5ce8096cb848467c29eaf081","resource":{"resourceType":"Condition","id":"0a7da5e4-62dd-46f0-9e3b-55f95f888219","meta":{"profile":["http://hl7.org/fhir/us/qicore/StructureDefinition/qicore-condition"]},"category":[{"coding":[{"system":"http://terminology.hl7.org/CodeSystem/condition-category","code":"problem-list-item","display":"Problem List Item"}]}],"code":{"coding":[{"system":"http://hl7.org/fhir/sid/icd-10-cm","code":"I26.09"},{"system":"http://hl7.org/fhir/sid/icd-9-cm","code":"415.11"},{"system":"http://snomed.info/sct","code":"132251000119101"}]},"subject":{"reference":"Patient/6f2d7289-6559-4e18-95be-7d52e61e161b"},"onsetPeriod":{"start":"2025-10-04T08:00:00+00:00","end":"2025-10-05T08:15:00+00:00"}},"request":{"method":"PUT","url":"Condition/0a7da5e4-62dd-46f0-9e3b-55f95f888219"}},{"fullUrl":"https://madie.cms.gov/Location/Location-1","resource":{"resourceType":"Location","id":"291ca327-4e4f-4de0-b096-77d5368d01e4","meta":{"profile":["http://hl7.org/fhir/us/qicore/StructureDefinition/qicore-location"]},"identifier":[{"use":"usual","system":"http://exampleoflocation.com","value":"B1-S.F2"}],"name":"Medical Surgical East, first floor","type":[{"coding":[{"system":"https://www.cdc.gov/nhsn/cdaportal/terminology/codesystem/hsloc.html","code":"1025-6","display":"Trauma Critical Care","userSelected":true}]}]},"request":{"method":"PUT","url":"Location/291ca327-4e4f-4de0-b096-77d5368d01e4"}},{"fullUrl":"https://madie.cms.gov/Organization/123456","resource":{"resourceType":"Organization","id":"26111c91-b0e2-476c-a20b-e3f39799f8f5","meta":{"profile":["http://hl7.org/fhir/us/qicore/StructureDefinition/qicore-organization"]},"identifier":[{"use":"temp","system":"urn:oid:2.16.840.1.113883.4.4","value":"21-3259825"}],"active":true,"type":[{"coding":[{"system":"http://terminology.hl7.org/CodeSystem/organization-type","code":"pay","display":"Payer"}]}],"name":"Blue Cross Blue Shield of Texas","telecom":[{"system":"phone","value":"(+1) 972-766-6900"}],"address":[{"use":"billing","type":"postal","line":["P.O. Box 660044"],"city":"Dallas","state":"TX","postalCode":"75266-0044","country":"USA"}]},"request":{"method":"PUT","url":"Organization/26111c91-b0e2-476c-a20b-e3f39799f8f5"}},{"fullUrl":"https://madie.cms.gov/Practitioner/practitioner-123456","resource":{"resourceType":"Practitioner","id":"734c120b-a5e6-46a7-9476-562072fde25a","identifier":[{"system":"http://hl7.org/fhir/sid/us-npi","value":"123456"}],"name":[{"family":"Evil","prefix":["Dr"]}]},"request":{"method":"PUT","url":"Practitioner/734c120b-a5e6-46a7-9476-562072fde25a"}},{"fullUrl":"https://madie.cms.gov/MeasureReport/9a10adc5-dee2-4e53-8f8e-2bd9cd23cfee","resource":{"resourceType":"MeasureReport","id":"9a10adc5-dee2-4e53-8f8e-2bd9cd23cfee","meta":{"profile":["http://hl7.org/fhir/us/cqfmeasures/StructureDefinition/test-case-cqfm"]},"contained":[{"resourceType":"Parameters","id":"86e2c294-678a-4a78-911c-6c00e38a832e-parameters","parameter":[{"name":"subject","valueString":"6f2d7289-6559-4e18-95be-7d52e61e161b"}]}],"extension":[{"url":"http://hl7.org/fhir/us/cqfmeasures/StructureDefinition/cqfm-inputParameters","valueReference":{"reference":"#86e2c294-678a-4a78-911c-6c00e38a832e-parameters"}},{"url":"http://hl7.org/fhir/us/cqfmeasures/StructureDefinition/cqfm-testCaseDescription","valueMarkdown":"EncEndsAfterMP\n"}],"modifierExtension":[{"url":"http://hl7.org/fhir/us/cqfmeasures/StructureDefinition/cqfm-isTestCase","valueBoolean":true}],"status":"complete","type":"individual","measure":"https://madie.cms.gov/Measure/IntensiveCareUnitVenousThromboembolismProphylaxisFHIR","period":{"start":"2025-01-01","end":"2025-12-31"},"group":[{"population":[{"code":{"coding":[{"system":"http://terminology.hl7.org/CodeSystem/measure-population","code":"initial-population","display":"Initial Population"}]},"count":0},{"code":{"coding":[{"system":"http://terminology.hl7.org/CodeSystem/measure-population","code":"denominator","display":"Denominator"}]},"count":0},{"code":{"coding":[{"system":"http://terminology.hl7.org/CodeSystem/measure-population","code":"denominator-exclusion","display":"Denominator Exclusion"}]},"count":0},{"code":{"coding":[{"system":"http://terminology.hl7.org/CodeSystem/measure-population","code":"numerator","display":"Numerator"}]},"count":0},{"code":{"coding":[{"system":"http://terminology.hl7.org/CodeSystem/measure-population","code":"denominator-exception","display":"Denominator Exception"}]},"count":0}]}]},"request":{"method":"PUT","url":"MeasureReport/9a10adc5-dee2-4e53-8f8e-2bd9cd23cfee"}}]}