{"resourceType":"Bundle","id":"tests-42c84331-3931-4f56-a9d6-93691b6904b9-bundle","type":"transaction","entry":[{"fullUrl":"https://madie.cms.gov/Patient/42c84331-3931-4f56-a9d6-93691b6904b9","resource":{"resourceType":"Patient","id":"42c84331-3931-4f56-a9d6-93691b6904b9","meta":{"profile":["http://hl7.org/fhir/us/qicore/StructureDefinition/qicore-patient"]},"text":{"status":"generated","div":"<div xmlns=\"http://www.w3.org/1999/xhtml\"><div class=\"hapiHeaderText\">ICUAfterEncEnd <b>DENOMFAIL </b></div><table class=\"hapiPropertyTable\"><tbody><tr><td>Identifier</td><td>962f1a519683811d5a51b4b64d8ef3b8</td></tr><tr><td>Date of birth</td><td><span>03 March 1974</span></td></tr></tbody></table></div>"},"extension":[{"url":"http://hl7.org/fhir/us/core/StructureDefinition/us-core-race","extension":[{"url":"ombCategory","valueCoding":{"system":"urn:oid:2.16.840.1.113883.6.238","code":"1002-5","display":"American Indian or Alaska Native","userSelected":true}},{"url":"text","valueString":"American Indian or Alaska Native"}]},{"url":"http://hl7.org/fhir/us/core/StructureDefinition/us-core-ethnicity","extension":[{"url":"ombCategory","valueCoding":{"system":"urn:oid:2.16.840.1.113883.6.238","code":"2186-5","display":"Not Hispanic or Latino","userSelected":true}},{"url":"text","valueString":"Not Hispanic or Latino"}]}],"identifier":[{"type":{"coding":[{"system":"http://terminology.hl7.org/CodeSystem/v2-0203","code":"MR"}]},"system":"https://bonnie-fhir.healthit.gov/","value":"612e6eb002c62a011f2ef3f8"}],"active":true,"name":[{"use":"usual","family":"DENOMFail","given":["ICUAfterEncEnd"]}],"gender":"female","birthDate":"1974-03-03"},"request":{"method":"PUT","url":"Patient/42c84331-3931-4f56-a9d6-93691b6904b9"}},{"fullUrl":"https://madie.cms.gov/Encounter/5ce8096db848467c29eaf0a8","resource":{"resourceType":"Encounter","id":"f8abf642-876f-4458-b365-c1b44a0de273","meta":{"profile":["http://hl7.org/fhir/us/qicore/StructureDefinition/qicore-encounter"]},"status":"finished","class":{"system":"http://terminology.hl7.org/CodeSystem/v3-ActCode","code":"IMP","display":"inpatient encounter"},"type":[{"coding":[{"system":"http://snomed.info/sct","code":"8715000"}]}],"subject":{"reference":"Patient/42c84331-3931-4f56-a9d6-93691b6904b9"},"period":{"start":"2025-12-04T08:00:00+00:00","end":"2025-12-15T08:15:00+00:00"},"length":{"value":11.0,"unit":"days"},"location":[{"location":{"reference":"Location/Location-1"},"period":{"start":"2025-12-15T09:00:00.000+00:00","end":"2025-12-16T08:15:00.000+00:00"}}]},"request":{"method":"PUT","url":"Encounter/f8abf642-876f-4458-b365-c1b44a0de273"}},{"fullUrl":"https://madie.cms.gov/Location/Location-1","resource":{"resourceType":"Location","id":"a44ddcb2-e92e-4652-9a63-33f5602196d8","meta":{"profile":["http://hl7.org/fhir/us/qicore/StructureDefinition/qicore-location"]},"identifier":[{"use":"usual","system":"http://exampleoflocation.com","value":"B1-S.F2"}],"name":"Medical Surgical East, first floor","type":[{"coding":[{"system":"https://www.cdc.gov/nhsn/cdaportal/terminology/codesystem/hsloc.html","version":"2020","code":"1025-6","display":"Trauma Critical Care","userSelected":true}]}]},"request":{"method":"PUT","url":"Location/a44ddcb2-e92e-4652-9a63-33f5602196d8"}},{"fullUrl":"https://madie.cms.gov/Coverage/5fa040eb1c76ba66d9958ef8","resource":{"resourceType":"Coverage","id":"9946bede-8e43-40d5-a7e7-95ca30bfb98f","status":"active","beneficiary":{"reference":"Patient/42c84331-3931-4f56-a9d6-93691b6904b9"},"period":{"start":"1974-03-03T08:00:00+00:00"},"payor":[{"reference":"Organization/26111c91-b0e2-476c-a20b-e3f39799f8f5"}]},"request":{"method":"PUT","url":"Coverage/9946bede-8e43-40d5-a7e7-95ca30bfb98f"}},{"fullUrl":"https://madie.cms.gov/Organization/123456","resource":{"resourceType":"Organization","id":"26111c91-b0e2-476c-a20b-e3f39799f8f5","meta":{"profile":["http://hl7.org/fhir/us/qicore/StructureDefinition/qicore-organization"]},"identifier":[{"use":"temp","system":"urn:oid:2.16.840.1.113883.4.4","value":"21-3259825"}],"active":true,"type":[{"coding":[{"system":"http://terminology.hl7.org/CodeSystem/organization-type","code":"pay","display":"Payer"}]}],"name":"Blue Cross Blue Shield of Texas","telecom":[{"system":"phone","value":"(+1) 972-766-6900"}],"address":[{"use":"billing","type":"postal","line":["P.O. Box 660044"],"city":"Dallas","state":"TX","postalCode":"75266-0044","country":"USA"}]},"request":{"method":"PUT","url":"Organization/26111c91-b0e2-476c-a20b-e3f39799f8f5"}},{"fullUrl":"https://madie.cms.gov/Practitioner/practitioner-123456","resource":{"resourceType":"Practitioner","id":"8a832302-2922-45ac-829c-bee639047ced","identifier":[{"system":"http://hl7.org/fhir/sid/us-npi","value":"123456"}],"name":[{"family":"Evil","prefix":["Dr"]}]},"request":{"method":"PUT","url":"Practitioner/8a832302-2922-45ac-829c-bee639047ced"}},{"fullUrl":"https://madie.cms.gov/MeasureReport/0908dcf5-3594-4f90-8bd3-920862d7344c","resource":{"resourceType":"MeasureReport","id":"0908dcf5-3594-4f90-8bd3-920862d7344c","meta":{"profile":["http://hl7.org/fhir/us/cqfmeasures/StructureDefinition/test-case-cqfm"]},"contained":[{"resourceType":"Parameters","id":"3e195ede-cb5d-42b4-b7b0-58948dda14a8-parameters","parameter":[{"name":"subject","valueString":"42c84331-3931-4f56-a9d6-93691b6904b9"}]}],"extension":[{"url":"http://hl7.org/fhir/us/cqfmeasures/StructureDefinition/cqfm-inputParameters","valueReference":{"reference":"#3e195ede-cb5d-42b4-b7b0-58948dda14a8-parameters"}},{"url":"http://hl7.org/fhir/us/cqfmeasures/StructureDefinition/cqfm-testCaseDescription","valueMarkdown":"ICU admission after IP encounter ends\n"}],"modifierExtension":[{"url":"http://hl7.org/fhir/us/cqfmeasures/StructureDefinition/cqfm-isTestCase","valueBoolean":true}],"status":"complete","type":"individual","measure":"https://madie.cms.gov/Measure/IntensiveCareUnitVenousThromboembolismProphylaxisFHIR","period":{"start":"2025-01-01","end":"2025-12-31"},"group":[{"population":[{"code":{"coding":[{"system":"http://terminology.hl7.org/CodeSystem/measure-population","code":"initial-population","display":"Initial Population"}]},"count":1},{"code":{"coding":[{"system":"http://terminology.hl7.org/CodeSystem/measure-population","code":"denominator","display":"Denominator"}]},"count":0},{"code":{"coding":[{"system":"http://terminology.hl7.org/CodeSystem/measure-population","code":"denominator-exclusion","display":"Denominator Exclusion"}]},"count":0},{"code":{"coding":[{"system":"http://terminology.hl7.org/CodeSystem/measure-population","code":"numerator","display":"Numerator"}]},"count":0},{"code":{"coding":[{"system":"http://terminology.hl7.org/CodeSystem/measure-population","code":"denominator-exception","display":"Denominator Exception"}]},"count":0}]}]},"request":{"method":"PUT","url":"MeasureReport/0908dcf5-3594-4f90-8bd3-920862d7344c"}}]}