{"resourceType":"Bundle","id":"tests-d4f8ae8a-1adf-4438-bc81-f9efcd4a1361-bundle","type":"transaction","entry":[{"fullUrl":"https://madie.cms.gov/Patient/d4f8ae8a-1adf-4438-bc81-f9efcd4a1361","resource":{"resourceType":"Patient","id":"d4f8ae8a-1adf-4438-bc81-f9efcd4a1361","meta":{"profile":["http://hl7.org/fhir/us/qicore/StructureDefinition/qicore-patient"]},"text":{"status":"generated","div":"<div xmlns=\"http://www.w3.org/1999/xhtml\"><div class=\"hapiHeaderText\">INREQ3AfterAnesEndsAfterStartICU <b>NUMERFAIL </b></div><table class=\"hapiPropertyTable\"><tbody><tr><td>Identifier</td><td>be18213b80546817f847863c73f29464</td></tr><tr><td>Date of birth</td><td><span>03 March 1974</span></td></tr></tbody></table></div>"},"extension":[{"url":"http://hl7.org/fhir/us/core/StructureDefinition/us-core-race","extension":[{"url":"ombCategory","valueCoding":{"system":"urn:oid:2.16.840.1.113883.6.238","code":"1002-5","display":"American Indian or Alaska Native","userSelected":true}},{"url":"text","valueString":"American Indian or Alaska Native"}]},{"url":"http://hl7.org/fhir/us/core/StructureDefinition/us-core-ethnicity","extension":[{"url":"ombCategory","valueCoding":{"system":"urn:oid:2.16.840.1.113883.6.238","code":"2135-2","display":"Hispanic or Latino","userSelected":true}},{"url":"text","valueString":"Hispanic or Latino"}]}],"identifier":[{"type":{"coding":[{"system":"http://terminology.hl7.org/CodeSystem/v2-0203","code":"MR"}]},"system":"https://bonnie-fhir.healthit.gov/","value":"612e6ef502c62a011f2f027f"}],"active":true,"name":[{"use":"usual","family":"NUMERFail","given":["INREQ3AfterAnesEndsAfterStartICU"]}],"gender":"female","birthDate":"1974-03-03"},"request":{"method":"PUT","url":"Patient/d4f8ae8a-1adf-4438-bc81-f9efcd4a1361"}},{"fullUrl":"https://madie.cms.gov/Encounter/5ce8096eb848467c29eaf137","resource":{"resourceType":"Encounter","id":"b13c0038-f9df-4cbd-8813-24f8af81dcf2","meta":{"profile":["http://hl7.org/fhir/us/qicore/StructureDefinition/qicore-encounter"]},"status":"finished","class":{"system":"http://terminology.hl7.org/CodeSystem/v3-ActCode","code":"IMP","display":"inpatient encounter"},"type":[{"coding":[{"system":"http://snomed.info/sct","code":"8715000"}]}],"subject":{"reference":"Patient/d4f8ae8a-1adf-4438-bc81-f9efcd4a1361"},"period":{"start":"2025-12-04T08:00:00+00:00","end":"2025-12-30T08:15:00+00:00"},"length":{"value":26.0,"unit":"days"},"location":[{"location":{"reference":"Location/Location-1"},"period":{"start":"2025-12-06T09:00:00.000+00:00","end":"2025-12-12T08:15:00.000+00:00"}}]},"request":{"method":"PUT","url":"Encounter/b13c0038-f9df-4cbd-8813-24f8af81dcf2"}},{"fullUrl":"https://madie.cms.gov/Coverage/5fa040f71c76ba66d9958fd6","resource":{"resourceType":"Coverage","id":"6a2ccbb9-f928-4e28-b9ba-b1eadd5465d9","status":"active","beneficiary":{"reference":"Patient/d4f8ae8a-1adf-4438-bc81-f9efcd4a1361"},"period":{"start":"1974-03-03T08:00:00+00:00"},"payor":[{"reference":"Organization/26111c91-b0e2-476c-a20b-e3f39799f8f5"}]},"request":{"method":"PUT","url":"Coverage/6a2ccbb9-f928-4e28-b9ba-b1eadd5465d9"}},{"fullUrl":"https://madie.cms.gov/Observation/5ce8096eb848467c29eaf139","resource":{"resourceType":"Observation","id":"e93d92ae-585a-427d-8ce1-a7ce43c788be","meta":{"profile":["http://hl7.org/fhir/us/qicore/StructureDefinition/qicore-observation"]},"status":"final","category":[{"coding":[{"system":"http://terminology.hl7.org/CodeSystem/observation-category","code":"laboratory","display":"Laboratory"}]}],"code":{"coding":[{"system":"http://loinc.org","code":"34714-6"}]},"subject":{"reference":"Patient/d4f8ae8a-1adf-4438-bc81-f9efcd4a1361"},"effectivePeriod":{"start":"2025-12-06T11:30:00+00:00"},"valueInteger":3},"request":{"method":"PUT","url":"Observation/e93d92ae-585a-427d-8ce1-a7ce43c788be"}},{"fullUrl":"https://madie.cms.gov/Procedure/5ce8096eb848467c29eaf138","resource":{"resourceType":"Procedure","id":"927f4d12-d5bc-4352-8cf0-006467133227","meta":{"profile":["http://hl7.org/fhir/us/qicore/StructureDefinition/qicore-procedure"]},"extension":[{"url":"http://hl7.org/fhir/us/qicore/StructureDefinition/qicore-recorded","valueDateTime":"2012-12-07T09:35:00-04:00"}],"status":"completed","code":{"coding":[{"system":"http://snomed.info/sct","code":"18946005"}]},"subject":{"reference":"Patient/d4f8ae8a-1adf-4438-bc81-f9efcd4a1361"},"performedPeriod":{"start":"2025-12-06T10:00:00+00:00","end":"2025-12-06T10:30:00+00:00"}},"request":{"method":"PUT","url":"Procedure/927f4d12-d5bc-4352-8cf0-006467133227"}},{"fullUrl":"https://madie.cms.gov/Location/Location-1","resource":{"resourceType":"Location","id":"9ada69e6-f2ee-4585-ab7a-265b525a5775","meta":{"profile":["http://hl7.org/fhir/us/qicore/StructureDefinition/qicore-location"]},"identifier":[{"use":"usual","system":"http://exampleoflocation.com","value":"B1-S.F2"}],"name":"Medical Surgical East, first floor","type":[{"coding":[{"system":"https://www.cdc.gov/nhsn/cdaportal/terminology/codesystem/hsloc.html","code":"1025-6","display":"Trauma Critical Care","userSelected":true}]}]},"request":{"method":"PUT","url":"Location/9ada69e6-f2ee-4585-ab7a-265b525a5775"}},{"fullUrl":"https://madie.cms.gov/Organization/123456","resource":{"resourceType":"Organization","id":"26111c91-b0e2-476c-a20b-e3f39799f8f5","meta":{"profile":["http://hl7.org/fhir/us/qicore/StructureDefinition/qicore-organization"]},"identifier":[{"use":"temp","system":"urn:oid:2.16.840.1.113883.4.4","value":"21-3259825"}],"active":true,"type":[{"coding":[{"system":"http://terminology.hl7.org/CodeSystem/organization-type","code":"pay","display":"Payer"}]}],"name":"Blue Cross Blue Shield of Texas","telecom":[{"system":"phone","value":"(+1) 972-766-6900"}],"address":[{"use":"billing","type":"postal","line":["P.O. Box 660044"],"city":"Dallas","state":"TX","postalCode":"75266-0044","country":"USA"}]},"request":{"method":"PUT","url":"Organization/26111c91-b0e2-476c-a20b-e3f39799f8f5"}},{"fullUrl":"https://madie.cms.gov/Practitioner/practitioner-123456","resource":{"resourceType":"Practitioner","id":"fc19c5cc-5dce-48b1-a09d-fa09efda6fb0","identifier":[{"system":"http://hl7.org/fhir/sid/us-npi","value":"123456"}],"name":[{"family":"Evil","prefix":["Dr"]}]},"request":{"method":"PUT","url":"Practitioner/fc19c5cc-5dce-48b1-a09d-fa09efda6fb0"}},{"fullUrl":"https://madie.cms.gov/MeasureReport/d1feee15-a12b-4c0b-8997-71bd620f9784","resource":{"resourceType":"MeasureReport","id":"d1feee15-a12b-4c0b-8997-71bd620f9784","meta":{"profile":["http://hl7.org/fhir/us/cqfmeasures/StructureDefinition/test-case-cqfm"]},"contained":[{"resourceType":"Parameters","id":"2a851979-68e8-4a01-9050-ee4073bce700-parameters","parameter":[{"name":"subject","valueString":"d4f8ae8a-1adf-4438-bc81-f9efcd4a1361"}]}],"extension":[{"url":"http://hl7.org/fhir/us/cqfmeasures/StructureDefinition/cqfm-inputParameters","valueReference":{"reference":"#2a851979-68e8-4a01-9050-ee4073bce700-parameters"}},{"url":"http://hl7.org/fhir/us/cqfmeasures/StructureDefinition/cqfm-testCaseDescription","valueMarkdown":"FAIL - meets IPP, meets Denominator, INR=3.0 starts after Anesthesia ends, Anes ends after start of ICU\n"}],"modifierExtension":[{"url":"http://hl7.org/fhir/us/cqfmeasures/StructureDefinition/cqfm-isTestCase","valueBoolean":true}],"status":"complete","type":"individual","measure":"https://madie.cms.gov/Measure/IntensiveCareUnitVenousThromboembolismProphylaxisFHIR","period":{"start":"2025-01-01","end":"2025-12-31"},"group":[{"population":[{"code":{"coding":[{"system":"http://terminology.hl7.org/CodeSystem/measure-population","code":"initial-population","display":"Initial Population"}]},"count":1},{"code":{"coding":[{"system":"http://terminology.hl7.org/CodeSystem/measure-population","code":"denominator","display":"Denominator"}]},"count":1},{"code":{"coding":[{"system":"http://terminology.hl7.org/CodeSystem/measure-population","code":"denominator-exclusion","display":"Denominator Exclusion"}]},"count":0},{"code":{"coding":[{"system":"http://terminology.hl7.org/CodeSystem/measure-population","code":"numerator","display":"Numerator"}]},"count":0},{"code":{"coding":[{"system":"http://terminology.hl7.org/CodeSystem/measure-population","code":"denominator-exception","display":"Denominator Exception"}]},"count":0}]}]},"request":{"method":"PUT","url":"MeasureReport/d1feee15-a12b-4c0b-8997-71bd620f9784"}}]}