{"resourceType":"Bundle","id":"tests-4d76c150-b6a5-4a1a-8801-81c24ce398b7-bundle","type":"transaction","entry":[{"fullUrl":"https://madie.cms.gov/Patient/4d76c150-b6a5-4a1a-8801-81c24ce398b7","resource":{"resourceType":"Patient","id":"4d76c150-b6a5-4a1a-8801-81c24ce398b7","meta":{"profile":["http://hl7.org/fhir/us/qicore/StructureDefinition/qicore-patient"]},"text":{"status":"generated","div":"<div xmlns=\"http://www.w3.org/1999/xhtml\"><div class=\"hapiHeaderText\">GlycoOnAnesEndDayAfterICU <b>NUMERPASS </b></div><table class=\"hapiPropertyTable\"><tbody><tr><td>Identifier</td><td>749173f2040124b092bc1729ffb06eac</td></tr><tr><td>Date of birth</td><td><span>03 March 1974</span></td></tr></tbody></table></div>"},"extension":[{"url":"http://hl7.org/fhir/us/core/StructureDefinition/us-core-race","extension":[{"url":"ombCategory","valueCoding":{"system":"urn:oid:2.16.840.1.113883.6.238","code":"1002-5","display":"American Indian or Alaska Native","userSelected":true}},{"url":"text","valueString":"American Indian or Alaska Native"}]},{"url":"http://hl7.org/fhir/us/core/StructureDefinition/us-core-ethnicity","extension":[{"url":"ombCategory","valueCoding":{"system":"urn:oid:2.16.840.1.113883.6.238","code":"2135-2","display":"Hispanic or Latino","userSelected":true}},{"url":"text","valueString":"Hispanic or Latino"}]}],"identifier":[{"type":{"coding":[{"system":"http://terminology.hl7.org/CodeSystem/v2-0203","code":"MR"}]},"system":"https://bonnie-fhir.healthit.gov/","value":"612e6f5002c62a011f2f15ec"}],"active":true,"name":[{"use":"usual","family":"NUMERPass","given":["GlycoOnAnesEndDayAfterICU"]}],"gender":"female","birthDate":"1974-03-03"},"request":{"method":"PUT","url":"Patient/4d76c150-b6a5-4a1a-8801-81c24ce398b7"}},{"fullUrl":"https://madie.cms.gov/Encounter/5ce8096db848467c29eaf09c","resource":{"resourceType":"Encounter","id":"bc57fa75-17e7-4ca2-a557-166e0b4b5c86","meta":{"profile":["http://hl7.org/fhir/us/qicore/StructureDefinition/qicore-encounter"]},"status":"finished","class":{"system":"http://terminology.hl7.org/CodeSystem/v3-ActCode","code":"IMP","display":"inpatient encounter"},"type":[{"coding":[{"system":"http://snomed.info/sct","code":"8715000"}]}],"subject":{"reference":"Patient/4d76c150-b6a5-4a1a-8801-81c24ce398b7"},"period":{"start":"2025-12-04T08:00:00+00:00","end":"2025-12-30T08:15:00+00:00"},"length":{"value":26.0,"unit":"days"},"location":[{"location":{"reference":"Location/Location-1"},"period":{"start":"2025-12-06T08:00:00.000+00:00","end":"2025-12-12T08:15:00.000+00:00"}}]},"request":{"method":"PUT","url":"Encounter/bc57fa75-17e7-4ca2-a557-166e0b4b5c86"}},{"fullUrl":"https://madie.cms.gov/Coverage/5fa041041c76ba66d99590ba","resource":{"resourceType":"Coverage","id":"ea3d9b8a-73a6-4cfc-8da8-f1668f5752c6","status":"active","beneficiary":{"reference":"Patient/4d76c150-b6a5-4a1a-8801-81c24ce398b7"},"period":{"start":"1974-03-03T08:00:00+00:00"},"payor":[{"reference":"Organization/26111c91-b0e2-476c-a20b-e3f39799f8f5"}]},"request":{"method":"PUT","url":"Coverage/ea3d9b8a-73a6-4cfc-8da8-f1668f5752c6"}},{"fullUrl":"https://madie.cms.gov/MedicationAdministration/5ce8096db848467c29eaf09d","resource":{"resourceType":"MedicationAdministration","id":"62e3a91d-a65a-497e-afdc-a7e4786743ca","meta":{"profile":["http://hl7.org/fhir/us/qicore/StructureDefinition/qicore-medicationadministration"]},"status":"completed","medicationCodeableConcept":{"coding":[{"system":"http://www.nlm.nih.gov/research/umls/rxnorm","code":"200349"}]},"subject":{"reference":"Patient/4d76c150-b6a5-4a1a-8801-81c24ce398b7"},"effectivePeriod":{"start":"2025-12-07T11:15:00+00:00"}},"request":{"method":"PUT","url":"MedicationAdministration/62e3a91d-a65a-497e-afdc-a7e4786743ca"}},{"fullUrl":"https://madie.cms.gov/Procedure/5ce8096db848467c29eaf09e","resource":{"resourceType":"Procedure","id":"f62b34fa-219b-4a88-b329-6bb5e8916c26","meta":{"profile":["http://hl7.org/fhir/us/qicore/StructureDefinition/qicore-procedure"]},"extension":[{"url":"http://hl7.org/fhir/us/qicore/StructureDefinition/qicore-recorded","valueDateTime":"2012-12-07T09:35:00-04:00"}],"status":"completed","code":{"coding":[{"system":"http://snomed.info/sct","code":"18946005"}]},"subject":{"reference":"Patient/4d76c150-b6a5-4a1a-8801-81c24ce398b7"},"performedPeriod":{"start":"2025-12-07T10:00:00+00:00","end":"2025-12-07T11:15:00+00:00"}},"request":{"method":"PUT","url":"Procedure/f62b34fa-219b-4a88-b329-6bb5e8916c26"}},{"fullUrl":"https://madie.cms.gov/Location/Location-1","resource":{"resourceType":"Location","id":"0cec7018-86b3-4778-9b56-e10c1db1ed0e","meta":{"profile":["http://hl7.org/fhir/us/qicore/StructureDefinition/qicore-location"]},"identifier":[{"use":"usual","system":"http://exampleoflocation.com","value":"B1-S.F2"}],"name":"Medical Surgical East, first floor","type":[{"coding":[{"system":"https://www.cdc.gov/nhsn/cdaportal/terminology/codesystem/hsloc.html","code":"1025-6","display":"Trauma Critical Care","userSelected":true}]}]},"request":{"method":"PUT","url":"Location/0cec7018-86b3-4778-9b56-e10c1db1ed0e"}},{"fullUrl":"https://madie.cms.gov/Organization/123456","resource":{"resourceType":"Organization","id":"26111c91-b0e2-476c-a20b-e3f39799f8f5","meta":{"profile":["http://hl7.org/fhir/us/qicore/StructureDefinition/qicore-organization"]},"identifier":[{"use":"temp","system":"urn:oid:2.16.840.1.113883.4.4","value":"21-3259825"}],"active":true,"type":[{"coding":[{"system":"http://terminology.hl7.org/CodeSystem/organization-type","code":"pay","display":"Payer"}]}],"name":"Blue Cross Blue Shield of Texas","telecom":[{"system":"phone","value":"(+1) 972-766-6900"}],"address":[{"use":"billing","type":"postal","line":["P.O. Box 660044"],"city":"Dallas","state":"TX","postalCode":"75266-0044","country":"USA"}]},"request":{"method":"PUT","url":"Organization/26111c91-b0e2-476c-a20b-e3f39799f8f5"}},{"fullUrl":"https://madie.cms.gov/Practitioner/practitioner-123456","resource":{"resourceType":"Practitioner","id":"801d20cf-f7a4-49e7-a76f-cc3119b4fdd3","identifier":[{"system":"http://hl7.org/fhir/sid/us-npi","value":"123456"}],"name":[{"family":"Evil","prefix":["Dr"]}]},"request":{"method":"PUT","url":"Practitioner/801d20cf-f7a4-49e7-a76f-cc3119b4fdd3"}},{"fullUrl":"https://madie.cms.gov/MeasureReport/fc2a36f5-de6b-40fa-8d28-77dc6a028926","resource":{"resourceType":"MeasureReport","id":"fc2a36f5-de6b-40fa-8d28-77dc6a028926","meta":{"profile":["http://hl7.org/fhir/us/cqfmeasures/StructureDefinition/test-case-cqfm"]},"contained":[{"resourceType":"Parameters","id":"2055665c-a3e7-43e2-9a7d-ea3824b00b83-parameters","parameter":[{"name":"subject","valueString":"4d76c150-b6a5-4a1a-8801-81c24ce398b7"}]}],"extension":[{"url":"http://hl7.org/fhir/us/cqfmeasures/StructureDefinition/cqfm-inputParameters","valueReference":{"reference":"#2055665c-a3e7-43e2-9a7d-ea3824b00b83-parameters"}},{"url":"http://hl7.org/fhir/us/cqfmeasures/StructureDefinition/cqfm-testCaseDescription","valueMarkdown":"Glycoprotein IIb/IIIa Inhibitors administered concurrentwith end of neuraxial anesthesia\n"}],"modifierExtension":[{"url":"http://hl7.org/fhir/us/cqfmeasures/StructureDefinition/cqfm-isTestCase","valueBoolean":true}],"status":"complete","type":"individual","measure":"https://madie.cms.gov/Measure/IntensiveCareUnitVenousThromboembolismProphylaxisFHIR","period":{"start":"2025-01-01","end":"2025-12-31"},"group":[{"population":[{"code":{"coding":[{"system":"http://terminology.hl7.org/CodeSystem/measure-population","code":"initial-population","display":"Initial Population"}]},"count":1},{"code":{"coding":[{"system":"http://terminology.hl7.org/CodeSystem/measure-population","code":"denominator","display":"Denominator"}]},"count":1},{"code":{"coding":[{"system":"http://terminology.hl7.org/CodeSystem/measure-population","code":"denominator-exclusion","display":"Denominator Exclusion"}]},"count":0},{"code":{"coding":[{"system":"http://terminology.hl7.org/CodeSystem/measure-population","code":"numerator","display":"Numerator"}]},"count":1},{"code":{"coding":[{"system":"http://terminology.hl7.org/CodeSystem/measure-population","code":"denominator-exception","display":"Denominator Exception"}]},"count":0}]}]},"request":{"method":"PUT","url":"MeasureReport/fc2a36f5-de6b-40fa-8d28-77dc6a028926"}}]}