{"resourceType":"Bundle","id":"tests-2692f4bd-5abf-4565-873e-7cced05eaece-bundle","type":"transaction","entry":[{"fullUrl":"https://madie.cms.gov/Patient/2692f4bd-5abf-4565-873e-7cced05eaece","resource":{"resourceType":"Patient","id":"2692f4bd-5abf-4565-873e-7cced05eaece","meta":{"profile":["http://hl7.org/fhir/us/qicore/StructureDefinition/qicore-patient"]},"text":{"status":"generated","div":"<div xmlns=\"http://www.w3.org/1999/xhtml\"><div class=\"hapiHeaderText\">MedReasonMOLDUHepDOVFP1DayAfICU <b>NUMERPASS </b></div><table class=\"hapiPropertyTable\"><tbody><tr><td>Identifier</td><td>cdd1ec13b77c1be95c04b9f3b51d6649</td></tr><tr><td>Date of birth</td><td><span>02 January 1974</span></td></tr></tbody></table></div>"},"extension":[{"url":"http://hl7.org/fhir/us/core/StructureDefinition/us-core-race","extension":[{"url":"ombCategory","valueCoding":{"system":"urn:oid:2.16.840.1.113883.6.238","code":"1002-5","display":"American Indian or Alaska Native","userSelected":true}},{"url":"text","valueString":"American Indian or Alaska Native"}]},{"url":"http://hl7.org/fhir/us/core/StructureDefinition/us-core-ethnicity","extension":[{"url":"ombCategory","valueCoding":{"system":"urn:oid:2.16.840.1.113883.6.238","code":"2135-2","display":"Hispanic or Latino","userSelected":true}},{"url":"text","valueString":"Hispanic or Latino"}]}],"identifier":[{"type":{"coding":[{"system":"http://terminology.hl7.org/CodeSystem/v2-0203","code":"MR"}]},"system":"https://bonnie-fhir.healthit.gov/","value":"612e6a8402c62a011f2ea3c7"}],"active":true,"name":[{"use":"usual","family":"NUMERPass","given":["MedReasonMOLDUHepDOVFP1DayAfICU"]}],"gender":"male","birthDate":"1974-01-02"},"request":{"method":"PUT","url":"Patient/2692f4bd-5abf-4565-873e-7cced05eaece"}},{"fullUrl":"https://madie.cms.gov/Encounter/5ca6295fb8484628b8de1da8","resource":{"resourceType":"Encounter","id":"6fece7b9-90a8-49a6-9180-02bfc456815d","meta":{"profile":["http://hl7.org/fhir/us/qicore/StructureDefinition/qicore-encounter"]},"status":"finished","class":{"system":"http://terminology.hl7.org/CodeSystem/v3-ActCode","code":"IMP","display":"inpatient encounter"},"type":[{"coding":[{"system":"http://snomed.info/sct","code":"8715000"}]}],"subject":{"reference":"Patient/2692f4bd-5abf-4565-873e-7cced05eaece"},"period":{"start":"2025-11-01T08:00:00+00:00","end":"2025-11-26T08:15:00+00:00"},"length":{"value":25.0,"unit":"days"},"location":[{"location":{"reference":"Location/Location-1"},"period":{"start":"2025-11-03T09:00:00.000+00:00","end":"2025-11-05T08:15:00.000+00:00"}}]},"request":{"method":"PUT","url":"Encounter/6fece7b9-90a8-49a6-9180-02bfc456815d"}},{"fullUrl":"https://madie.cms.gov/Coverage/5fa0414e1c76ba66d99591cf","resource":{"resourceType":"Coverage","id":"23313c36-a5bd-4d24-bd54-75409c614a71","status":"active","beneficiary":{"reference":"Patient/2692f4bd-5abf-4565-873e-7cced05eaece"},"period":{"start":"1974-01-02T08:00:00+00:00"},"payor":[{"reference":"Organization/26111c91-b0e2-476c-a20b-e3f39799f8f5"}]},"request":{"method":"PUT","url":"Coverage/23313c36-a5bd-4d24-bd54-75409c614a71"}},{"fullUrl":"https://madie.cms.gov/MedicationRequest/5ca6295fb8484628b8de1daa","resource":{"resourceType":"MedicationRequest","id":"e54d87de-7b8f-4e17-9efb-1dffe89bb863","meta":{"profile":["http://hl7.org/fhir/us/qicore/StructureDefinition/qicore-mednotrequested"]},"status":"completed","intent":"order","category":[{"coding":[{"system":"http://terminology.hl7.org/CodeSystem/medicationrequest-category","code":"community"}]}],"doNotPerform":true,"medicationCodeableConcept":{"coding":[{"system":"http://www.nlm.nih.gov/research/umls/rxnorm","code":"1361574"}]},"subject":{"reference":"Patient/2692f4bd-5abf-4565-873e-7cced05eaece"},"authoredOn":"2025-11-04T09:00:00+00:00","requester":{"reference":"Practitioner/example"},"reasonCode":[{"coding":[{"system":"http://snomed.info/sct","code":"183932001","display":"Procedure contraindicated (situation)","userSelected":true}]}],"dosageInstruction":[{"timing":{"repeat":{"boundsPeriod":{"start":"2025-11-04T09:00:00+00:00"}}}}]},"request":{"method":"PUT","url":"MedicationRequest/e54d87de-7b8f-4e17-9efb-1dffe89bb863"}},{"fullUrl":"https://madie.cms.gov/ServiceRequest/venous-foot-pumps-vfp-8a30","resource":{"resourceType":"ServiceRequest","id":"11dab983-99c9-44e2-9529-917b2acd77fe","meta":{"profile":["http://hl7.org/fhir/us/qicore/StructureDefinition/qicore-servicenotrequested"]},"extension":[{"url":"http://hl7.org/fhir/us/qicore/StructureDefinition/qicore-doNotPerformReason","valueCodeableConcept":{"coding":[{"system":"http://snomed.info/sct","code":"183932001","display":"Procedure contraindicated (situation)"}]}}],"status":"completed","intent":"order","doNotPerform":true,"code":{"coding":[{"system":"http://snomed.info/sct","code":"442023007","display":"Venous foot pump, device (physical object)","userSelected":true}]},"subject":{"reference":"Patient/2692f4bd-5abf-4565-873e-7cced05eaece"},"authoredOn":"2025-11-04T09:00:00+00:00"},"request":{"method":"PUT","url":"ServiceRequest/11dab983-99c9-44e2-9529-917b2acd77fe"}},{"fullUrl":"https://madie.cms.gov/Location/Location-1","resource":{"resourceType":"Location","id":"706affb4-fe11-4bd9-8ac5-7f77fa5cf23e","meta":{"profile":["http://hl7.org/fhir/us/qicore/StructureDefinition/qicore-location"]},"identifier":[{"use":"usual","system":"http://exampleoflocation.com","value":"B1-S.F2"}],"name":"Medical Surgical East, first floor","type":[{"coding":[{"system":"https://www.cdc.gov/nhsn/cdaportal/terminology/codesystem/hsloc.html","code":"1025-6","display":"Trauma Critical Care","userSelected":true}]}]},"request":{"method":"PUT","url":"Location/706affb4-fe11-4bd9-8ac5-7f77fa5cf23e"}},{"fullUrl":"https://madie.cms.gov/Organization/123456","resource":{"resourceType":"Organization","id":"26111c91-b0e2-476c-a20b-e3f39799f8f5","meta":{"profile":["http://hl7.org/fhir/us/qicore/StructureDefinition/qicore-organization"]},"identifier":[{"use":"temp","system":"urn:oid:2.16.840.1.113883.4.4","value":"21-3259825"}],"active":true,"type":[{"coding":[{"system":"http://terminology.hl7.org/CodeSystem/organization-type","code":"pay","display":"Payer"}]}],"name":"Blue Cross Blue Shield of Texas","telecom":[{"system":"phone","value":"(+1) 972-766-6900"}],"address":[{"use":"billing","type":"postal","line":["P.O. Box 660044"],"city":"Dallas","state":"TX","postalCode":"75266-0044","country":"USA"}]},"request":{"method":"PUT","url":"Organization/26111c91-b0e2-476c-a20b-e3f39799f8f5"}},{"fullUrl":"https://madie.cms.gov/Practitioner/practitioner-123456","resource":{"resourceType":"Practitioner","id":"03e407e3-846a-4778-8163-2c09092126e4","identifier":[{"system":"http://hl7.org/fhir/sid/us-npi","value":"123456"}],"name":[{"family":"Evil","prefix":["Dr"]}]},"request":{"method":"PUT","url":"Practitioner/03e407e3-846a-4778-8163-2c09092126e4"}},{"fullUrl":"https://madie.cms.gov/MeasureReport/78248929-7e2a-469f-ad73-1974490de6aa","resource":{"resourceType":"MeasureReport","id":"78248929-7e2a-469f-ad73-1974490de6aa","meta":{"profile":["http://hl7.org/fhir/us/cqfmeasures/StructureDefinition/test-case-cqfm"]},"contained":[{"resourceType":"Parameters","id":"3c25b633-4bf8-41dc-8552-347d805e1a02-parameters","parameter":[{"name":"subject","valueString":"2692f4bd-5abf-4565-873e-7cced05eaece"}]}],"extension":[{"url":"http://hl7.org/fhir/us/cqfmeasures/StructureDefinition/cqfm-inputParameters","valueReference":{"reference":"#3c25b633-4bf8-41dc-8552-347d805e1a02-parameters"}},{"url":"http://hl7.org/fhir/us/cqfmeasures/StructureDefinition/cqfm-testCaseDescription","valueMarkdown":"vfp and unfractionated order not done due to medical reason on 1 day After ICU\n"}],"modifierExtension":[{"url":"http://hl7.org/fhir/us/cqfmeasures/StructureDefinition/cqfm-isTestCase","valueBoolean":true}],"status":"complete","type":"individual","measure":"https://madie.cms.gov/Measure/IntensiveCareUnitVenousThromboembolismProphylaxisFHIR","period":{"start":"2025-01-01","end":"2025-12-31"},"group":[{"population":[{"code":{"coding":[{"system":"http://terminology.hl7.org/CodeSystem/measure-population","code":"initial-population","display":"Initial Population"}]},"count":1},{"code":{"coding":[{"system":"http://terminology.hl7.org/CodeSystem/measure-population","code":"denominator","display":"Denominator"}]},"count":1},{"code":{"coding":[{"system":"http://terminology.hl7.org/CodeSystem/measure-population","code":"denominator-exclusion","display":"Denominator Exclusion"}]},"count":0},{"code":{"coding":[{"system":"http://terminology.hl7.org/CodeSystem/measure-population","code":"numerator","display":"Numerator"}]},"count":1},{"code":{"coding":[{"system":"http://terminology.hl7.org/CodeSystem/measure-population","code":"denominator-exception","display":"Denominator Exception"}]},"count":0}]}]},"request":{"method":"PUT","url":"MeasureReport/78248929-7e2a-469f-ad73-1974490de6aa"}}]}