{"resourceType":"Bundle","id":"tests-4ad66db5-d557-4199-9b82-dfd9cc013c9f-bundle","type":"transaction","entry":[{"fullUrl":"https://madie.cms.gov/Patient/4ad66db5-d557-4199-9b82-dfd9cc013c9f","resource":{"resourceType":"Patient","id":"4ad66db5-d557-4199-9b82-dfd9cc013c9f","meta":{"profile":["http://hl7.org/fhir/us/qicore/StructureDefinition/qicore-patient"]},"text":{"status":"generated","div":"<div xmlns=\"http://www.w3.org/1999/xhtml\"><div class=\"hapiHeaderText\">PtRefDOGCSMedReasonMALDUHOnEDEnd <b>NUMERPASS </b></div><table class=\"hapiPropertyTable\"><tbody><tr><td>Identifier</td><td>24fc1ce85ce14557dd4d9eba17df9f17</td></tr><tr><td>Date of birth</td><td><span>02 January 1974</span></td></tr></tbody></table></div>"},"extension":[{"url":"http://hl7.org/fhir/us/core/StructureDefinition/us-core-race","extension":[{"url":"ombCategory","valueCoding":{"system":"urn:oid:2.16.840.1.113883.6.238","code":"1002-5","display":"American Indian or Alaska Native","userSelected":true}},{"url":"text","valueString":"American Indian or Alaska Native"}]},{"url":"http://hl7.org/fhir/us/core/StructureDefinition/us-core-ethnicity","extension":[{"url":"ombCategory","valueCoding":{"system":"urn:oid:2.16.840.1.113883.6.238","code":"2135-2","display":"Hispanic or Latino","userSelected":true}},{"url":"text","valueString":"Hispanic or Latino"}]}],"identifier":[{"type":{"coding":[{"system":"http://terminology.hl7.org/CodeSystem/v2-0203","code":"MR"}]},"system":"https://bonnie-fhir.healthit.gov/","value":"612e6a7002c62a011f2ea15f"}],"active":true,"name":[{"use":"usual","family":"NUMERPass","given":["PtRefDOGCSMedReasonMALDUHOnEDEnd"]}],"gender":"male","birthDate":"1974-01-02"},"request":{"method":"PUT","url":"Patient/4ad66db5-d557-4199-9b82-dfd9cc013c9f"}},{"fullUrl":"https://madie.cms.gov/Encounter/5ca62960b8484628b8de1e50","resource":{"resourceType":"Encounter","id":"d77d883a-3c99-49fc-b9b6-9e6c99d529ff","meta":{"profile":["http://hl7.org/fhir/us/qicore/StructureDefinition/qicore-encounter"]},"status":"finished","class":{"system":"http://terminology.hl7.org/CodeSystem/v3-ActCode","code":"EMER","display":"emergency"},"type":[{"coding":[{"system":"http://snomed.info/sct","code":"4525004"}]}],"subject":{"reference":"Patient/4ad66db5-d557-4199-9b82-dfd9cc013c9f"},"period":{"start":"2025-10-31T05:00:00+00:00","end":"2025-11-01T07:15:00+00:00"},"length":{"value":1,"unit":"days"}},"request":{"method":"PUT","url":"Encounter/d77d883a-3c99-49fc-b9b6-9e6c99d529ff"}},{"fullUrl":"https://madie.cms.gov/Encounter/5ca6295eb8484628b8de1d83","resource":{"resourceType":"Encounter","id":"5abc1195-75f4-4662-b7da-1a071b61e4ff","meta":{"profile":["http://hl7.org/fhir/us/qicore/StructureDefinition/qicore-encounter"]},"status":"finished","class":{"system":"http://terminology.hl7.org/CodeSystem/v3-ActCode","code":"IMP","display":"inpatient encounter"},"type":[{"coding":[{"system":"http://snomed.info/sct","code":"8715000"}]}],"subject":{"reference":"Patient/4ad66db5-d557-4199-9b82-dfd9cc013c9f"},"period":{"start":"2025-11-01T08:00:00+00:00","end":"2025-11-26T08:15:00+00:00"},"length":{"value":25,"unit":"days"},"location":[{"location":{"reference":"Location/Location-1"},"period":{"start":"2025-11-03T09:00:00.000+00:00","end":"2025-11-05T08:15:00.000+00:00"}}]},"request":{"method":"PUT","url":"Encounter/5abc1195-75f4-4662-b7da-1a071b61e4ff"}},{"fullUrl":"https://madie.cms.gov/Coverage/5fa0414d1c76ba66d99591ba","resource":{"resourceType":"Coverage","id":"d48a22f0-53b3-4da2-a53b-2cf7a7734d3a","status":"active","beneficiary":{"reference":"Patient/4ad66db5-d557-4199-9b82-dfd9cc013c9f"},"period":{"start":"1974-01-02T08:00:00+00:00"},"payor":[{"reference":"Organization/26111c91-b0e2-476c-a20b-e3f39799f8f5"}]},"request":{"method":"PUT","url":"Coverage/d48a22f0-53b3-4da2-a53b-2cf7a7734d3a"}},{"fullUrl":"https://madie.cms.gov/ServiceRequest/graduated-compression-stockings-gcs-24f9","resource":{"resourceType":"ServiceRequest","id":"464ba9d2-2e70-4c51-ab55-886f66dd8ac1","meta":{"profile":["http://hl7.org/fhir/us/qicore/StructureDefinition/qicore-servicenotrequested"]},"extension":[{"url":"http://hl7.org/fhir/us/qicore/StructureDefinition/qicore-doNotPerformReason","valueCodeableConcept":{"coding":[{"system":"http://snomed.info/sct","code":"443390004","display":"Refusal of treatment by patient (situation)"}]}}],"status":"completed","intent":"order","doNotPerform":true,"code":{"coding":[{"system":"http://snomed.info/sct","version":"2025-03","code":"348681001","display":"Graduated compression elastic hosiery (physical object)","userSelected":true}]},"subject":{"reference":"Patient/4ad66db5-d557-4199-9b82-dfd9cc013c9f"},"authoredOn":"2025-11-01T07:15:00+00:00"},"request":{"method":"PUT","url":"ServiceRequest/464ba9d2-2e70-4c51-ab55-886f66dd8ac1"}},{"fullUrl":"https://madie.cms.gov/MedicationAdministration/5ca6295fb8484628b8de1ddb","resource":{"resourceType":"MedicationAdministration","id":"d9b95729-2c39-4ef4-afaf-f27e8091ef68","meta":{"profile":["http://hl7.org/fhir/us/qicore/StructureDefinition/qicore-mednotadministered"]},"extension":[{"url":"http://hl7.org/fhir/us/qicore/StructureDefinition/qicore-recorded","valueDateTime":"2025-11-02T11:00:00+00:00"}],"status":"not-done","statusReason":[{"coding":[{"system":"http://snomed.info/sct","code":"183932001"}]}],"medicationCodeableConcept":{"coding":[{"system":"http://www.nlm.nih.gov/research/umls/rxnorm","code":"1361574"}]},"subject":{"reference":"Patient/4ad66db5-d557-4199-9b82-dfd9cc013c9f"},"effectivePeriod":{"start":"2025-11-02T11:00:00+00:00"}},"request":{"method":"PUT","url":"MedicationAdministration/d9b95729-2c39-4ef4-afaf-f27e8091ef68"}},{"fullUrl":"https://madie.cms.gov/Location/Location-1","resource":{"resourceType":"Location","id":"fc003b82-7ca2-4743-af3b-f44673e47db7","meta":{"profile":["http://hl7.org/fhir/us/qicore/StructureDefinition/qicore-location"]},"identifier":[{"use":"usual","system":"http://exampleoflocation.com","value":"B1-S.F2"}],"name":"Medical Surgical East, first floor","type":[{"coding":[{"system":"https://www.cdc.gov/nhsn/cdaportal/terminology/codesystem/hsloc.html","code":"1025-6","display":"Trauma Critical Care","userSelected":true}]}]},"request":{"method":"PUT","url":"Location/fc003b82-7ca2-4743-af3b-f44673e47db7"}},{"fullUrl":"https://madie.cms.gov/Organization/123456","resource":{"resourceType":"Organization","id":"26111c91-b0e2-476c-a20b-e3f39799f8f5","meta":{"profile":["http://hl7.org/fhir/us/qicore/StructureDefinition/qicore-organization"]},"identifier":[{"use":"temp","system":"urn:oid:2.16.840.1.113883.4.4","value":"21-3259825"}],"active":true,"type":[{"coding":[{"system":"http://terminology.hl7.org/CodeSystem/organization-type","code":"pay","display":"Payer"}]}],"name":"Blue Cross Blue Shield of Texas","telecom":[{"system":"phone","value":"(+1) 972-766-6900"}],"address":[{"use":"billing","type":"postal","line":["P.O. Box 660044"],"city":"Dallas","state":"TX","postalCode":"75266-0044","country":"USA"}]},"request":{"method":"PUT","url":"Organization/26111c91-b0e2-476c-a20b-e3f39799f8f5"}},{"fullUrl":"https://madie.cms.gov/Practitioner/practitioner-123456","resource":{"resourceType":"Practitioner","id":"f760bcc3-2c34-432d-a3df-78bf9c7efa75","identifier":[{"system":"http://hl7.org/fhir/sid/us-npi","value":"123456"}],"name":[{"family":"Evil","prefix":["Dr"]}]},"request":{"method":"PUT","url":"Practitioner/f760bcc3-2c34-432d-a3df-78bf9c7efa75"}},{"fullUrl":"https://madie.cms.gov/MeasureReport/aef2c6fa-8cc3-4afa-8079-fedb4d8a1130","resource":{"resourceType":"MeasureReport","id":"aef2c6fa-8cc3-4afa-8079-fedb4d8a1130","meta":{"profile":["http://hl7.org/fhir/us/cqfmeasures/StructureDefinition/test-case-cqfm"]},"contained":[{"resourceType":"Parameters","id":"f078059c-8e53-4e88-9bb0-327e087ebfd0-parameters","parameter":[{"name":"subject","valueString":"4ad66db5-d557-4199-9b82-dfd9cc013c9f"}]}],"extension":[{"url":"http://hl7.org/fhir/us/cqfmeasures/StructureDefinition/cqfm-inputParameters","valueReference":{"reference":"#f078059c-8e53-4e88-9bb0-327e087ebfd0-parameters"}},{"url":"http://hl7.org/fhir/us/cqfmeasures/StructureDefinition/cqfm-testCaseDescription","valueMarkdown":"meets IPP, meets Denominator, GCS ordered not done PatRfsl and Unfractionated Heparin not done MedRsn - on ED EndTime\n"}],"modifierExtension":[{"url":"http://hl7.org/fhir/us/cqfmeasures/StructureDefinition/cqfm-isTestCase","valueBoolean":true}],"status":"complete","type":"individual","measure":"https://madie.cms.gov/Measure/IntensiveCareUnitVenousThromboembolismProphylaxisFHIR","period":{"start":"2025-01-01","end":"2025-12-31"},"group":[{"population":[{"code":{"coding":[{"system":"http://terminology.hl7.org/CodeSystem/measure-population","code":"initial-population","display":"Initial Population"}]},"count":1},{"code":{"coding":[{"system":"http://terminology.hl7.org/CodeSystem/measure-population","code":"denominator","display":"Denominator"}]},"count":1},{"code":{"coding":[{"system":"http://terminology.hl7.org/CodeSystem/measure-population","code":"denominator-exclusion","display":"Denominator Exclusion"}]},"count":0},{"code":{"coding":[{"system":"http://terminology.hl7.org/CodeSystem/measure-population","code":"numerator","display":"Numerator"}]},"count":1},{"code":{"coding":[{"system":"http://terminology.hl7.org/CodeSystem/measure-population","code":"denominator-exception","display":"Denominator Exception"}]},"count":0}]}]},"request":{"method":"PUT","url":"MeasureReport/aef2c6fa-8cc3-4afa-8079-fedb4d8a1130"}}]}