{
  "resourceType": "Bundle",
  "id": "DENEXFail-PalliativeCareSurveyStatusNotFinal",
  "type": "transaction",
  "entry": [ {
    "fullUrl": "https://madie.cms.gov/Patient/dbead888-2672-453c-8005-d4b9f62b72c9",
    "resource": {
      "resourceType": "Patient",
      "id": "dbead888-2672-453c-8005-d4b9f62b72c9",
      "meta": {
        "profile": [ "http://hl7.org/fhir/us/qicore/StructureDefinition/qicore-patient" ]
      },
      "extension": [ {
        "url": "http://hl7.org/fhir/us/core/StructureDefinition/us-core-race",
        "extension": [ {
          "url": "ombCategory",
          "valueCoding": {
            "system": "urn:oid:2.16.840.1.113883.6.238",
            "code": "2028-9",
            "display": "Asian"
          }
        }, {
          "url": "text",
          "valueString": "Asian"
        } ]
      }, {
        "url": "http://hl7.org/fhir/us/core/StructureDefinition/us-core-ethnicity",
        "extension": [ {
          "url": "ombCategory",
          "valueCoding": {
            "system": "urn:oid:2.16.840.1.113883.6.238",
            "code": "2135-2",
            "display": "Hispanic or Latino"
          }
        }, {
          "url": "text",
          "valueString": "Hispanic or Latino"
        } ]
      } ],
      "identifier": [ {
        "system": "http://hospital.smarthealthit.org",
        "value": "999999995"
      } ],
      "name": [ {
        "family": "Bertha",
        "given": [ "Betty" ]
      } ],
      "gender": "female",
      "birthDate": "1979-12-31"
    },
    "request": {
      "method": "POST",
      "url": "Patient/dbead888-2672-453c-8005-d4b9f62b72c9"
    }
  }, {
    "fullUrl": "https://madie.cms.gov/Encounter/Encounter-12",
    "resource": {
      "resourceType": "Encounter",
      "id": "Encounter-12",
      "meta": {
        "profile": [ "http://hl7.org/fhir/us/qicore/StructureDefinition/qicore-encounter" ]
      },
      "status": "finished",
      "class": {
        "system": "http://terminology.hl7.org/CodeSystem/v3-ActCode",
        "code": "AMB",
        "display": "ambulatory"
      },
      "type": [ {
        "coding": [ {
          "system": "http://snomed.info/sct",
          "code": "3391000175108",
          "display": "Office visit for pediatric care and assessment (procedure)"
        } ]
      } ],
      "subject": {
        "reference": "Patient/dbead888-2672-453c-8005-d4b9f62b72c9"
      },
      "period": {
        "start": "2025-01-01T00:00:00.000Z",
        "end": "2025-01-01T01:00:00.000Z"
      }
    },
    "request": {
      "method": "POST",
      "url": "Encounter/Encounter-12"
    }
  }, {
    "fullUrl": "https://madie.cms.gov/Observation/Observation-5",
    "resource": {
      "resourceType": "Observation",
      "id": "Observation-5",
      "meta": {
        "profile": [ "http://hl7.org/fhir/us/qicore/StructureDefinition/qicore-observation" ]
      },
      "status": "entered-in-error",
      "category": [ {
        "coding": [ {
          "system": "http://terminology.hl7.org/CodeSystem/observation-category",
          "code": "survey"
        } ]
      } ],
      "code": {
        "coding": [ {
          "system": "http://loinc.org",
          "code": "71007-9",
          "display": "Functional Assessment of Chronic Illness Therapy - Palliative Care Questionnaire (FACIT-Pal)"
        } ]
      },
      "subject": {
        "reference": "Patient/dbead888-2672-453c-8005-d4b9f62b72c9"
      },
      "effectivePeriod": {
        "start": "2024-12-31T00:00:00.000Z",
        "end": "2025-01-01T01:00:00.000Z"
      },
      "valueCodeableConcept": {
        "coding": [ {
          "system": "http://snomed.info/sct",
          "code": "373066001",
          "display": "Yes (qualifier value)"
        } ]
      }
    },
    "request": {
      "method": "POST",
      "url": "Observation/Observation-5"
    }
  }, {
    "fullUrl": "https://madie.cms.gov/MeasureReport/345f4e87-0723-4b97-a91f-de7142df71a6",
    "resource": {
      "resourceType": "MeasureReport",
      "id": "345f4e87-0723-4b97-a91f-de7142df71a6",
      "meta": {
        "profile": [ "http://hl7.org/fhir/us/cqfmeasures/StructureDefinition/test-case-cqfm" ]
      },
      "contained": [ {
        "resourceType": "Parameters",
        "id": "70a6df6d-2219-47d7-97a7-f159187b0fbb-parameters",
        "parameter": [ {
          "name": "subject",
          "valueString": "dbead888-2672-453c-8005-d4b9f62b72c9"
        } ]
      } ],
      "extension": [ {
        "url": "http://hl7.org/fhir/us/cqfmeasures/StructureDefinition/cqfm-inputParameters",
        "valueReference": {
          "reference": "#70a6df6d-2219-47d7-97a7-f159187b0fbb-parameters"
        }
      }, {
        "url": "http://hl7.org/fhir/us/cqfmeasures/StructureDefinition/cqfm-testCaseDescription",
        "valueMarkdown": "Patient has a palliative care survery with an incorrect status. "
      } ],
      "modifierExtension": [ {
        "url": "http://hl7.org/fhir/us/cqfmeasures/StructureDefinition/cqfm-isTestCase",
        "valueBoolean": true
      } ],
      "status": "complete",
      "type": "individual",
      "measure": "https://madie.cms.gov/Measure/ColonCancerScreeningFHIR",
      "period": {
        "start": "2025-01-01",
        "end": "2025-12-31"
      },
      "group": [ {
        "population": [ {
          "code": {
            "coding": [ {
              "system": "http://terminology.hl7.org/CodeSystem/measure-population",
              "code": "initial-population",
              "display": "Initial Population"
            } ]
          },
          "count": 1
        }, {
          "code": {
            "coding": [ {
              "system": "http://terminology.hl7.org/CodeSystem/measure-population",
              "code": "denominator",
              "display": "Denominator"
            } ]
          },
          "count": 1
        }, {
          "code": {
            "coding": [ {
              "system": "http://terminology.hl7.org/CodeSystem/measure-population",
              "code": "denominator-exclusion",
              "display": "Denominator Exclusion"
            } ]
          },
          "count": 0
        }, {
          "code": {
            "coding": [ {
              "system": "http://terminology.hl7.org/CodeSystem/measure-population",
              "code": "numerator",
              "display": "Numerator"
            } ]
          },
          "count": 0
        } ]
      } ],
      "evaluatedResource": [ {
        "reference": "https://madie.cms.gov/Patient/dbead888-2672-453c-8005-d4b9f62b72c9"
      }, {
        "reference": "https://madie.cms.gov/Encounter/Encounter-12"
      }, {
        "reference": "https://madie.cms.gov/Observation/Observation-5"
      } ]
    },
    "request": {
      "method": "POST",
      "url": "MeasureReport/345f4e87-0723-4b97-a91f-de7142df71a6"
    }
  } ]
}