{
  "resourceType": "Bundle",
  "id": "6298e96c5c5f0f80c3806878",
  "type": "transaction",
  "entry": [ {
    "fullUrl": "https://madie.cms.gov/Patient/c2e1dce3-82c4-463f-91a1-c0556f1206b9",
    "resource": {
      "resourceType": "Patient",
      "id": "c2e1dce3-82c4-463f-91a1-c0556f1206b9",
      "meta": {
        "profile": [ "http://hl7.org/fhir/us/qicore/StructureDefinition/qicore-patient" ]
      },
      "extension": [ {
        "url": "http://hl7.org/fhir/us/core/StructureDefinition/us-core-race",
        "extension": [ {
          "url": "ombCategory",
          "valueCoding": {
            "system": "urn:oid:2.16.840.1.113883.6.238",
            "code": "1002-5",
            "display": "American Indian or Alaska Native",
            "userSelected": true
          }
        }, {
          "url": "text",
          "valueString": "American Indian or Alaska Native"
        } ]
      }, {
        "url": "http://hl7.org/fhir/us/core/StructureDefinition/us-core-ethnicity",
        "extension": [ {
          "url": "ombCategory",
          "valueCoding": {
            "system": "urn:oid:2.16.840.1.113883.6.238",
            "code": "2135-2",
            "display": "Hispanic or Latino",
            "userSelected": true
          }
        }, {
          "url": "text",
          "valueString": "Hispanic or Latino"
        } ]
      } ],
      "identifier": [ {
        "type": {
          "coding": [ {
            "system": "http://terminology.hl7.org/CodeSystem/v2-0203",
            "code": "MR"
          } ]
        },
        "system": "https://bonnie-fhir.healthit.gov/",
        "value": "6298e96c5c5f0f80c3806878"
      } ],
      "name": [ {
        "family": "DENOMFail",
        "given": [ "CancerStagingNull" ]
      } ],
      "gender": "male",
      "birthDate": "1979-12-31"
    },
    "request": {
      "method": "POST",
      "url": "Patient/c2e1dce3-82c4-463f-91a1-c0556f1206b9"
    }
  }, {
    "fullUrl": "https://madie.cms.gov/Condition/prostate-cancer-a8d8",
    "resource": {
      "resourceType": "Condition",
      "id": "prostate-cancer-a8d8",
      "meta": {
        "profile": [ "http://hl7.org/fhir/us/qicore/StructureDefinition/qicore-condition" ]
      },
      "clinicalStatus": {
        "coding": [ {
          "system": "http://terminology.hl7.org/CodeSystem/condition-clinical",
          "code": "active",
          "display": "active",
          "userSelected": true
        } ]
      },
      "category": [ {
        "coding": [ {
          "system": "http://terminology.hl7.org/CodeSystem/condition-category",
          "code": "problem-list-item",
          "display": "Problem List Item"
        }, {
          "system": "http://snomed.info/sct",
          "code": "439401001",
          "display": "Diagnosis"
        } ]
      } ],
      "code": {
        "coding": [ {
          "system": "http://snomed.info/sct",
          "version": "2022-03",
          "code": "254900004",
          "display": "Carcinoma of prostate (disorder)",
          "userSelected": true
        } ]
      },
      "subject": {
        "reference": "Patient/c2e1dce3-82c4-463f-91a1-c0556f1206b9"
      },
      "onsetPeriod": {
        "start": "2007-06-14T08:00:00.000+00:00"
      }
    },
    "request": {
      "method": "POST",
      "url": "Condition/prostate-cancer-a8d8"
    }
  }, {
    "fullUrl": "https://madie.cms.gov/Procedure/prostate-cancer-treatment-a8d9",
    "resource": {
      "resourceType": "Procedure",
      "id": "prostate-cancer-treatment-a8d9",
      "meta": {
        "profile": [ "http://hl7.org/fhir/us/qicore/StructureDefinition/qicore-procedure" ]
      },
      "extension": [ {
        "url": "http://hl7.org/fhir/us/qicore/StructureDefinition/qicore-recorded",
        "valueDateTime": "2025-02-01T09:00:00.000+00:00"
      } ],
      "status": "completed",
      "code": {
        "coding": [ {
          "system": "http://snomed.info/sct",
          "version": "2022-03",
          "code": "10492003",
          "display": "Radionuclide therapy for glandular suppression (procedure)",
          "userSelected": true
        } ]
      },
      "subject": {
        "reference": "Patient/c2e1dce3-82c4-463f-91a1-c0556f1206b9"
      },
      "performedDateTime": "2025-04-28T08:00:00.000+00:00"
    },
    "request": {
      "method": "POST",
      "url": "Procedure/prostate-cancer-treatment-a8d9"
    }
  }, {
    "fullUrl": "https://madie.cms.gov/Observation/prostate-specific-antigen-test-a8db",
    "resource": {
      "resourceType": "Observation",
      "id": "prostate-specific-antigen-test-a8db",
      "meta": {
        "profile": [ "http://hl7.org/fhir/us/qicore/StructureDefinition/qicore-observation" ]
      },
      "status": "final",
      "category": [ {
        "coding": [ {
          "system": "http://terminology.hl7.org/CodeSystem/observation-category",
          "code": "procedure",
          "display": "Procedure"
        } ]
      } ],
      "code": {
        "coding": [ {
          "system": "http://loinc.org",
          "version": "2.72",
          "code": "10508-0",
          "display": "Prostate specific Ag [Presence] in Tissue by Immune stain",
          "userSelected": true
        } ]
      },
      "subject": {
        "reference": "Patient/c2e1dce3-82c4-463f-91a1-c0556f1206b9"
      },
      "effectiveDateTime": "2025-04-24T08:00:00.000+00:00",
      "valueQuantity": {
        "value": 8.0,
        "system": "http://unitsofmeasure.org",
        "code": "ng/mL"
      }
    },
    "request": {
      "method": "POST",
      "url": "Observation/prostate-specific-antigen-test-a8db"
    }
  }, {
    "fullUrl": "https://madie.cms.gov/Observation/gleason-score-in-specimen-qualitative-a8dc",
    "resource": {
      "resourceType": "Observation",
      "id": "gleason-score-in-specimen-qualitative-a8dc",
      "meta": {
        "profile": [ "http://hl7.org/fhir/us/qicore/StructureDefinition/qicore-observation" ]
      },
      "status": "final",
      "category": [ {
        "coding": [ {
          "system": "http://terminology.hl7.org/CodeSystem/observation-category",
          "code": "procedure",
          "display": "Procedure"
        } ]
      } ],
      "code": {
        "coding": [ {
          "system": "http://loinc.org",
          "code": "35266-6",
          "display": "Gleason score in Specimen Qualitative",
          "userSelected": true
        } ]
      },
      "subject": {
        "reference": "Patient/c2e1dce3-82c4-463f-91a1-c0556f1206b9"
      },
      "effectiveDateTime": "2025-01-02T08:00:00.000+00:00",
      "valueInteger": 5
    },
    "request": {
      "method": "POST",
      "url": "Observation/gleason-score-in-specimen-qualitative-a8dc"
    }
  }, {
    "fullUrl": "https://madie.cms.gov/Observation/bone-scan-5337",
    "resource": {
      "resourceType": "Observation",
      "id": "bone-scan-5337",
      "meta": {
        "profile": [ "http://hl7.org/fhir/us/qicore/StructureDefinition/qicore-observation" ]
      },
      "status": "final",
      "category": [ {
        "coding": [ {
          "system": "http://terminology.hl7.org/CodeSystem/observation-category",
          "code": "procedure",
          "display": "Procedure"
        } ]
      } ],
      "code": {
        "coding": [ {
          "system": "http://loinc.org",
          "version": "2.72",
          "code": "25031-6",
          "display": "NM Bone Views",
          "userSelected": true
        } ]
      },
      "subject": {
        "reference": "Patient/c2e1dce3-82c4-463f-91a1-c0556f1206b9"
      },
      "effectiveDateTime": "2025-08-17T08:00:00.000+00:00",
      "issued": "2025-08-17T08:00:00.000+00:00"
    },
    "request": {
      "method": "POST",
      "url": "Observation/bone-scan-5337"
    }
  }, {
    "fullUrl": "https://madie.cms.gov/Coverage/1",
    "resource": {
      "resourceType": "Coverage",
      "id": "1",
      "meta": {
        "profile": [ "http://hl7.org/fhir/us/qicore/StructureDefinition/qicore-coverage" ]
      },
      "status": "active",
      "beneficiary": {
        "reference": "Patient/c2e1dce3-82c4-463f-91a1-c0556f1206b9"
      },
      "payor": [ {
        "reference": "Organization/123456"
      } ]
    },
    "request": {
      "method": "POST",
      "url": "Coverage/1"
    }
  }, {
    "fullUrl": "https://madie.cms.gov/Organization/123456",
    "resource": {
      "resourceType": "Organization",
      "id": "123456",
      "meta": {
        "profile": [ "http://hl7.org/fhir/us/qicore/StructureDefinition/qicore-organization" ]
      },
      "identifier": [ {
        "use": "temp",
        "system": "urn:oid:2.16.840.1.113883.4.4",
        "value": "21-3259825"
      } ],
      "active": true,
      "type": [ {
        "coding": [ {
          "system": "http://terminology.hl7.org/CodeSystem/organization-type",
          "code": "pay",
          "display": "Payer"
        } ]
      } ],
      "name": "Blue Cross Blue Shield of Texas",
      "telecom": [ {
        "system": "phone",
        "value": "(+1) 972-766-6900"
      } ],
      "address": [ {
        "use": "billing",
        "type": "postal",
        "line": [ "P.O. Box 660044" ],
        "city": "Dallas",
        "state": "TX",
        "postalCode": "75266-0044",
        "country": "USA"
      } ]
    },
    "request": {
      "method": "POST",
      "url": "Organization/123456"
    }
  }, {
    "fullUrl": "https://madie.cms.gov/Practitioner/practitioner-123456",
    "resource": {
      "resourceType": "Practitioner",
      "id": "practitioner-123456",
      "meta": {
        "profile": [ "http://hl7.org/fhir/us/qicore/StructureDefinition/qicore-practitioner" ]
      },
      "identifier": [ {
        "system": "http://hl7.org/fhir/sid/us-npi",
        "value": "123456"
      } ],
      "name": [ {
        "family": "Evil",
        "prefix": [ "Dr" ]
      } ]
    },
    "request": {
      "method": "POST",
      "url": "Practitioner/practitioner-123456"
    }
  }, {
    "fullUrl": "https://madie.cms.gov/MeasureReport/ac39dd7f-abee-4e69-a094-6c292d2a5dbb",
    "resource": {
      "resourceType": "MeasureReport",
      "id": "ac39dd7f-abee-4e69-a094-6c292d2a5dbb",
      "meta": {
        "profile": [ "http://hl7.org/fhir/us/cqfmeasures/StructureDefinition/test-case-cqfm" ]
      },
      "contained": [ {
        "resourceType": "Parameters",
        "id": "f2842c85-a64f-4a30-9205-4f69915a221c-parameters",
        "parameter": [ {
          "name": "subject",
          "valueString": "c2e1dce3-82c4-463f-91a1-c0556f1206b9"
        } ]
      } ],
      "extension": [ {
        "url": "http://hl7.org/fhir/us/cqfmeasures/StructureDefinition/cqfm-inputParameters",
        "valueReference": {
          "reference": "#f2842c85-a64f-4a30-9205-4f69915a221c-parameters"
        }
      }, {
        "url": "http://hl7.org/fhir/us/cqfmeasures/StructureDefinition/cqfm-testCaseDescription",
        "valueMarkdown": "No cancer staging performed"
      } ],
      "modifierExtension": [ {
        "url": "http://hl7.org/fhir/us/cqfmeasures/StructureDefinition/cqfm-isTestCase",
        "valueBoolean": true
      } ],
      "status": "complete",
      "type": "individual",
      "measure": "https://madie.cms.gov/Measure/ProstateCaAvoidanceBoneScanOveruseFHIR",
      "period": {
        "start": "2025-01-01",
        "end": "2025-12-31"
      },
      "group": [ {
        "population": [ {
          "code": {
            "coding": [ {
              "system": "http://terminology.hl7.org/CodeSystem/measure-population",
              "code": "initial-population",
              "display": "Initial Population"
            } ]
          },
          "count": 1
        }, {
          "code": {
            "coding": [ {
              "system": "http://terminology.hl7.org/CodeSystem/measure-population",
              "code": "denominator",
              "display": "Denominator"
            } ]
          },
          "count": 0
        }, {
          "code": {
            "coding": [ {
              "system": "http://terminology.hl7.org/CodeSystem/measure-population",
              "code": "numerator",
              "display": "Numerator"
            } ]
          },
          "count": 0
        }, {
          "code": {
            "coding": [ {
              "system": "http://terminology.hl7.org/CodeSystem/measure-population",
              "code": "denominator-exception",
              "display": "Denominator Exception"
            } ]
          },
          "count": 0
        } ]
      } ],
      "evaluatedResource": [ {
        "reference": "https://madie.cms.gov/Patient/c2e1dce3-82c4-463f-91a1-c0556f1206b9"
      }, {
        "reference": "https://madie.cms.gov/Condition/prostate-cancer-a8d8"
      }, {
        "reference": "https://madie.cms.gov/Procedure/prostate-cancer-treatment-a8d9"
      }, {
        "reference": "https://madie.cms.gov/Observation/prostate-specific-antigen-test-a8db"
      }, {
        "reference": "https://madie.cms.gov/Observation/gleason-score-in-specimen-qualitative-a8dc"
      }, {
        "reference": "https://madie.cms.gov/Observation/bone-scan-5337"
      }, {
        "reference": "https://madie.cms.gov/Coverage/1"
      }, {
        "reference": "https://madie.cms.gov/Organization/123456"
      }, {
        "reference": "https://madie.cms.gov/Practitioner/practitioner-123456"
      } ]
    },
    "request": {
      "method": "POST",
      "url": "MeasureReport/ac39dd7f-abee-4e69-a094-6c292d2a5dbb"
    }
  } ]
}