{
  "resourceType": "Bundle",
  "id": "1649825796786796434652",
  "type": "transaction",
  "entry": [ {
    "fullUrl": "https://madie.cms.gov/Patient/2dbbdad5-c2dd-42a4-9f6d-f8815bc89a0a",
    "resource": {
      "resourceType": "Patient",
      "id": "2dbbdad5-c2dd-42a4-9f6d-f8815bc89a0a",
      "meta": {
        "profile": [ "http://hl7.org/fhir/us/qicore/StructureDefinition/qicore-patient" ]
      },
      "extension": [ {
        "url": "http://hl7.org/fhir/us/core/StructureDefinition/us-core-race",
        "extension": [ {
          "url": "ombCategory",
          "valueCoding": {
            "system": "urn:oid:2.16.840.1.113883.6.238",
            "code": "1002-5",
            "display": "American Indian or Alaska Native"
          }
        }, {
          "url": "text",
          "valueString": "American Indian or Alaska Native"
        } ]
      }, {
        "url": "http://hl7.org/fhir/us/core/StructureDefinition/us-core-ethnicity",
        "extension": [ {
          "url": "ombCategory",
          "valueCoding": {
            "system": "urn:oid:2.16.840.1.113883.6.238",
            "code": "2186-5",
            "display": "Not Hispanic or Latino"
          }
        }, {
          "url": "text",
          "valueString": "Not Hispanic or Latino"
        } ]
      } ],
      "identifier": [ {
        "type": {
          "coding": [ {
            "system": "http://terminology.hl7.org/CodeSystem/v2-0203",
            "code": "MR"
          } ]
        },
        "system": "https://bonnie-fhir.healthit.gov/",
        "value": "16516874684351341"
      } ],
      "active": true,
      "name": [ {
        "use": "usual",
        "family": "DENEXCEPPop2Pass",
        "given": [ "Hypotension" ]
      } ],
      "gender": "female",
      "birthDate": "1934-03-24"
    },
    "request": {
      "method": "POST",
      "url": "Patient/2dbbdad5-c2dd-42a4-9f6d-f8815bc89a0a"
    }
  }, {
    "fullUrl": "https://madie.cms.gov/Encounter/215265538534635856",
    "resource": {
      "resourceType": "Encounter",
      "id": "215265538534635856",
      "meta": {
        "profile": [ "http://hl7.org/fhir/us/qicore/StructureDefinition/qicore-encounter" ]
      },
      "status": "finished",
      "class": {
        "system": "http://terminology.hl7.org/CodeSystem/v3-ActCode",
        "code": "AMB",
        "display": "ambulatory encounter"
      },
      "type": [ {
        "coding": [ {
          "system": "http://www.ama-assn.org/go/cpt",
          "version": "2024",
          "code": "99205"
        } ]
      } ],
      "subject": {
        "reference": "Patient/2dbbdad5-c2dd-42a4-9f6d-f8815bc89a0a"
      },
      "period": {
        "start": "2025-04-05T06:00:00+00:00",
        "end": "2025-04-05T07:00:00+00:00"
      }
    },
    "request": {
      "method": "POST",
      "url": "Encounter/215265538534635856"
    }
  }, {
    "fullUrl": "https://madie.cms.gov/Encounter/51245324596978678",
    "resource": {
      "resourceType": "Encounter",
      "id": "51245324596978678",
      "meta": {
        "profile": [ "http://hl7.org/fhir/us/qicore/StructureDefinition/qicore-encounter" ]
      },
      "status": "finished",
      "class": {
        "system": "http://terminology.hl7.org/CodeSystem/v3-ActCode",
        "code": "AMB",
        "display": "ambulatory encounter"
      },
      "type": [ {
        "coding": [ {
          "system": "http://www.ama-assn.org/go/cpt",
          "version": "2024",
          "code": "99205"
        } ]
      } ],
      "subject": {
        "reference": "Patient/2dbbdad5-c2dd-42a4-9f6d-f8815bc89a0a"
      },
      "period": {
        "start": "2025-07-08T09:00:00+00:00",
        "end": "2025-07-08T09:00:00+00:00"
      }
    },
    "request": {
      "method": "POST",
      "url": "Encounter/51245324596978678"
    }
  }, {
    "fullUrl": "https://madie.cms.gov/Condition/5246574679563123",
    "resource": {
      "resourceType": "Condition",
      "id": "5246574679563123",
      "meta": {
        "profile": [ "http://hl7.org/fhir/us/qicore/StructureDefinition/qicore-condition" ]
      },
      "clinicalStatus": {
        "coding": [ {
          "system": "http://terminology.hl7.org/CodeSystem/condition-clinical",
          "code": "active",
          "display": "Active"
        } ]
      },
      "verificationStatus": {
        "coding": [ {
          "system": "http://terminology.hl7.org/CodeSystem/condition-ver-status",
          "code": "confirmed",
          "display": "Confirmed"
        } ]
      },
      "category": [ {
        "coding": [ {
          "system": "http://terminology.hl7.org/CodeSystem/condition-category",
          "code": "problem-list-item",
          "display": "Problem List Item"
        } ]
      } ],
      "code": {
        "coding": [ {
          "system": "http://hl7.org/fhir/sid/icd-10-cm",
          "version": "2024",
          "code": "I21.01"
        } ]
      },
      "subject": {
        "reference": "Patient/2dbbdad5-c2dd-42a4-9f6d-f8815bc89a0a"
      },
      "onsetPeriod": {
        "start": "2022-11-22T07:30:00+00:00",
        "end": "2022-11-22T08:30:00+00:00"
      }
    },
    "request": {
      "method": "POST",
      "url": "Condition/5246574679563123"
    }
  }, {
    "fullUrl": "https://madie.cms.gov/Condition/24645968563413468",
    "resource": {
      "resourceType": "Condition",
      "id": "24645968563413468",
      "meta": {
        "profile": [ "http://hl7.org/fhir/us/qicore/StructureDefinition/qicore-condition" ]
      },
      "clinicalStatus": {
        "coding": [ {
          "system": "http://terminology.hl7.org/CodeSystem/condition-clinical",
          "code": "active",
          "display": "Active"
        } ]
      },
      "verificationStatus": {
        "coding": [ {
          "system": "http://terminology.hl7.org/CodeSystem/condition-ver-status",
          "code": "confirmed"
        } ]
      },
      "category": [ {
        "coding": [ {
          "system": "http://terminology.hl7.org/CodeSystem/condition-category",
          "code": "problem-list-item",
          "display": "Problem List Item"
        } ]
      } ],
      "code": {
        "coding": [ {
          "system": "http://snomed.info/sct",
          "version": "http://snomed.info/sct/731000124108/version/20240301",
          "code": "10365005",
          "display": "Right main coronary artery thrombosis (disorder)"
        } ]
      },
      "subject": {
        "reference": "Patient/2dbbdad5-c2dd-42a4-9f6d-f8815bc89a0a"
      },
      "onsetPeriod": {
        "start": "2025-01-21T07:00:00.000+00:00"
      }
    },
    "request": {
      "method": "POST",
      "url": "Condition/24645968563413468"
    }
  }, {
    "fullUrl": "https://madie.cms.gov/Condition/161515452465465432",
    "resource": {
      "resourceType": "Condition",
      "id": "161515452465465432",
      "meta": {
        "profile": [ "http://hl7.org/fhir/us/qicore/StructureDefinition/qicore-condition" ]
      },
      "clinicalStatus": {
        "coding": [ {
          "system": "http://terminology.hl7.org/CodeSystem/condition-clinical",
          "code": "active",
          "display": "Active"
        } ]
      },
      "verificationStatus": {
        "coding": [ {
          "system": "http://terminology.hl7.org/CodeSystem/condition-ver-status",
          "code": "confirmed",
          "display": "Confirmed"
        } ]
      },
      "category": [ {
        "coding": [ {
          "system": "http://terminology.hl7.org/CodeSystem/condition-category",
          "code": "problem-list-item",
          "display": "Problem List Item"
        } ]
      } ],
      "code": {
        "coding": [ {
          "system": "http://snomed.info/sct",
          "version": "http://snomed.info/sct/731000124108/version/20240301",
          "code": "195506001",
          "display": "Idiopathic hypotension (disorder)"
        } ]
      },
      "subject": {
        "reference": "Patient/2dbbdad5-c2dd-42a4-9f6d-f8815bc89a0a"
      },
      "onsetPeriod": {
        "start": "2025-04-05T06:00:00.000+00:00"
      }
    },
    "request": {
      "method": "POST",
      "url": "Condition/161515452465465432"
    }
  }, {
    "fullUrl": "https://madie.cms.gov/MeasureReport/aa22ea75-4786-4926-896e-853a607c5e63",
    "resource": {
      "resourceType": "MeasureReport",
      "id": "aa22ea75-4786-4926-896e-853a607c5e63",
      "meta": {
        "profile": [ "http://hl7.org/fhir/us/cqfmeasures/StructureDefinition/test-case-cqfm" ]
      },
      "contained": [ {
        "resourceType": "Parameters",
        "id": "e4859344-1c25-4ccf-a150-d7a4c3c6e545-parameters",
        "parameter": [ {
          "name": "subject",
          "valueString": "2dbbdad5-c2dd-42a4-9f6d-f8815bc89a0a"
        } ]
      } ],
      "extension": [ {
        "url": "http://hl7.org/fhir/us/cqfmeasures/StructureDefinition/cqfm-inputParameters",
        "valueReference": {
          "reference": "#e4859344-1c25-4ccf-a150-d7a4c3c6e545-parameters"
        }
      }, {
        "url": "http://hl7.org/fhir/us/cqfmeasures/StructureDefinition/cqfm-testCaseDescription",
        "valueMarkdown": "Pt > 18, 2 visits in MP, MI onset > 2 years b4 MP, CAD onset during MP b4 1st visit, Hypotension onset during 1st visit"
      } ],
      "modifierExtension": [ {
        "url": "http://hl7.org/fhir/us/cqfmeasures/StructureDefinition/cqfm-isTestCase",
        "valueBoolean": true
      } ],
      "status": "complete",
      "type": "individual",
      "measure": "https://madie.cms.gov/Measure/CADBetaBlockerTherapyPriorMIorLVSDFHIR",
      "period": {
        "start": "2025-01-01",
        "end": "2025-12-31"
      },
      "group": [ {
        "population": [ {
          "code": {
            "coding": [ {
              "system": "http://terminology.hl7.org/CodeSystem/measure-population",
              "code": "initial-population",
              "display": "Initial Population"
            } ]
          },
          "count": 1
        }, {
          "code": {
            "coding": [ {
              "system": "http://terminology.hl7.org/CodeSystem/measure-population",
              "code": "denominator",
              "display": "Denominator"
            } ]
          },
          "count": 0
        }, {
          "code": {
            "coding": [ {
              "system": "http://terminology.hl7.org/CodeSystem/measure-population",
              "code": "numerator",
              "display": "Numerator"
            } ]
          },
          "count": 0
        }, {
          "code": {
            "coding": [ {
              "system": "http://terminology.hl7.org/CodeSystem/measure-population",
              "code": "denominator-exception",
              "display": "Denominator Exception"
            } ]
          },
          "count": 0
        } ]
      }, {
        "population": [ {
          "code": {
            "coding": [ {
              "system": "http://terminology.hl7.org/CodeSystem/measure-population",
              "code": "initial-population",
              "display": "Initial Population"
            } ]
          },
          "count": 1
        }, {
          "code": {
            "coding": [ {
              "system": "http://terminology.hl7.org/CodeSystem/measure-population",
              "code": "denominator",
              "display": "Denominator"
            } ]
          },
          "count": 1
        }, {
          "code": {
            "coding": [ {
              "system": "http://terminology.hl7.org/CodeSystem/measure-population",
              "code": "numerator",
              "display": "Numerator"
            } ]
          },
          "count": 0
        }, {
          "code": {
            "coding": [ {
              "system": "http://terminology.hl7.org/CodeSystem/measure-population",
              "code": "denominator-exception",
              "display": "Denominator Exception"
            } ]
          },
          "count": 1
        } ]
      } ],
      "evaluatedResource": [ {
        "reference": "https://madie.cms.gov/Patient/2dbbdad5-c2dd-42a4-9f6d-f8815bc89a0a"
      }, {
        "reference": "https://madie.cms.gov/Encounter/215265538534635856"
      }, {
        "reference": "https://madie.cms.gov/Encounter/51245324596978678"
      }, {
        "reference": "https://madie.cms.gov/Condition/5246574679563123"
      }, {
        "reference": "https://madie.cms.gov/Condition/24645968563413468"
      }, {
        "reference": "https://madie.cms.gov/Condition/161515452465465432"
      } ]
    },
    "request": {
      "method": "POST",
      "url": "MeasureReport/aa22ea75-4786-4926-896e-853a607c5e63"
    }
  } ]
}