{"resourceType":"Bundle","id":"tests-acb44fb3-b572-4dfd-891c-c8b2cc24e1b8-bundle","type":"transaction","entry":[{"fullUrl":"https://madie.cms.gov/Patient/acb44fb3-b572-4dfd-891c-c8b2cc24e1b8","resource":{"resourceType":"Patient","id":"acb44fb3-b572-4dfd-891c-c8b2cc24e1b8","meta":{"profile":["http://hl7.org/fhir/us/qicore/StructureDefinition/qicore-patient"]},"extension":[{"url":"http://hl7.org/fhir/us/core/StructureDefinition/us-core-race","extension":[{"url":"ombCategory","valueCoding":{"system":"urn:oid:2.16.840.1.113883.6.238","code":"2028-9","display":"Asian"}},{"url":"text","valueString":"Asian"}]},{"url":"http://hl7.org/fhir/us/core/StructureDefinition/us-core-ethnicity","extension":[{"url":"ombCategory","valueCoding":{"system":"urn:oid:2.16.840.1.113883.6.238","code":"2135-2","display":"Hispanic or Latino"}},{"url":"text","valueString":"Hispanic or Latino"}]}],"identifier":[{"system":"http://hospital.smarthealthit.org","value":"999999995"}],"name":[{"family":"Bertha","given":["Betty"]}],"gender":"female","birthDate":"2024-10-01"},"request":{"method":"PUT","url":"Patient/acb44fb3-b572-4dfd-891c-c8b2cc24e1b8"}},{"fullUrl":"https://madie.cms.gov/Encounter/Encounter-30","resource":{"resourceType":"Encounter","id":"f0d8b882-20ec-491a-91e7-4a5907716bf6","meta":{"profile":["http://hl7.org/fhir/us/qicore/StructureDefinition/qicore-encounter"]},"status":"finished","class":{"system":"http://terminology.hl7.org/CodeSystem/v3-ActCode","code":"AMB","display":"ambulatory"},"type":[{"coding":[{"system":"http://snomed.info/sct","code":"185317003","display":"Telephone encounter (procedure)"}]}],"subject":{"reference":"Patient/acb44fb3-b572-4dfd-891c-c8b2cc24e1b8"},"period":{"start":"2025-01-01T01:00:00.000Z","end":"2025-01-01T01:15:00.000Z"}},"request":{"method":"PUT","url":"Encounter/f0d8b882-20ec-491a-91e7-4a5907716bf6"}},{"fullUrl":"https://madie.cms.gov/Condition/Condition-27","resource":{"resourceType":"Condition","id":"7b1e737c-2e9f-4c0f-8aa4-5c6c817bbedf","meta":{"profile":["http://hl7.org/fhir/us/qicore/StructureDefinition/qicore-condition"]},"clinicalStatus":{"coding":[{"system":"http://terminology.hl7.org/CodeSystem/condition-clinical","code":"active"}]},"category":[{"coding":[{"system":"http://terminology.hl7.org/CodeSystem/condition-category","code":"problem-list-item","display":"Problem List Item"}]}],"code":{"coding":[{"system":"http://snomed.info/sct","code":"54398005","display":"Acute upper respiratory infection (disorder)"}]},"subject":{"reference":"Patient/acb44fb3-b572-4dfd-891c-c8b2cc24e1b8"},"onsetDateTime":"2025-01-01T01:00:00.000Z"},"request":{"method":"PUT","url":"Condition/7b1e737c-2e9f-4c0f-8aa4-5c6c817bbedf"}},{"fullUrl":"https://madie.cms.gov/Encounter/Encounter-31","resource":{"resourceType":"Encounter","id":"97e592a1-cb19-49e2-bcf7-1ac3c3a49c17","meta":{"profile":["http://hl7.org/fhir/us/qicore/StructureDefinition/qicore-encounter"]},"status":"finished","class":{"system":"http://terminology.hl7.org/CodeSystem/v3-ActCode","code":"AMB","display":"ambulatory"},"type":[{"coding":[{"system":"http://snomed.info/sct","code":"32485007","display":"Hospital admission (procedure)"}]}],"subject":{"reference":"Patient/acb44fb3-b572-4dfd-891c-c8b2cc24e1b8"},"period":{"start":"2024-12-31T23:59:59.000Z","end":"2025-01-01T01:00:00.000Z"},"hospitalization":{"dischargeDisposition":{"coding":[{"system":"http://snomed.info/sct","code":"428371000124100","display":"Discharge to healthcare facility for hospice care (procedure)"}]}}},"request":{"method":"PUT","url":"Encounter/97e592a1-cb19-49e2-bcf7-1ac3c3a49c17"}},{"fullUrl":"https://madie.cms.gov/MeasureReport/d228021a-4001-4837-8fee-1acf4c5848ca","resource":{"resourceType":"MeasureReport","id":"d228021a-4001-4837-8fee-1acf4c5848ca","meta":{"profile":["http://hl7.org/fhir/us/cqfmeasures/StructureDefinition/test-case-cqfm"]},"contained":[{"resourceType":"Parameters","id":"5d1302e2-0302-488b-b06c-1b36aa553638-parameters","parameter":[{"name":"subject","valueString":"acb44fb3-b572-4dfd-891c-c8b2cc24e1b8"}]}],"extension":[{"url":"http://hl7.org/fhir/us/cqfmeasures/StructureDefinition/cqfm-inputParameters","valueReference":{"reference":"#5d1302e2-0302-488b-b06c-1b36aa553638-parameters"}},{"url":"http://hl7.org/fhir/us/cqfmeasures/StructureDefinition/cqfm-testCaseDescription","valueMarkdown":"Hospice discharge during MP"}],"modifierExtension":[{"url":"http://hl7.org/fhir/us/cqfmeasures/StructureDefinition/cqfm-isTestCase","valueBoolean":true}],"status":"complete","type":"individual","measure":"https://madie.cms.gov/Measure/AppropriateTreatmentforUpperRespiratoryInfectionURIFHIR","period":{"start":"2025-01-01","end":"2025-12-31"},"group":[{"population":[{"code":{"coding":[{"system":"http://terminology.hl7.org/CodeSystem/measure-population","code":"initial-population","display":"Initial Population"}]},"count":1},{"code":{"coding":[{"system":"http://terminology.hl7.org/CodeSystem/measure-population","code":"denominator","display":"Denominator"}]},"count":1},{"code":{"coding":[{"system":"http://terminology.hl7.org/CodeSystem/measure-population","code":"denominator-exclusion","display":"Denominator Exclusion"}]},"count":1},{"code":{"coding":[{"system":"http://terminology.hl7.org/CodeSystem/measure-population","code":"numerator","display":"Numerator"}]},"count":0}]}]},"request":{"method":"PUT","url":"MeasureReport/d228021a-4001-4837-8fee-1acf4c5848ca"}}]}