{
  "resourceType": "Bundle",
  "id": "62c880ec0111a60120dc220d",
  "type": "transaction",
  "entry": [ {
    "fullUrl": "https://madie.cms.gov/Patient/28f57404-e619-4b1e-905f-5d89fffeffcd",
    "resource": {
      "resourceType": "Patient",
      "id": "28f57404-e619-4b1e-905f-5d89fffeffcd",
      "meta": {
        "profile": [ "http://hl7.org/fhir/us/qicore/StructureDefinition/qicore-patient" ]
      },
      "text": {
        "status": "generated",
        "div": "<div xmlns=\"http://www.w3.org/1999/xhtml\"><div class=\"hapiHeaderText\">TwiceDailyChemo<b>DENOMPASSPOP1</b></div><table class=\"hapiPropertyTable\"><tbody><tr><td>Date of birth</td><td><span>12 February 1978</span></td></tr></tbody></table></div>"
      },
      "extension": [ {
        "url": "http://hl7.org/fhir/us/core/StructureDefinition/us-core-race",
        "extension": [ {
          "url": "ombCategory",
          "valueCoding": {
            "system": "urn:oid:2.16.840.1.113883.6.238",
            "code": "1002-5",
            "display": "American Indian or Alaska Native",
            "userSelected": true
          }
        }, {
          "url": "text",
          "valueString": "American Indian or Alaska Native"
        } ]
      }, {
        "url": "http://hl7.org/fhir/us/core/StructureDefinition/us-core-ethnicity",
        "extension": [ {
          "url": "ombCategory",
          "valueCoding": {
            "system": "urn:oid:2.16.840.1.113883.6.238",
            "code": "2135-2",
            "display": "Hispanic or Latino",
            "userSelected": true
          }
        }, {
          "url": "text",
          "valueString": "Hispanic or Latino"
        } ]
      } ],
      "identifier": [ {
        "type": {
          "coding": [ {
            "system": "http://terminology.hl7.org/CodeSystem/v2-0203",
            "code": "MR"
          } ]
        },
        "system": "https://bonnie-fhir.healthit.gov/",
        "value": "62c880ec0111a60120dc220d"
      } ],
      "active": true,
      "name": [ {
        "use": "usual",
        "family": "DENOMFailPop1",
        "given": [ "TwiceDailyChemo" ]
      } ],
      "gender": "female",
      "birthDate": "1978-02-12"
    },
    "request": {
      "method": "POST",
      "url": "Patient/28f57404-e619-4b1e-905f-5d89fffeffcd"
    }
  }, {
    "fullUrl": "https://madie.cms.gov/Condition/602707c30df1fb00002a2a82",
    "resource": {
      "resourceType": "Condition",
      "id": "602707c30df1fb00002a2a82",
      "meta": {
        "profile": [ "http://hl7.org/fhir/us/qicore/StructureDefinition/qicore-condition" ]
      },
      "clinicalStatus": {
        "coding": [ {
          "system": "http://terminology.hl7.org/CodeSystem/condition-clinical",
          "code": "active",
          "display": "active",
          "userSelected": true
        } ]
      },
      "category": [ {
        "coding": [ {
          "system": "http://terminology.hl7.org/CodeSystem/condition-category",
          "code": "problem-list-item",
          "display": "Problem List Item"
        } ]
      } ],
      "code": {
        "coding": [ {
          "system": "http://snomed.info/sct",
          "code": "107691000119101"
        } ]
      },
      "subject": {
        "reference": "Patient/28f57404-e619-4b1e-905f-5d89fffeffcd"
      },
      "onsetDateTime": "2025-01-31T08:00:00.000Z"
    },
    "request": {
      "method": "POST",
      "url": "Condition/602707c30df1fb00002a2a82"
    }
  }, {
    "fullUrl": "https://madie.cms.gov/Encounter/602707d20df1fb00002a2aa4",
    "resource": {
      "resourceType": "Encounter",
      "id": "602707d20df1fb00002a2aa4",
      "meta": {
        "profile": [ "http://hl7.org/fhir/us/qicore/StructureDefinition/qicore-encounter" ]
      },
      "status": "finished",
      "class": {
        "system": "http://terminology.hl7.org/CodeSystem/v3-ActCode",
        "code": "AMB",
        "display": "ambulatory",
        "userSelected": true
      },
      "type": [ {
        "coding": [ {
          "system": "http://snomed.info/sct",
          "code": "185463005"
        } ]
      } ],
      "subject": {
        "reference": "Patient/28f57404-e619-4b1e-905f-5d89fffeffcd"
      },
      "period": {
        "start": "2025-01-31T08:00:00.000Z",
        "end": "2025-01-31T08:15:00.000Z"
      }
    },
    "request": {
      "method": "POST",
      "url": "Encounter/602707d20df1fb00002a2aa4"
    }
  }, {
    "fullUrl": "https://madie.cms.gov/Encounter/602707e10df1fb00002a2ac1",
    "resource": {
      "resourceType": "Encounter",
      "id": "602707e10df1fb00002a2ac1",
      "meta": {
        "profile": [ "http://hl7.org/fhir/us/qicore/StructureDefinition/qicore-encounter" ]
      },
      "status": "finished",
      "class": {
        "system": "http://terminology.hl7.org/CodeSystem/v3-ActCode",
        "code": "AMB",
        "display": "ambulatory",
        "userSelected": true
      },
      "type": [ {
        "coding": [ {
          "system": "http://snomed.info/sct",
          "code": "185463005"
        } ]
      } ],
      "subject": {
        "reference": "Patient/28f57404-e619-4b1e-905f-5d89fffeffcd"
      },
      "period": {
        "start": "2025-02-09T08:00:00.000Z",
        "end": "2025-02-09T08:15:00.000Z"
      }
    },
    "request": {
      "method": "POST",
      "url": "Encounter/602707e10df1fb00002a2ac1"
    }
  }, {
    "fullUrl": "https://madie.cms.gov/Coverage/61043692a2f9161878c53ab7",
    "resource": {
      "resourceType": "Coverage",
      "id": "61043692a2f9161878c53ab7",
      "meta": {
        "profile": [ "http://hl7.org/fhir/us/qicore/StructureDefinition/qicore-coverage" ]
      },
      "status": "active",
      "beneficiary": {
        "reference": "Patient/28f57404-e619-4b1e-905f-5d89fffeffcd"
      },
      "period": {
        "start": "1978-02-12T08:00:00.000Z"
      },
      "payor": [ {
        "reference": "Organization/123456"
      } ]
    },
    "request": {
      "method": "POST",
      "url": "Coverage/61043692a2f9161878c53ab7"
    }
  }, {
    "fullUrl": "https://madie.cms.gov/Procedure/602707fa0df1fb00002a2aeb",
    "resource": {
      "resourceType": "Procedure",
      "id": "602707fa0df1fb00002a2aeb",
      "meta": {
        "profile": [ "http://hl7.org/fhir/us/qicore/StructureDefinition/qicore-procedure" ]
      },
      "extension": [ {
        "url": "http://hl7.org/fhir/us/qicore/StructureDefinition/qicore-recorded",
        "valueDateTime": "2025-02-09T12:35:00.000Z"
      } ],
      "status": "completed",
      "code": {
        "coding": [ {
          "system": "http://snomed.info/sct",
          "code": "169396008"
        } ]
      },
      "subject": {
        "reference": "Patient/28f57404-e619-4b1e-905f-5d89fffeffcd"
      },
      "performedPeriod": {
        "start": "2025-02-09T08:00:00.000Z",
        "end": "2025-02-09T08:15:00.000Z"
      }
    },
    "request": {
      "method": "POST",
      "url": "Procedure/602707fa0df1fb00002a2aeb"
    }
  }, {
    "fullUrl": "https://madie.cms.gov/Procedure/602707ff0df1fb00002a2b05",
    "resource": {
      "resourceType": "Procedure",
      "id": "602707ff0df1fb00002a2b05",
      "meta": {
        "profile": [ "http://hl7.org/fhir/us/qicore/StructureDefinition/qicore-procedure" ]
      },
      "extension": [ {
        "url": "http://hl7.org/fhir/us/qicore/StructureDefinition/qicore-recorded",
        "valueDateTime": "2025-02-09T12:35:00.000Z"
      } ],
      "status": "completed",
      "code": {
        "coding": [ {
          "system": "http://snomed.info/sct",
          "code": "169396008"
        } ]
      },
      "subject": {
        "reference": "Patient/28f57404-e619-4b1e-905f-5d89fffeffcd"
      },
      "performedPeriod": {
        "start": "2025-02-09T08:00:00.000Z",
        "end": "2025-02-09T08:15:00.000Z"
      }
    },
    "request": {
      "method": "POST",
      "url": "Procedure/602707ff0df1fb00002a2b05"
    }
  }, {
    "fullUrl": "https://madie.cms.gov/Organization/123456",
    "resource": {
      "resourceType": "Organization",
      "id": "123456",
      "meta": {
        "profile": [ "http://hl7.org/fhir/us/qicore/StructureDefinition/qicore-organization" ]
      },
      "identifier": [ {
        "use": "temp",
        "system": "urn:oid:2.16.840.1.113883.4.4",
        "value": "21-3259825"
      } ],
      "active": true,
      "type": [ {
        "coding": [ {
          "system": "http://terminology.hl7.org/CodeSystem/organization-type",
          "code": "pay",
          "display": "Payer"
        } ]
      } ],
      "name": "Blue Cross Blue Shield of Texas",
      "telecom": [ {
        "system": "phone",
        "value": "(+1) 972-766-6900"
      } ],
      "address": [ {
        "use": "billing",
        "type": "postal",
        "line": [ "P.O. Box 660044" ],
        "city": "Dallas",
        "state": "TX",
        "postalCode": "75266-0044",
        "country": "USA"
      } ]
    },
    "request": {
      "method": "POST",
      "url": "Organization/123456"
    }
  }, {
    "fullUrl": "https://madie.cms.gov/Practitioner/practitioner-123456",
    "resource": {
      "resourceType": "Practitioner",
      "id": "practitioner-123456",
      "meta": {
        "profile": [ "http://hl7.org/fhir/us/qicore/StructureDefinition/qicore-practitioner" ]
      },
      "identifier": [ {
        "system": "http://hl7.org/fhir/sid/us-npi",
        "value": "123456"
      } ],
      "name": [ {
        "family": "Evil",
        "prefix": [ "Dr" ]
      } ]
    },
    "request": {
      "method": "POST",
      "url": "Practitioner/practitioner-123456"
    }
  }, {
    "fullUrl": "https://madie.cms.gov/MeasureReport/f00b0d4e-d2f9-4aac-85a5-685e307f46a6",
    "resource": {
      "resourceType": "MeasureReport",
      "id": "f00b0d4e-d2f9-4aac-85a5-685e307f46a6",
      "meta": {
        "profile": [ "http://hl7.org/fhir/us/cqfmeasures/StructureDefinition/test-case-cqfm" ]
      },
      "contained": [ {
        "resourceType": "Parameters",
        "id": "ef83c21f-1f6e-49a4-ae37-64ed5d65dc57-parameters",
        "parameter": [ {
          "name": "subject",
          "valueString": "28f57404-e619-4b1e-905f-5d89fffeffcd"
        } ]
      } ],
      "extension": [ {
        "url": "http://hl7.org/fhir/us/cqfmeasures/StructureDefinition/cqfm-inputParameters",
        "valueReference": {
          "reference": "#ef83c21f-1f6e-49a4-ae37-64ed5d65dc57-parameters"
        }
      }, {
        "url": "http://hl7.org/fhir/us/cqfmeasures/StructureDefinition/cqfm-testCaseDescription",
        "valueMarkdown": "Patient with cancer diagnosis that overlaps the office visits during measurement period. Patient received twice daily chemotherapy. \n"
      } ],
      "modifierExtension": [ {
        "url": "http://hl7.org/fhir/us/cqfmeasures/StructureDefinition/cqfm-isTestCase",
        "valueBoolean": true
      } ],
      "status": "complete",
      "type": "individual",
      "measure": "https://madie.cms.gov/Measure/OncologyPainIntensityQuantifiedFHIR",
      "period": {
        "start": "2025-01-01",
        "end": "2025-12-31"
      },
      "group": [ {
        "population": [ {
          "code": {
            "coding": [ {
              "system": "http://terminology.hl7.org/CodeSystem/measure-population",
              "code": "initial-population",
              "display": "Initial Population"
            } ]
          },
          "count": 0
        }, {
          "code": {
            "coding": [ {
              "system": "http://terminology.hl7.org/CodeSystem/measure-population",
              "code": "denominator",
              "display": "Denominator"
            } ]
          },
          "count": 0
        }, {
          "code": {
            "coding": [ {
              "system": "http://terminology.hl7.org/CodeSystem/measure-population",
              "code": "numerator",
              "display": "Numerator"
            } ]
          },
          "count": 0
        } ]
      }, {
        "population": [ {
          "code": {
            "coding": [ {
              "system": "http://terminology.hl7.org/CodeSystem/measure-population",
              "code": "initial-population",
              "display": "Initial Population"
            } ]
          },
          "count": 0
        }, {
          "code": {
            "coding": [ {
              "system": "http://terminology.hl7.org/CodeSystem/measure-population",
              "code": "denominator",
              "display": "Denominator"
            } ]
          },
          "count": 0
        }, {
          "code": {
            "coding": [ {
              "system": "http://terminology.hl7.org/CodeSystem/measure-population",
              "code": "numerator",
              "display": "Numerator"
            } ]
          },
          "count": 0
        } ]
      } ],
      "evaluatedResource": [ {
        "reference": "https://madie.cms.gov/Patient/28f57404-e619-4b1e-905f-5d89fffeffcd"
      }, {
        "reference": "https://madie.cms.gov/Condition/602707c30df1fb00002a2a82"
      }, {
        "reference": "https://madie.cms.gov/Encounter/602707d20df1fb00002a2aa4"
      }, {
        "reference": "https://madie.cms.gov/Encounter/602707e10df1fb00002a2ac1"
      }, {
        "reference": "https://madie.cms.gov/Coverage/61043692a2f9161878c53ab7"
      }, {
        "reference": "https://madie.cms.gov/Procedure/602707fa0df1fb00002a2aeb"
      }, {
        "reference": "https://madie.cms.gov/Procedure/602707ff0df1fb00002a2b05"
      }, {
        "reference": "https://madie.cms.gov/Organization/123456"
      }, {
        "reference": "https://madie.cms.gov/Practitioner/practitioner-123456"
      } ]
    },
    "request": {
      "method": "POST",
      "url": "MeasureReport/f00b0d4e-d2f9-4aac-85a5-685e307f46a6"
    }
  } ]
}