{"resourceType":"Bundle","id":"tests-4dd85cf1-18a3-44ed-8a72-096694776335-bundle","type":"transaction","entry":[{"fullUrl":"https://madie.cms.gov/Patient/4dd85cf1-18a3-44ed-8a72-096694776335","resource":{"resourceType":"Patient","id":"4dd85cf1-18a3-44ed-8a72-096694776335","meta":{"profile":["http://hl7.org/fhir/us/qicore/StructureDefinition/qicore-patient"]},"text":{"status":"generated","div":"<div xmlns=\"http://www.w3.org/1999/xhtml\"><div class=\"hapiHeaderText\">Age@18 <b>DENOMPASS </b></div><table class=\"hapiPropertyTable\"><tbody><tr><td>Identifier</td><td>67f3e33acf17bcb386e754d726ed064ccd48ba21ff0ffb2eb678740a684398be</td></tr><tr><td>Date of birth</td><td><span>01 January 1994</span></td></tr></tbody></table></div>"},"extension":[{"url":"http://hl7.org/fhir/us/core/StructureDefinition/us-core-race","extension":[{"url":"ombCategory","valueCoding":{"system":"urn:oid:2.16.840.1.113883.6.238","code":"1002-5","display":"American Indian or Alaska Native","userSelected":true}},{"url":"text","valueString":"American Indian or Alaska Native"},{"url":"detailed","valueCoding":{"system":"urn:oid:2.16.840.1.113883.6.238","code":"1653-5","display":"Tohono O'Odham"}}]},{"url":"http://hl7.org/fhir/us/core/StructureDefinition/us-core-ethnicity","extension":[{"url":"ombCategory","valueCoding":{"system":"urn:oid:2.16.840.1.113883.6.238","code":"2135-2","display":"Hispanic or Latino","userSelected":true}},{"url":"text","valueString":"Hispanic or Latino"},{"url":"detailed","valueCoding":{"system":"urn:oid:2.16.840.1.113883.6.238","code":"2153-5","display":"Mexican American Indian"}}]}],"identifier":[{"type":{"coding":[{"system":"http://terminology.hl7.org/CodeSystem/v2-0203","code":"MR"}]},"system":"https://bonnie-fhir.healthit.gov/","value":"61095b0998086b53805591a5"}],"active":true,"name":[{"use":"usual","family":"NUMFail","given":["VisualAcuityExamPerformedinDec"]}],"gender":"female","birthDate":"1994-01-01"},"request":{"method":"PUT","url":"Patient/4dd85cf1-18a3-44ed-8a72-096694776335"}},{"fullUrl":"https://madie.cms.gov/Observation/4dd85cf1-18a3-44ed-8a72-096694776330","resource":{"resourceType":"Observation","id":"4dd85cf1-18a3-44ed-8a72-096694776330","meta":{"profile":["http://hl7.org/fhir/us/qicore/StructureDefinition/qicore-observation"]},"status":"final","category":[{"coding":[{"system":"http://terminology.hl7.org/CodeSystem/observation-category","code":"exam","display":"Exam"}]}],"code":{"coding":[{"system":"http://snomed.info/sct","code":"419775003"}]},"subject":{"reference":"Patient/4dd85cf1-18a3-44ed-8a72-096694776335"},"effectivePeriod":{"start":"2025-03-13T09:00:00+00:00","end":"2025-03-13T09:30:00+00:00"}},"request":{"method":"PUT","url":"Observation/4dd85cf1-18a3-44ed-8a72-096694776330"}},{"fullUrl":"https://madie.cms.gov/Procedure/4dd85cf1-18a3-44ed-8a72-096694776331","resource":{"resourceType":"Procedure","id":"4dd85cf1-18a3-44ed-8a72-096694776331","meta":{"profile":["http://hl7.org/fhir/us/qicore/StructureDefinition/qicore-procedure"]},"extension":[{"url":"http://hl7.org/fhir/us/qicore/StructureDefinition/qicore-recorded","valueDateTime":"2025-03-05T09:35:00-04:00"}],"status":"completed","code":{"coding":[{"system":"http://snomed.info/sct","code":"84149000"}]},"subject":{"reference":"Patient/4dd85cf1-18a3-44ed-8a72-096694776335"},"performedPeriod":{"start":"2025-03-05T09:20:00-04:00","end":"2025-03-05T10:30:00-04:00"}},"request":{"method":"PUT","url":"Procedure/4dd85cf1-18a3-44ed-8a72-096694776331"}},{"fullUrl":"https://madie.cms.gov/Coverage/4dd85cf1-18a3-44ed-8a72-096694776332","resource":{"resourceType":"Coverage","id":"4dd85cf1-18a3-44ed-8a72-096694776332","meta":{"profile":["http://hl7.org/fhir/us/qicore/StructureDefinition/qicore-coverage"]},"status":"active","type":{"coding":[{"system":"https://nahdo.org/sopt","code":"1","display":"MEDICARE"}]},"beneficiary":{"reference":"Patient/4dd85cf1-18a3-44ed-8a72-096694776335"},"period":{"start":"2023-12-01T00:00:00+00:00"},"payor":[{"reference":"Organization/4b5a882f-1f43-485c-85c6-f5ad2337d5b1"}]},"request":{"method":"PUT","url":"Coverage/4dd85cf1-18a3-44ed-8a72-096694776332"}},{"fullUrl":"https://madie.cms.gov/Organization/123456","resource":{"resourceType":"Organization","id":"4b5a882f-1f43-485c-85c6-f5ad2337d5b1","meta":{"profile":["http://hl7.org/fhir/us/qicore/StructureDefinition/qicore-organization"]},"identifier":[{"use":"temp","system":"urn:oid:2.16.840.1.113883.4.4","value":"21-3259825"}],"active":true,"type":[{"coding":[{"system":"http://terminology.hl7.org/CodeSystem/organization-type","code":"pay","display":"Payer"}]}],"name":"Blue Cross Blue Shield of Texas","telecom":[{"system":"phone","value":"(+1) 972-766-6900"}],"address":[{"use":"billing","type":"postal","line":["P.O. Box 660044"],"city":"Dallas","state":"TX","postalCode":"75266-0044","country":"USA"}]},"request":{"method":"PUT","url":"Organization/4b5a882f-1f43-485c-85c6-f5ad2337d5b1"}},{"fullUrl":"https://madie.cms.gov/Observation/4dd85cf1-18a3-44ed-8a72-096694776333","resource":{"resourceType":"Observation","id":"4dd85cf1-18a3-44ed-8a72-096694776333","meta":{"profile":["http://hl7.org/fhir/us/qicore/StructureDefinition/qicore-observation"]},"status":"final","category":[{"coding":[{"system":"http://terminology.hl7.org/CodeSystem/observation-category","code":"exam","display":"Exam"}]}],"code":{"coding":[{"system":"http://snomed.info/sct","code":"419775003","display":"Best corrected visual acuity (observable entity)","userSelected":true}]},"subject":{"reference":"Patient/4dd85cf1-18a3-44ed-8a72-096694776335"},"effectiveDateTime":"2025-12-16T08:00:00.000+00:00","issued":"2025-12-16T08:00:00.000+00:00","valueCodeableConcept":{"coding":[{"system":"http://snomed.info/sct","code":"422497000","display":"Distance vision 20/20 (finding)","userSelected":true}]}},"request":{"method":"PUT","url":"Observation/4dd85cf1-18a3-44ed-8a72-096694776333"}},{"fullUrl":"https://madie.cms.gov/Practitioner/123457","resource":{"resourceType":"Practitioner","id":"2e97d0c0-50d0-4526-a380-8bc1f0a7b67e","meta":{"profile":["http://hl7.org/fhir/us/qicore/StructureDefinition/qicore-practitioner"]},"identifier":[{"system":"http://hl7.org/fhir/sid/us-npi","value":"123456"}],"name":[{"family":"Evil","prefix":["Dr"]}]},"request":{"method":"PUT","url":"Practitioner/2e97d0c0-50d0-4526-a380-8bc1f0a7b67e"}},{"fullUrl":"https://madie.cms.gov/MeasureReport/2ad4ac98-3af1-4beb-b2f7-bb8da07b8b2d","resource":{"resourceType":"MeasureReport","id":"2ad4ac98-3af1-4beb-b2f7-bb8da07b8b2d","meta":{"profile":["http://hl7.org/fhir/us/cqfmeasures/StructureDefinition/test-case-cqfm"]},"contained":[{"resourceType":"Parameters","id":"6ca13c9e-e03e-4f72-a25b-c09c3e09ce5d-parameters","parameter":[{"name":"subject","valueString":"4dd85cf1-18a3-44ed-8a72-096694776335"}]}],"extension":[{"url":"http://hl7.org/fhir/us/cqfmeasures/StructureDefinition/cqfm-inputParameters","valueReference":{"reference":"#6ca13c9e-e03e-4f72-a25b-c09c3e09ce5d-parameters"}},{"url":"http://hl7.org/fhir/us/cqfmeasures/StructureDefinition/cqfm-testCaseDescription","valueMarkdown":"Patient with Visual Acuity Exam Performed in Dec 2023"}],"modifierExtension":[{"url":"http://hl7.org/fhir/us/cqfmeasures/StructureDefinition/cqfm-isTestCase","valueBoolean":true}],"status":"complete","type":"individual","measure":"https://madie.cms.gov/Measure/Cataracts2040BCVAwithin90DaysFHIR","period":{"start":"2025-01-01","end":"2025-12-31"},"group":[{"population":[{"code":{"coding":[{"system":"http://terminology.hl7.org/CodeSystem/measure-population","code":"initial-population","display":"Initial Population"}]},"count":1},{"code":{"coding":[{"system":"http://terminology.hl7.org/CodeSystem/measure-population","code":"denominator","display":"Denominator"}]},"count":1},{"code":{"coding":[{"system":"http://terminology.hl7.org/CodeSystem/measure-population","code":"denominator-exclusion","display":"Denominator Exclusion"}]},"count":0},{"code":{"coding":[{"system":"http://terminology.hl7.org/CodeSystem/measure-population","code":"numerator","display":"Numerator"}]},"count":0}]}]},"request":{"method":"PUT","url":"MeasureReport/2ad4ac98-3af1-4beb-b2f7-bb8da07b8b2d"}}]}