{"resourceType":"Bundle","id":"tests-1b854323-2f47-4bdb-88ee-d34e6d28ba63-bundle","type":"transaction","entry":[{"fullUrl":"https://madie.cms.gov/Patient/1b854323-2f47-4bdb-88ee-d34e6d28ba63","resource":{"resourceType":"Patient","id":"1b854323-2f47-4bdb-88ee-d34e6d28ba63","meta":{"profile":["http://hl7.org/fhir/us/qicore/StructureDefinition/qicore-patient"]},"text":{"status":"generated","div":"<div xmlns=\"http://www.w3.org/1999/xhtml\"><div class=\"hapiHeaderText\">Age@18 <b>DENOMPASS </b></div><table class=\"hapiPropertyTable\"><tbody><tr><td>Identifier</td><td>67f3e33acf17bcb386e754d726ed064ccd48ba21ff0ffb2eb678740a684398be</td></tr><tr><td>Date of birth</td><td><span>01 January 1994</span></td></tr></tbody></table></div>"},"extension":[{"url":"http://hl7.org/fhir/us/core/StructureDefinition/us-core-race","extension":[{"url":"ombCategory","valueCoding":{"system":"urn:oid:2.16.840.1.113883.6.238","code":"1002-5","display":"American Indian or Alaska Native","userSelected":true}},{"url":"text","valueString":"American Indian or Alaska Native"}]},{"url":"http://hl7.org/fhir/us/core/StructureDefinition/us-core-ethnicity","extension":[{"url":"ombCategory","valueCoding":{"system":"urn:oid:2.16.840.1.113883.6.238","code":"2135-2","display":"Hispanic or Latino","userSelected":true}},{"url":"text","valueString":"Hispanic or Latino"}]}],"identifier":[{"type":{"coding":[{"system":"http://terminology.hl7.org/CodeSystem/v2-0203","code":"MR"}]},"system":"https://bonnie-fhir.healthit.gov/","value":"61095b0998086b53805591a5"}],"active":true,"name":[{"use":"usual","family":"NUMPASS","given":["VisAcuity20/40=90DaysAfter"]}],"gender":"female","birthDate":"1994-01-01"},"request":{"method":"PUT","url":"Patient/1b854323-2f47-4bdb-88ee-d34e6d28ba63"}},{"fullUrl":"https://madie.cms.gov/Observation/5c9a4252b84846291b7a7085","resource":{"resourceType":"Observation","id":"95b4dc06-93d9-4cdc-b6d2-45f953a702f1","meta":{"profile":["http://hl7.org/fhir/us/qicore/StructureDefinition/qicore-observation"]},"status":"final","category":[{"coding":[{"system":"http://terminology.hl7.org/CodeSystem/observation-category","code":"exam","display":"exam"}]}],"code":{"coding":[{"system":"http://snomed.info/sct","code":"419775003"}]},"subject":{"reference":"Patient/1b854323-2f47-4bdb-88ee-d34e6d28ba63"},"effectivePeriod":{"start":"2025-11-27T09:00:00+00:00","end":"2025-11-27T09:30:00+00:00"}},"request":{"method":"PUT","url":"Observation/95b4dc06-93d9-4cdc-b6d2-45f953a702f1"}},{"fullUrl":"https://madie.cms.gov/Observation/best-corrected-visual-acuity-observable-entity-f069","resource":{"resourceType":"Observation","id":"814bad30-303a-4b86-b18c-b1b8aea7d0f9","meta":{"profile":["http://hl7.org/fhir/us/qicore/StructureDefinition/qicore-observation"]},"status":"final","category":[{"coding":[{"system":"http://terminology.hl7.org/CodeSystem/observation-category","code":"exam","display":"Exam","userSelected":true}]}],"code":{"coding":[{"system":"http://snomed.info/sct","code":"419775003","display":"Best corrected visual acuity (observable entity)","userSelected":true}]},"subject":{"reference":"Patient/1b854323-2f47-4bdb-88ee-d34e6d28ba63"},"effectiveDateTime":"2025-11-27T08:00:00.000Z","valueCodeableConcept":{"coding":[{"system":"http://snomed.info/sct","version":"2021-09","code":"424703005","display":"Distance vision 20/40 (finding)","userSelected":true}]}},"request":{"method":"PUT","url":"Observation/814bad30-303a-4b86-b18c-b1b8aea7d0f9"}},{"fullUrl":"https://madie.cms.gov/Procedure/5c9a4252b84846291b7a7084","resource":{"resourceType":"Procedure","id":"f0f2ffa4-ff1f-4546-9456-3cd552bb825b","meta":{"profile":["http://hl7.org/fhir/us/qicore/StructureDefinition/qicore-procedure"]},"extension":[{"url":"http://hl7.org/fhir/us/qicore/StructureDefinition/qicore-recorded","valueDateTime":"2025-09-30T09:35:00-08:00"}],"status":"completed","code":{"coding":[{"system":"http://snomed.info/sct","code":"84149000"}]},"subject":{"reference":"Patient/1b854323-2f47-4bdb-88ee-d34e6d28ba63"},"performedPeriod":{"start":"2025-09-30T09:20:00-08:00","end":"2025-09-30T10:30:00-08:00"}},"request":{"method":"PUT","url":"Procedure/f0f2ffa4-ff1f-4546-9456-3cd552bb825b"}},{"fullUrl":"https://madie.cms.gov/Coverage/1","resource":{"resourceType":"Coverage","id":"b8c4a312-4e6d-48aa-b73d-d19cb252d930","meta":{"profile":["http://hl7.org/fhir/us/qicore/StructureDefinition/qicore-coverage"]},"status":"active","beneficiary":{"reference":"Patient/1b854323-2f47-4bdb-88ee-d34e6d28ba63"},"payor":[{"reference":"Organization/4b5a882f-1f43-485c-85c6-f5ad2337d5b1"}]},"request":{"method":"PUT","url":"Coverage/b8c4a312-4e6d-48aa-b73d-d19cb252d930"}},{"fullUrl":"https://madie.cms.gov/Organization/123456","resource":{"resourceType":"Organization","id":"4b5a882f-1f43-485c-85c6-f5ad2337d5b1","meta":{"profile":["http://hl7.org/fhir/us/qicore/StructureDefinition/qicore-organization"]},"identifier":[{"use":"temp","system":"urn:oid:2.16.840.1.113883.4.4","value":"21-3259825"}],"active":true,"type":[{"coding":[{"system":"http://terminology.hl7.org/CodeSystem/organization-type","code":"pay","display":"Payer"}]}],"name":"Blue Cross Blue Shield of Texas","telecom":[{"system":"phone","value":"(+1) 972-766-6900"}],"address":[{"use":"billing","type":"postal","line":["P.O. Box 660044"],"city":"Dallas","state":"TX","postalCode":"75266-0044","country":"USA"}]},"request":{"method":"PUT","url":"Organization/4b5a882f-1f43-485c-85c6-f5ad2337d5b1"}},{"fullUrl":"https://madie.cms.gov/Practitioner/practitioner-123456","resource":{"resourceType":"Practitioner","id":"2ef33847-7f8f-4f89-9fcb-69f52cdc1bdc","meta":{"profile":["http://hl7.org/fhir/us/qicore/StructureDefinition/qicore-practitioner"]},"identifier":[{"system":"http://hl7.org/fhir/sid/us-npi","value":"123456"}],"name":[{"family":"Evil","prefix":["Dr"]}]},"request":{"method":"PUT","url":"Practitioner/2ef33847-7f8f-4f89-9fcb-69f52cdc1bdc"}},{"fullUrl":"https://madie.cms.gov/MeasureReport/40129c83-16f3-47ff-921b-ec7f895290ff","resource":{"resourceType":"MeasureReport","id":"40129c83-16f3-47ff-921b-ec7f895290ff","meta":{"profile":["http://hl7.org/fhir/us/cqfmeasures/StructureDefinition/test-case-cqfm"]},"contained":[{"resourceType":"Parameters","id":"7100093e-692c-4e7c-a0a7-5fb4b47584fc-parameters","parameter":[{"name":"subject","valueString":"1b854323-2f47-4bdb-88ee-d34e6d28ba63"}]}],"extension":[{"url":"http://hl7.org/fhir/us/cqfmeasures/StructureDefinition/cqfm-inputParameters","valueReference":{"reference":"#7100093e-692c-4e7c-a0a7-5fb4b47584fc-parameters"}},{"url":"http://hl7.org/fhir/us/cqfmeasures/StructureDefinition/cqfm-testCaseDescription","valueMarkdown":"Patient with cat surg September 30 and visual acuity 20/40 or better within 90 days of cataract surgery. "}],"modifierExtension":[{"url":"http://hl7.org/fhir/us/cqfmeasures/StructureDefinition/cqfm-isTestCase","valueBoolean":true}],"status":"complete","type":"individual","measure":"https://madie.cms.gov/Measure/Cataracts2040BCVAwithin90DaysFHIR","period":{"start":"2025-01-01","end":"2025-12-31"},"group":[{"population":[{"code":{"coding":[{"system":"http://terminology.hl7.org/CodeSystem/measure-population","code":"initial-population","display":"Initial Population"}]},"count":1},{"code":{"coding":[{"system":"http://terminology.hl7.org/CodeSystem/measure-population","code":"denominator","display":"Denominator"}]},"count":1},{"code":{"coding":[{"system":"http://terminology.hl7.org/CodeSystem/measure-population","code":"denominator-exclusion","display":"Denominator Exclusion"}]},"count":0},{"code":{"coding":[{"system":"http://terminology.hl7.org/CodeSystem/measure-population","code":"numerator","display":"Numerator"}]},"count":1}]}]},"request":{"method":"PUT","url":"MeasureReport/40129c83-16f3-47ff-921b-ec7f895290ff"}}]}