{"resourceType":"Bundle","id":"tests-edcca964-8fb0-4672-85cb-8e64495d3077-bundle","type":"transaction","entry":[{"fullUrl":"https://madie.cms.gov/Patient/edcca964-8fb0-4672-85cb-8e64495d3077","resource":{"resourceType":"Patient","id":"edcca964-8fb0-4672-85cb-8e64495d3077","meta":{"profile":["http://hl7.org/fhir/us/qicore/StructureDefinition/qicore-patient"]},"text":{"status":"generated","div":"<div xmlns=\"http://www.w3.org/1999/xhtml\"><div class=\"hapiHeaderText\">Age@18 <b>DENOMPASS </b></div><table class=\"hapiPropertyTable\"><tbody><tr><td>Identifier</td><td>67f3e33acf17bcb386e754d726ed064ccd48ba21ff0ffb2eb678740a684398be</td></tr><tr><td>Date of birth</td><td><span>01 January 1994</span></td></tr></tbody></table></div>"},"extension":[{"url":"http://hl7.org/fhir/us/core/StructureDefinition/us-core-race","extension":[{"url":"ombCategory","valueCoding":{"system":"urn:oid:2.16.840.1.113883.6.238","code":"1002-5","display":"American Indian or Alaska Native","userSelected":true}},{"url":"text","valueString":"American Indian or Alaska Native"}]},{"url":"http://hl7.org/fhir/us/core/StructureDefinition/us-core-ethnicity","extension":[{"url":"ombCategory","valueCoding":{"system":"urn:oid:2.16.840.1.113883.6.238","code":"2135-2","display":"Hispanic or Latino","userSelected":true}},{"url":"text","valueString":"Hispanic or Latino"}]}],"identifier":[{"type":{"coding":[{"system":"http://terminology.hl7.org/CodeSystem/v2-0203","code":"MR"}]},"system":"https://bonnie-fhir.healthit.gov/","value":"61095b0998086b53805591a5"}],"active":true,"name":[{"use":"usual","family":"NUMPASS","given":["VisAcuity20/40SnellenChart"]}],"gender":"female","birthDate":"1994-01-01"},"request":{"method":"PUT","url":"Patient/edcca964-8fb0-4672-85cb-8e64495d3077"}},{"fullUrl":"https://madie.cms.gov/Observation/5c9a4252b84846291b7a7085","resource":{"resourceType":"Observation","id":"eeadd738-48bd-4661-81e9-f9d18585217a","meta":{"profile":["http://hl7.org/fhir/us/qicore/StructureDefinition/qicore-observation"]},"status":"final","category":[{"coding":[{"system":"http://terminology.hl7.org/CodeSystem/observation-category","code":"exam","display":"exam"}]}],"code":{"coding":[{"system":"http://snomed.info/sct","code":"419775003"}]},"subject":{"reference":"Patient/edcca964-8fb0-4672-85cb-8e64495d3077"},"effectivePeriod":{"start":"2025-03-13T09:00:00+00:00","end":"2025-03-13T09:30:00+00:00"}},"request":{"method":"PUT","url":"Observation/eeadd738-48bd-4661-81e9-f9d18585217a"}},{"fullUrl":"https://madie.cms.gov/Observation/best-corrected-visual-acuity-observable-entity-f069","resource":{"resourceType":"Observation","id":"760bf010-5ebd-4de3-9283-c1479aa4120f","meta":{"profile":["http://hl7.org/fhir/us/qicore/StructureDefinition/qicore-observation"]},"status":"final","category":[{"coding":[{"system":"http://terminology.hl7.org/CodeSystem/observation-category","code":"exam","display":"Exam","userSelected":true}]}],"code":{"coding":[{"system":"http://loinc.org","version":"2.73","code":"79880-1","display":"Visual acuity best corrected Right eye by Snellen eye chart","userSelected":true}]},"subject":{"reference":"Patient/edcca964-8fb0-4672-85cb-8e64495d3077"},"effectiveDateTime":"2025-06-01T08:00:00.000Z","valueCodeableConcept":{"coding":[{"system":"http://snomed.info/sct","version":"2021-09","code":"424703005","display":"Distance vision 20/40 (finding)","userSelected":true}]}},"request":{"method":"PUT","url":"Observation/760bf010-5ebd-4de3-9283-c1479aa4120f"}},{"fullUrl":"https://madie.cms.gov/Procedure/5c9a4252b84846291b7a7084","resource":{"resourceType":"Procedure","id":"a7219808-b653-4c46-aed4-66ed1dc8a014","meta":{"profile":["http://hl7.org/fhir/us/qicore/StructureDefinition/qicore-procedure"]},"extension":[{"url":"http://hl7.org/fhir/us/qicore/StructureDefinition/qicore-recorded","valueDateTime":"2025-03-05T09:35:00-04:00"}],"status":"completed","code":{"coding":[{"system":"http://snomed.info/sct","code":"84149000"}]},"subject":{"reference":"Patient/edcca964-8fb0-4672-85cb-8e64495d3077"},"performedPeriod":{"start":"2025-03-05T09:20:00-04:00","end":"2025-04-05T10:30:00-04:00"}},"request":{"method":"PUT","url":"Procedure/a7219808-b653-4c46-aed4-66ed1dc8a014"}},{"fullUrl":"https://madie.cms.gov/Coverage/1","resource":{"resourceType":"Coverage","id":"a29c709e-0928-417b-b3e4-0b95956ce8b7","meta":{"profile":["http://hl7.org/fhir/us/qicore/StructureDefinition/qicore-coverage"]},"status":"active","beneficiary":{"reference":"Patient/edcca964-8fb0-4672-85cb-8e64495d3077"},"payor":[{"reference":"Organization/4b5a882f-1f43-485c-85c6-f5ad2337d5b1"}]},"request":{"method":"PUT","url":"Coverage/a29c709e-0928-417b-b3e4-0b95956ce8b7"}},{"fullUrl":"https://madie.cms.gov/Organization/123456","resource":{"resourceType":"Organization","id":"4b5a882f-1f43-485c-85c6-f5ad2337d5b1","meta":{"profile":["http://hl7.org/fhir/us/qicore/StructureDefinition/qicore-organization"]},"identifier":[{"use":"temp","system":"urn:oid:2.16.840.1.113883.4.4","value":"21-3259825"}],"active":true,"type":[{"coding":[{"system":"http://terminology.hl7.org/CodeSystem/organization-type","code":"pay","display":"Payer"}]}],"name":"Blue Cross Blue Shield of Texas","telecom":[{"system":"phone","value":"(+1) 972-766-6900"}],"address":[{"use":"billing","type":"postal","line":["P.O. Box 660044"],"city":"Dallas","state":"TX","postalCode":"75266-0044","country":"USA"}]},"request":{"method":"PUT","url":"Organization/4b5a882f-1f43-485c-85c6-f5ad2337d5b1"}},{"fullUrl":"https://madie.cms.gov/Practitioner/practitioner-123456","resource":{"resourceType":"Practitioner","id":"5f6d39eb-f36b-4e49-93a8-8b615c6992a1","meta":{"profile":["http://hl7.org/fhir/us/qicore/StructureDefinition/qicore-practitioner"]},"identifier":[{"system":"http://hl7.org/fhir/sid/us-npi","value":"123456"}],"name":[{"family":"Evil","prefix":["Dr"]}]},"request":{"method":"PUT","url":"Practitioner/5f6d39eb-f36b-4e49-93a8-8b615c6992a1"}},{"fullUrl":"https://madie.cms.gov/MeasureReport/9f8a9abd-2d79-4b2b-903a-660a8bd4fd67","resource":{"resourceType":"MeasureReport","id":"9f8a9abd-2d79-4b2b-903a-660a8bd4fd67","meta":{"profile":["http://hl7.org/fhir/us/cqfmeasures/StructureDefinition/test-case-cqfm"]},"contained":[{"resourceType":"Parameters","id":"de99a4ea-95ac-4ef1-84cb-0715e7a90018-parameters","parameter":[{"name":"subject","valueString":"edcca964-8fb0-4672-85cb-8e64495d3077"}]}],"extension":[{"url":"http://hl7.org/fhir/us/cqfmeasures/StructureDefinition/cqfm-inputParameters","valueReference":{"reference":"#de99a4ea-95ac-4ef1-84cb-0715e7a90018-parameters"}},{"url":"http://hl7.org/fhir/us/cqfmeasures/StructureDefinition/cqfm-testCaseDescription","valueMarkdown":"Num - Best Corrected Visual Acuity Exam Using Snellen Chart"}],"modifierExtension":[{"url":"http://hl7.org/fhir/us/cqfmeasures/StructureDefinition/cqfm-isTestCase","valueBoolean":true}],"status":"complete","type":"individual","measure":"https://madie.cms.gov/Measure/Cataracts2040BCVAwithin90DaysFHIR","period":{"start":"2025-01-01","end":"2025-12-31"},"group":[{"population":[{"code":{"coding":[{"system":"http://terminology.hl7.org/CodeSystem/measure-population","code":"initial-population","display":"Initial Population"}]},"count":1},{"code":{"coding":[{"system":"http://terminology.hl7.org/CodeSystem/measure-population","code":"denominator","display":"Denominator"}]},"count":1},{"code":{"coding":[{"system":"http://terminology.hl7.org/CodeSystem/measure-population","code":"denominator-exclusion","display":"Denominator Exclusion"}]},"count":0},{"code":{"coding":[{"system":"http://terminology.hl7.org/CodeSystem/measure-population","code":"numerator","display":"Numerator"}]},"count":1}]}]},"request":{"method":"PUT","url":"MeasureReport/9f8a9abd-2d79-4b2b-903a-660a8bd4fd67"}}]}