{"resourceType":"Bundle","id":"tests-cce515b3-72e3-4ce8-88e4-626a46d5578f-bundle","type":"transaction","entry":[{"fullUrl":"https://madie.cms.gov/Patient/cce515b3-72e3-4ce8-88e4-626a46d5578f","resource":{"resourceType":"Patient","id":"cce515b3-72e3-4ce8-88e4-626a46d5578f","meta":{"profile":["http://hl7.org/fhir/us/qicore/StructureDefinition/qicore-patient"]},"text":{"status":"generated","div":"<div xmlns=\"http://www.w3.org/1999/xhtml\"><div class=\"hapiHeaderText\">Age@18 <b>DENOMPASS </b></div><table class=\"hapiPropertyTable\"><tbody><tr><td>Identifier</td><td>67f3e33acf17bcb386e754d726ed064ccd48ba21ff0ffb2eb678740a684398be</td></tr><tr><td>Date of birth</td><td><span>01 January 1994</span></td></tr></tbody></table></div>"},"extension":[{"url":"http://hl7.org/fhir/us/core/StructureDefinition/us-core-race","extension":[{"url":"ombCategory","valueCoding":{"system":"urn:oid:2.16.840.1.113883.6.238","code":"1002-5","display":"American Indian or Alaska Native","userSelected":true}},{"url":"text","valueString":"American Indian or Alaska Native"}]},{"url":"http://hl7.org/fhir/us/core/StructureDefinition/us-core-ethnicity","extension":[{"url":"ombCategory","valueCoding":{"system":"urn:oid:2.16.840.1.113883.6.238","code":"2135-2","display":"Hispanic or Latino","userSelected":true}},{"url":"text","valueString":"Hispanic or Latino"}]}],"identifier":[{"type":{"coding":[{"system":"http://terminology.hl7.org/CodeSystem/v2-0203","code":"MR"}]},"system":"https://bonnie-fhir.healthit.gov/","value":"61095b0998086b53805591a5"}],"active":true,"name":[{"use":"usual","family":"NUMFail","given":["VisAcuityLessThan2040"]}],"gender":"female","birthDate":"1994-01-01"},"request":{"method":"PUT","url":"Patient/cce515b3-72e3-4ce8-88e4-626a46d5578f"}},{"fullUrl":"https://madie.cms.gov/Observation/5c9a4252b84846291b7a7085","resource":{"resourceType":"Observation","id":"fe2448b6-4f23-4469-9269-5768ec905eac","meta":{"profile":["http://hl7.org/fhir/us/qicore/StructureDefinition/qicore-observation"]},"status":"final","category":[{"coding":[{"system":"http://terminology.hl7.org/CodeSystem/observation-category","code":"exam","display":"Exam"}]}],"code":{"coding":[{"system":"http://snomed.info/sct","code":"419775003"}]},"subject":{"reference":"Patient/cce515b3-72e3-4ce8-88e4-626a46d5578f"},"effectivePeriod":{"start":"2025-09-13T09:00:00+00:00","end":"2025-09-13T09:30:00+00:00"}},"request":{"method":"PUT","url":"Observation/fe2448b6-4f23-4469-9269-5768ec905eac"}},{"fullUrl":"https://madie.cms.gov/Observation/best-corrected-visual-acuity-observable-entity-f069","resource":{"resourceType":"Observation","id":"4fc46c0f-6523-458d-b0e7-c94b45eca005","meta":{"profile":["http://hl7.org/fhir/us/qicore/StructureDefinition/qicore-observation"]},"status":"final","category":[{"coding":[{"system":"http://terminology.hl7.org/CodeSystem/observation-category","code":"exam","display":"Exam","userSelected":true}]}],"code":{"coding":[{"system":"http://snomed.info/sct","code":"419775003","display":"Best corrected visual acuity (observable entity)","userSelected":false}]},"subject":{"reference":"Patient/cce515b3-72e3-4ce8-88e4-626a46d5578f"},"effectiveDateTime":"2025-09-27T08:00:00.000Z","component":[{"code":{"coding":[{"system":"http://snomed.info/sct","version":"2021-09","code":"424703005","display":"Distance vision 20/40 (finding)"}]},"valueCodeableConcept":{"coding":[{"system":"http://snomed.info/sct","version":"2021-09","code":"424703005","display":"Distance vision 20/40 (finding)","userSelected":true}]}}]},"request":{"method":"PUT","url":"Observation/4fc46c0f-6523-458d-b0e7-c94b45eca005"}},{"fullUrl":"https://madie.cms.gov/Procedure/5c9a4252b84846291b7a7084","resource":{"resourceType":"Procedure","id":"a6c382bd-93d0-4519-a561-f6389b5f1e81","meta":{"profile":["http://hl7.org/fhir/us/qicore/StructureDefinition/qicore-procedure"]},"extension":[{"url":"http://hl7.org/fhir/us/qicore/StructureDefinition/qicore-recorded","valueDateTime":"2025-08-30T09:35:00-08:00"}],"status":"completed","code":{"coding":[{"system":"http://snomed.info/sct","code":"84149000"}]},"subject":{"reference":"Patient/cce515b3-72e3-4ce8-88e4-626a46d5578f"},"performedPeriod":{"start":"2025-08-30T09:20:00-08:00","end":"2025-08-30T10:30:00-08:00"}},"request":{"method":"PUT","url":"Procedure/a6c382bd-93d0-4519-a561-f6389b5f1e81"}},{"fullUrl":"https://madie.cms.gov/Coverage/1","resource":{"resourceType":"Coverage","id":"ab5e1325-a739-4ad0-b01f-fff6d941ac25","meta":{"profile":["http://hl7.org/fhir/us/qicore/StructureDefinition/qicore-coverage"]},"status":"active","beneficiary":{"reference":"Patient/cce515b3-72e3-4ce8-88e4-626a46d5578f"},"payor":[{"reference":"Organization/4b5a882f-1f43-485c-85c6-f5ad2337d5b1"}]},"request":{"method":"PUT","url":"Coverage/ab5e1325-a739-4ad0-b01f-fff6d941ac25"}},{"fullUrl":"https://madie.cms.gov/Organization/123456","resource":{"resourceType":"Organization","id":"4b5a882f-1f43-485c-85c6-f5ad2337d5b1","meta":{"profile":["http://hl7.org/fhir/us/qicore/StructureDefinition/qicore-organization"]},"identifier":[{"use":"temp","system":"urn:oid:2.16.840.1.113883.4.4","value":"21-3259825"}],"active":true,"type":[{"coding":[{"system":"http://terminology.hl7.org/CodeSystem/organization-type","code":"pay","display":"Payer"}]}],"name":"Blue Cross Blue Shield of Texas","telecom":[{"system":"phone","value":"(+1) 972-766-6900"}],"address":[{"use":"billing","type":"postal","line":["P.O. Box 660044"],"city":"Dallas","state":"TX","postalCode":"75266-0044","country":"USA"}]},"request":{"method":"PUT","url":"Organization/4b5a882f-1f43-485c-85c6-f5ad2337d5b1"}},{"fullUrl":"https://madie.cms.gov/Practitioner/practitioner-123456","resource":{"resourceType":"Practitioner","id":"1d489b0c-94a2-41db-9a5c-7d1a622829c3","meta":{"profile":["http://hl7.org/fhir/us/qicore/StructureDefinition/qicore-practitioner"]},"identifier":[{"system":"http://hl7.org/fhir/sid/us-npi","value":"123456"}],"name":[{"family":"Evil","prefix":["Dr"]}]},"request":{"method":"PUT","url":"Practitioner/1d489b0c-94a2-41db-9a5c-7d1a622829c3"}},{"fullUrl":"https://madie.cms.gov/MeasureReport/b776fa1c-c71c-4c6c-9f67-111abe797db6","resource":{"resourceType":"MeasureReport","id":"b776fa1c-c71c-4c6c-9f67-111abe797db6","meta":{"profile":["http://hl7.org/fhir/us/cqfmeasures/StructureDefinition/test-case-cqfm"]},"contained":[{"resourceType":"Parameters","id":"110998cd-939e-4f0c-8962-6b7c30932773-parameters","parameter":[{"name":"subject","valueString":"cce515b3-72e3-4ce8-88e4-626a46d5578f"}]}],"extension":[{"url":"http://hl7.org/fhir/us/cqfmeasures/StructureDefinition/cqfm-inputParameters","valueReference":{"reference":"#110998cd-939e-4f0c-8962-6b7c30932773-parameters"}},{"url":"http://hl7.org/fhir/us/cqfmeasures/StructureDefinition/cqfm-testCaseDescription","valueMarkdown":"Patient with visual acuity less than 20/40 after cataract surgery. "}],"modifierExtension":[{"url":"http://hl7.org/fhir/us/cqfmeasures/StructureDefinition/cqfm-isTestCase","valueBoolean":true}],"status":"complete","type":"individual","measure":"https://madie.cms.gov/Measure/Cataracts2040BCVAwithin90DaysFHIR","period":{"start":"2025-01-01","end":"2025-12-31"},"group":[{"population":[{"code":{"coding":[{"system":"http://terminology.hl7.org/CodeSystem/measure-population","code":"initial-population","display":"Initial Population"}]},"count":1},{"code":{"coding":[{"system":"http://terminology.hl7.org/CodeSystem/measure-population","code":"denominator","display":"Denominator"}]},"count":1},{"code":{"coding":[{"system":"http://terminology.hl7.org/CodeSystem/measure-population","code":"denominator-exclusion","display":"Denominator Exclusion"}]},"count":0},{"code":{"coding":[{"system":"http://terminology.hl7.org/CodeSystem/measure-population","code":"numerator","display":"Numerator"}]},"count":0}]}]},"request":{"method":"PUT","url":"MeasureReport/b776fa1c-c71c-4c6c-9f67-111abe797db6"}}]}