{"resourceType":"Bundle","id":"tests-5ed37c9e-85a3-4819-8051-3d960159cae0-bundle","type":"transaction","entry":[{"fullUrl":"https://madie.cms.gov/Patient/5ed37c9e-85a3-4819-8051-3d960159cae0","resource":{"resourceType":"Patient","id":"5ed37c9e-85a3-4819-8051-3d960159cae0","meta":{"profile":["http://hl7.org/fhir/us/qicore/StructureDefinition/qicore-patient"]},"extension":[{"url":"http://hl7.org/fhir/us/core/StructureDefinition/us-core-race","extension":[{"url":"ombCategory","valueCoding":{"system":"urn:oid:2.16.840.1.113883.6.238","code":"2028-9","display":"Asian"}},{"url":"text","valueString":"Asian"}]},{"url":"http://hl7.org/fhir/us/core/StructureDefinition/us-core-ethnicity","extension":[{"url":"ombCategory","valueCoding":{"system":"urn:oid:2.16.840.1.113883.6.238","code":"2135-2","display":"Hispanic or Latino"}},{"url":"text","valueString":"Hispanic or Latino"}]}],"identifier":[{"system":"http://hospital.smarthealthit.org","value":"999999995"}],"name":[{"family":"Bertha","given":["Betty"]}],"gender":"female","birthDate":"2007-01-01"},"request":{"method":"PUT","url":"Patient/5ed37c9e-85a3-4819-8051-3d960159cae0"}},{"fullUrl":"https://madie.cms.gov/Encounter/Encounter-43","resource":{"resourceType":"Encounter","id":"d02f1825-05b7-44c5-870b-c314384b11cd","meta":{"profile":["http://hl7.org/fhir/us/qicore/StructureDefinition/qicore-encounter"]},"status":"finished","class":{"system":"http://terminology.hl7.org/CodeSystem/v3-ActCode","code":"AMB","display":"ambulatory"},"type":[{"coding":[{"system":"http://snomed.info/sct","code":"185460008","display":"Home visit request by patient (procedure)"}]}],"subject":{"reference":"Patient/5ed37c9e-85a3-4819-8051-3d960159cae0"},"period":{"start":"2025-01-01T00:00:00.000Z","end":"2025-01-01T00:15:00.000Z"}},"request":{"method":"PUT","url":"Encounter/d02f1825-05b7-44c5-870b-c314384b11cd"}},{"fullUrl":"https://madie.cms.gov/Condition/Condition-37","resource":{"resourceType":"Condition","id":"92c236bf-05ab-4bc3-9d19-4b5ad208a1c2","meta":{"profile":["http://hl7.org/fhir/us/qicore/StructureDefinition/qicore-condition"]},"clinicalStatus":{"coding":[{"system":"http://terminology.hl7.org/CodeSystem/condition-clinical","code":"active"}]},"category":[{"coding":[{"system":"http://terminology.hl7.org/CodeSystem/condition-category","code":"problem-list-item","display":"Problem List Item"}]}],"code":{"coding":[{"system":"http://snomed.info/sct","code":"102781000119107","display":"Sensory neuropathy due to type 1 diabetes mellitus (disorder)"}]},"subject":{"reference":"Patient/5ed37c9e-85a3-4819-8051-3d960159cae0"},"onsetDateTime":"2025-01-01T23:59:00.000Z"},"request":{"method":"PUT","url":"Condition/92c236bf-05ab-4bc3-9d19-4b5ad208a1c2"}},{"fullUrl":"https://madie.cms.gov/Observation/Observation-11","resource":{"resourceType":"Observation","id":"cd48d8b3-2488-42ec-aebc-a529cfe517e0","meta":{"profile":["http://hl7.org/fhir/us/qicore/StructureDefinition/qicore-observation"]},"status":"corrected","category":[{"coding":[{"system":"http://terminology.hl7.org/CodeSystem/observation-category","code":"laboratory"}]}],"code":{"coding":[{"system":"http://loinc.org","code":"17855-8","display":"Hemoglobin A1c/Hemoglobin.total in Blood by calculation"}]},"subject":{"reference":"Patient/5ed37c9e-85a3-4819-8051-3d960159cae0"},"effectivePeriod":{"start":"2024-12-31T00:00:00.000Z","end":"2025-01-01T00:00:00.000Z"},"valueCodeableConcept":{"coding":[{"system":"http://snomed.info/sct","code":"373066001","display":"Yes (qualifier value)"}]}},"request":{"method":"PUT","url":"Observation/cd48d8b3-2488-42ec-aebc-a529cfe517e0"}},{"fullUrl":"https://madie.cms.gov/MeasureReport/584b5bd0-da3f-4700-a2a5-3733a76d995c","resource":{"resourceType":"MeasureReport","id":"584b5bd0-da3f-4700-a2a5-3733a76d995c","meta":{"profile":["http://hl7.org/fhir/us/cqfmeasures/StructureDefinition/test-case-cqfm"]},"contained":[{"resourceType":"Parameters","id":"5f0576b7-88af-4aae-8418-1a245631de6c-parameters","parameter":[{"name":"subject","valueString":"5ed37c9e-85a3-4819-8051-3d960159cae0"}]}],"extension":[{"url":"http://hl7.org/fhir/us/cqfmeasures/StructureDefinition/cqfm-inputParameters","valueReference":{"reference":"#5f0576b7-88af-4aae-8418-1a245631de6c-parameters"}},{"url":"http://hl7.org/fhir/us/cqfmeasures/StructureDefinition/cqfm-testCaseDescription","valueMarkdown":"HbA1c level is 8.9%"}],"modifierExtension":[{"url":"http://hl7.org/fhir/us/cqfmeasures/StructureDefinition/cqfm-isTestCase","valueBoolean":true}],"status":"complete","type":"individual","measure":"https://madie.cms.gov/Measure/DiabetesGlycemicStatusAssessmentGreaterThan9PercentFHIR","period":{"start":"2025-01-01","end":"2025-12-31"},"group":[{"population":[{"code":{"coding":[{"system":"http://terminology.hl7.org/CodeSystem/measure-population","code":"initial-population","display":"Initial Population"}]},"count":1},{"code":{"coding":[{"system":"http://terminology.hl7.org/CodeSystem/measure-population","code":"denominator","display":"Denominator"}]},"count":1},{"code":{"coding":[{"system":"http://terminology.hl7.org/CodeSystem/measure-population","code":"denominator-exclusion","display":"Denominator Exclusion"}]},"count":0},{"code":{"coding":[{"system":"http://terminology.hl7.org/CodeSystem/measure-population","code":"numerator","display":"Numerator"}]},"count":0}]}]},"request":{"method":"PUT","url":"MeasureReport/584b5bd0-da3f-4700-a2a5-3733a76d995c"}}]}