{"resourceType":"Bundle","id":"tests-6630d394-c81d-42f5-a218-40b73a2a4949-bundle","type":"transaction","entry":[{"fullUrl":"https://madie.cms.gov/Patient/6630d394-c81d-42f5-a218-40b73a2a4949","resource":{"resourceType":"Patient","id":"6630d394-c81d-42f5-a218-40b73a2a4949","meta":{"profile":["http://hl7.org/fhir/us/qicore/StructureDefinition/qicore-patient"]},"extension":[{"url":"http://hl7.org/fhir/us/core/StructureDefinition/us-core-race","extension":[{"url":"ombCategory","valueCoding":{"system":"urn:oid:2.16.840.1.113883.6.238","code":"2028-9","display":"Asian","userSelected":true}},{"url":"text","valueString":"Asian"}]},{"url":"http://hl7.org/fhir/us/core/StructureDefinition/us-core-ethnicity","extension":[{"url":"ombCategory","valueCoding":{"system":"urn:oid:2.16.840.1.113883.6.238","code":"2135-2","display":"Hispanic or Latino","userSelected":true}},{"url":"text","valueString":"Hispanic or Latino"}]}],"identifier":[{"type":{"coding":[{"system":"http://terminology.hl7.org/CodeSystem/v2-0203","code":"MR"}]},"system":"http://hospital.smarthealthit.org","value":"999999995"}],"name":[{"family":"Bertha","given":["Betty"]}],"gender":"female","birthDate":"2006-01-01"},"request":{"method":"PUT","url":"Patient/6630d394-c81d-42f5-a218-40b73a2a4949"}},{"fullUrl":"https://madie.cms.gov/Encounter/Encounter-55","resource":{"resourceType":"Encounter","id":"77c364f8-49cb-41b0-a73f-768b363bd8ee","meta":{"profile":["http://hl7.org/fhir/us/qicore/StructureDefinition/qicore-encounter"]},"status":"finished","class":{"system":"http://terminology.hl7.org/CodeSystem/v3-ActCode","code":"AMB","display":"ambulatory"},"type":[{"coding":[{"system":"http://snomed.info/sct","code":"185460008","display":"Home visit request by patient (procedure)"}]}],"subject":{"reference":"Patient/6630d394-c81d-42f5-a218-40b73a2a4949"},"period":{"start":"2025-01-01T00:00:00.000Z","end":"2025-01-01T00:15:00.000Z"}},"request":{"method":"PUT","url":"Encounter/77c364f8-49cb-41b0-a73f-768b363bd8ee"}},{"fullUrl":"https://madie.cms.gov/Condition/Condition-49","resource":{"resourceType":"Condition","id":"642099fa-0f76-4955-95c0-7c56f7534240","meta":{"profile":["http://hl7.org/fhir/us/qicore/StructureDefinition/qicore-condition"]},"clinicalStatus":{"coding":[{"system":"http://terminology.hl7.org/CodeSystem/condition-clinical","code":"active"}]},"category":[{"coding":[{"system":"http://terminology.hl7.org/CodeSystem/condition-category","code":"problem-list-item","display":"Problem List Item"}]}],"code":{"coding":[{"system":"http://snomed.info/sct","code":"102781000119107","display":"Sensory neuropathy due to type 1 diabetes mellitus (disorder)"}]},"subject":{"reference":"Patient/6630d394-c81d-42f5-a218-40b73a2a4949"},"onsetDateTime":"2025-01-01T23:59:00.000Z"},"request":{"method":"PUT","url":"Condition/642099fa-0f76-4955-95c0-7c56f7534240"}},{"fullUrl":"https://madie.cms.gov/Observation/Observation-13","resource":{"resourceType":"Observation","id":"196ee832-a59f-463f-9f33-f777871a4de0","meta":{"profile":["http://hl7.org/fhir/us/qicore/StructureDefinition/qicore-observation"]},"status":"corrected","category":[{"coding":[{"system":"http://terminology.hl7.org/CodeSystem/observation-category","code":"laboratory"}]}],"code":{"coding":[{"system":"http://loinc.org","code":"97506-0","display":"Glucose management indicator"}]},"subject":{"reference":"Patient/6630d394-c81d-42f5-a218-40b73a2a4949"},"effectivePeriod":{"start":"2025-01-02T00:00:00.000Z","end":"2025-01-03T00:00:00.000Z"},"valueCodeableConcept":{"coding":[{"system":"http://snomed.info/sct","code":"374166001","display":"Yes (qualifier value)"}]}},"request":{"method":"PUT","url":"Observation/196ee832-a59f-463f-9f33-f777871a4de0"}},{"fullUrl":"https://madie.cms.gov/MeasureReport/4ce58978-948b-448a-a4dc-be788bba1cec","resource":{"resourceType":"MeasureReport","id":"4ce58978-948b-448a-a4dc-be788bba1cec","meta":{"profile":["http://hl7.org/fhir/us/cqfmeasures/StructureDefinition/test-case-cqfm"]},"contained":[{"resourceType":"Parameters","id":"88d5cf25-7e66-4080-bf09-6cb9bd7c81d3-parameters","parameter":[{"name":"subject","valueString":"6630d394-c81d-42f5-a218-40b73a2a4949"}]}],"extension":[{"url":"http://hl7.org/fhir/us/cqfmeasures/StructureDefinition/cqfm-inputParameters","valueReference":{"reference":"#88d5cf25-7e66-4080-bf09-6cb9bd7c81d3-parameters"}},{"url":"http://hl7.org/fhir/us/cqfmeasures/StructureDefinition/cqfm-testCaseDescription","valueMarkdown":"Glucose management indicator is greater than 9%"}],"modifierExtension":[{"url":"http://hl7.org/fhir/us/cqfmeasures/StructureDefinition/cqfm-isTestCase","valueBoolean":true}],"status":"complete","type":"individual","measure":"https://madie.cms.gov/Measure/DiabetesGlycemicStatusAssessmentGreaterThan9PercentFHIR","period":{"start":"2025-01-01","end":"2025-12-31"},"group":[{"population":[{"code":{"coding":[{"system":"http://terminology.hl7.org/CodeSystem/measure-population","code":"initial-population","display":"Initial Population"}]},"count":1},{"code":{"coding":[{"system":"http://terminology.hl7.org/CodeSystem/measure-population","code":"denominator","display":"Denominator"}]},"count":1},{"code":{"coding":[{"system":"http://terminology.hl7.org/CodeSystem/measure-population","code":"denominator-exclusion","display":"Denominator Exclusion"}]},"count":0},{"code":{"coding":[{"system":"http://terminology.hl7.org/CodeSystem/measure-population","code":"numerator","display":"Numerator"}]},"count":1}]}]},"request":{"method":"PUT","url":"MeasureReport/4ce58978-948b-448a-a4dc-be788bba1cec"}}]}