{"resourceType":"Bundle","id":"tests-e2b6e56e-7af4-4500-ab26-8cf4178ab76e-bundle","type":"transaction","entry":[{"fullUrl":"https://madie.cms.gov/Patient/e2b6e56e-7af4-4500-ab26-8cf4178ab76e","resource":{"resourceType":"Patient","id":"e2b6e56e-7af4-4500-ab26-8cf4178ab76e","meta":{"profile":["http://hl7.org/fhir/us/qicore/StructureDefinition/qicore-patient"]},"extension":[{"url":"http://hl7.org/fhir/us/core/StructureDefinition/us-core-race","extension":[{"url":"ombCategory","valueCoding":{"system":"urn:oid:2.16.840.1.113883.6.238","code":"2106-3","display":"White","userSelected":true}},{"url":"text","valueString":"White"}]},{"url":"http://hl7.org/fhir/us/core/StructureDefinition/us-core-ethnicity","extension":[{"url":"ombCategory","valueCoding":{"system":"urn:oid:2.16.840.1.113883.6.238","code":"2186-5","display":"Not Hispanic or Latino","userSelected":true}},{"url":"text","valueString":"Not Hispanic or Latino"}]}],"identifier":[{"type":{"coding":[{"system":"http://terminology.hl7.org/CodeSystem/v2-0203","code":"MR"}]},"system":"https://bonnie-fhir.healthit.gov/","value":"64946e8dd09ece2c2e9bf94c"}],"name":[{"family":"19NumFail","given":["OneEncOutOfMP"]}],"gender":"female","birthDate":"1999-03-16"},"request":{"method":"PUT","url":"Patient/e2b6e56e-7af4-4500-ab26-8cf4178ab76e"}},{"fullUrl":"https://madie.cms.gov/Condition/hiv-f94d","resource":{"resourceType":"Condition","id":"dd275016-d5ac-4c9e-9955-5c3c90284360","meta":{"profile":["http://hl7.org/fhir/us/qicore/StructureDefinition/qicore-condition"]},"clinicalStatus":{"coding":[{"system":"http://terminology.hl7.org/CodeSystem/condition-clinical","code":"active","display":"active","userSelected":true}]},"category":[{"coding":[{"system":"http://terminology.hl7.org/CodeSystem/condition-category","code":"problem-list-item","display":"Problem List Item"}]}],"code":{"coding":[{"system":"http://hl7.org/fhir/sid/icd-9-cm","version":"2013","code":"042","display":"Human immunodeficiency virus [HIV] disease","userSelected":true},{"system":"http://snomed.info/sct","code":"165816005","userSelected":true}]},"subject":{"reference":"Patient/e2b6e56e-7af4-4500-ab26-8cf4178ab76e"},"onsetDateTime":"2000-06-22T08:00:00.000+00:00","recordedDate":"2000-06-22T08:00:00.000+00:00"},"request":{"method":"PUT","url":"Condition/dd275016-d5ac-4c9e-9955-5c3c90284360"}},{"fullUrl":"https://madie.cms.gov/Encounter/outpatient-consultation-f94e","resource":{"resourceType":"Encounter","id":"d955f5b7-976e-47b7-9d69-6a20cc06cf5f","meta":{"profile":["http://hl7.org/fhir/us/qicore/StructureDefinition/qicore-encounter"]},"status":"finished","class":{"system":"http://terminology.hl7.org/CodeSystem/v3-ActCode","code":"AMB","display":"ambulatory"},"type":[{"coding":[{"system":"http://snomed.info/sct","version":"2022-09","code":"281036007","display":"Follow-up consultation (procedure)","userSelected":true}]}],"subject":{"reference":"Patient/e2b6e56e-7af4-4500-ab26-8cf4178ab76e"},"period":{"start":"2025-06-22T08:00:00.000+00:00","end":"2025-06-22T08:15:00.000+00:00"}},"request":{"method":"PUT","url":"Encounter/d955f5b7-976e-47b7-9d69-6a20cc06cf5f"}},{"fullUrl":"https://madie.cms.gov/Encounter/face-to-face-interaction-f94f","resource":{"resourceType":"Encounter","id":"e8757209-c245-41c3-9547-d4857d76a98e","meta":{"profile":["http://hl7.org/fhir/us/qicore/StructureDefinition/qicore-encounter"]},"status":"finished","class":{"system":"http://terminology.hl7.org/CodeSystem/v3-ActCode","code":"IMP","display":"inpatient encounter"},"type":[{"coding":[{"system":"http://snomed.info/sct","version":"2022-09","code":"12843005","display":"Subsequent hospital visit by physician (procedure)","userSelected":true}]}],"subject":{"reference":"Patient/e2b6e56e-7af4-4500-ab26-8cf4178ab76e"},"period":{"start":"2024-12-31T08:00:00.000+00:00","end":"2024-12-31T08:15:00.000+00:00"}},"request":{"method":"PUT","url":"Encounter/e8757209-c245-41c3-9547-d4857d76a98e"}},{"fullUrl":"https://madie.cms.gov/Coverage/1","resource":{"resourceType":"Coverage","id":"b8b4f3d0-2275-4a0a-92ed-9ba2fc128d71","meta":{"profile":["http://hl7.org/fhir/us/qicore/StructureDefinition/qicore-coverage"]},"status":"active","beneficiary":{"reference":"Patient/e2b6e56e-7af4-4500-ab26-8cf4178ab76e"},"payor":[{"reference":"Organization/26111c91-b0e2-476c-a20b-e3f39799f8f5"}]},"request":{"method":"PUT","url":"Coverage/b8b4f3d0-2275-4a0a-92ed-9ba2fc128d71"}},{"fullUrl":"https://madie.cms.gov/Organization/123456","resource":{"resourceType":"Organization","id":"26111c91-b0e2-476c-a20b-e3f39799f8f5","meta":{"profile":["http://hl7.org/fhir/us/qicore/StructureDefinition/qicore-organization"]},"identifier":[{"use":"temp","system":"urn:oid:2.16.840.1.113883.4.4","value":"21-3259825"}],"active":true,"type":[{"coding":[{"system":"http://terminology.hl7.org/CodeSystem/organization-type","code":"pay","display":"Payer"}]}],"name":"Blue Cross Blue Shield of Texas","telecom":[{"system":"phone","value":"(+1) 972-766-6900"}],"address":[{"use":"billing","type":"postal","line":["P.O. Box 660044"],"city":"Dallas","state":"TX","postalCode":"75266-0044","country":"USA"}]},"request":{"method":"PUT","url":"Organization/26111c91-b0e2-476c-a20b-e3f39799f8f5"}},{"fullUrl":"https://madie.cms.gov/Practitioner/practitioner-123456","resource":{"resourceType":"Practitioner","id":"8d13b1ec-d3ff-417c-8a9d-00a17536845d","meta":{"profile":["http://hl7.org/fhir/us/qicore/StructureDefinition/qicore-practitioner"]},"identifier":[{"system":"http://hl7.org/fhir/sid/us-npi","value":"123456"}],"name":[{"family":"Evil","prefix":["Dr"]}]},"request":{"method":"PUT","url":"Practitioner/8d13b1ec-d3ff-417c-8a9d-00a17536845d"}},{"fullUrl":"https://madie.cms.gov/MeasureReport/2e7313b4-ad6f-4444-9479-322a4acf977c","resource":{"resourceType":"MeasureReport","id":"2e7313b4-ad6f-4444-9479-322a4acf977c","meta":{"profile":["http://hl7.org/fhir/us/cqfmeasures/StructureDefinition/test-case-cqfm"]},"contained":[{"resourceType":"Parameters","id":"e84780dd-835b-4540-8261-9f3db1489583-parameters","parameter":[{"name":"subject","valueString":"e2b6e56e-7af4-4500-ab26-8cf4178ab76e"}]}],"extension":[{"url":"http://hl7.org/fhir/us/cqfmeasures/StructureDefinition/cqfm-inputParameters","valueReference":{"reference":"#e84780dd-835b-4540-8261-9f3db1489583-parameters"}},{"url":"http://hl7.org/fhir/us/cqfmeasures/StructureDefinition/cqfm-testCaseDescription","valueMarkdown":"Patient has one encounter during MP and others outside of MP. No VL."}],"modifierExtension":[{"url":"http://hl7.org/fhir/us/cqfmeasures/StructureDefinition/cqfm-isTestCase","valueBoolean":true}],"status":"complete","type":"individual","measure":"https://madie.cms.gov/Measure/HIVRetentionFHIR","period":{"start":"2025-01-01","end":"2025-12-31"},"group":[{"population":[{"code":{"coding":[{"system":"http://terminology.hl7.org/CodeSystem/measure-population","code":"initial-population","display":"Initial Population"}]},"count":1},{"code":{"coding":[{"system":"http://terminology.hl7.org/CodeSystem/measure-population","code":"denominator","display":"Denominator"}]},"count":1},{"code":{"coding":[{"system":"http://terminology.hl7.org/CodeSystem/measure-population","code":"numerator","display":"Numerator"}]},"count":0}]}]},"request":{"method":"PUT","url":"MeasureReport/2e7313b4-ad6f-4444-9479-322a4acf977c"}}]}