{"resourceType":"Bundle","id":"tests-8d813db7-b796-4f8a-a616-8ff89138159a-bundle","type":"transaction","entry":[{"fullUrl":"https://madie.cms.gov/Patient/8d813db7-b796-4f8a-a616-8ff89138159a","resource":{"resourceType":"Patient","id":"8d813db7-b796-4f8a-a616-8ff89138159a","meta":{"profile":["http://hl7.org/fhir/us/qicore/StructureDefinition/qicore-patient"]},"extension":[{"url":"http://hl7.org/fhir/us/core/StructureDefinition/us-core-race","extension":[{"url":"ombCategory","valueCoding":{"system":"urn:oid:2.16.840.1.113883.6.238","code":"2054-5","display":"Black or African American","userSelected":true}},{"url":"text","valueString":"Black or African American"}]},{"url":"http://hl7.org/fhir/us/core/StructureDefinition/us-core-ethnicity","extension":[{"url":"ombCategory","valueCoding":{"system":"urn:oid:2.16.840.1.113883.6.238","code":"2135-2","display":"Hispanic or Latino","userSelected":true}},{"url":"text","valueString":"Hispanic or Latino"}]}],"identifier":[{"type":{"coding":[{"system":"http://terminology.hl7.org/CodeSystem/v2-0203","code":"MR"}]},"system":"https://bonnie-fhir.healthit.gov/","value":"64d3eebb7483504df34e44af"}],"name":[{"family":"NumPass","given":["TwoEncOver90DaysApart DRC"]}],"gender":"male","birthDate":"1958-09-29"},"request":{"method":"PUT","url":"Patient/8d813db7-b796-4f8a-a616-8ff89138159a"}},{"fullUrl":"https://madie.cms.gov/Condition/hiv-f944","resource":{"resourceType":"Condition","id":"554c34fe-0a90-4e01-9a06-bf0602242f53","meta":{"profile":["http://hl7.org/fhir/us/qicore/StructureDefinition/qicore-condition"]},"clinicalStatus":{"coding":[{"system":"http://terminology.hl7.org/CodeSystem/condition-clinical","code":"active","display":"active","userSelected":true}]},"category":[{"coding":[{"system":"http://terminology.hl7.org/CodeSystem/condition-category","code":"problem-list-item","display":"Problem List Item"}]}],"code":{"coding":[{"system":"http://hl7.org/fhir/sid/icd-9-cm","version":"2013","code":"042","display":"Human immunodeficiency virus [HIV] disease","userSelected":true},{"system":"http://snomed.info/sct","code":"165816005","userSelected":true}]},"subject":{"reference":"Patient/8d813db7-b796-4f8a-a616-8ff89138159a"},"onsetDateTime":"2022-01-08T08:00:00.000+00:00"},"request":{"method":"PUT","url":"Condition/554c34fe-0a90-4e01-9a06-bf0602242f53"}},{"fullUrl":"https://madie.cms.gov/Encounter/office-visit-f945","resource":{"resourceType":"Encounter","id":"37ad5198-810a-48dc-adfb-fb3ce5faae79","meta":{"profile":["http://hl7.org/fhir/us/qicore/StructureDefinition/qicore-encounter"]},"status":"finished","class":{"system":"http://terminology.hl7.org/CodeSystem/v3-ActCode","code":"AMB","display":"ambulatory"},"type":[{"coding":[{"system":"http://snomed.info/sct","version":"2022-09","code":"185463005","display":"Visit out of hours (procedure)","userSelected":true}]}],"subject":{"reference":"Patient/8d813db7-b796-4f8a-a616-8ff89138159a"},"period":{"start":"2025-02-01T08:00:00.000+00:00","end":"2025-02-01T08:15:00.000+00:00"}},"request":{"method":"PUT","url":"Encounter/37ad5198-810a-48dc-adfb-fb3ce5faae79"}},{"fullUrl":"https://madie.cms.gov/Encounter/unlisted-preventive-medicine-service-44b0","resource":{"resourceType":"Encounter","id":"3756290b-bcf2-4f08-9a64-ae08fb884f7b","meta":{"profile":["http://hl7.org/fhir/us/qicore/StructureDefinition/qicore-encounter"]},"status":"finished","class":{"system":"http://terminology.hl7.org/CodeSystem/v3-ActCode","code":"AMB","display":"ambulatory"},"type":[{"coding":[{"system":"http://www.ama-assn.org/go/cpt","code":"99429","display":"Unlisted preventive medicine service","userSelected":true}]}],"subject":{"reference":"Patient/8d813db7-b796-4f8a-a616-8ff89138159a"},"period":{"start":"2025-06-01T00:00:00.000+00:00","end":"2025-06-01T08:15:00.000+00:00"}},"request":{"method":"PUT","url":"Encounter/3756290b-bcf2-4f08-9a64-ae08fb884f7b"}},{"fullUrl":"https://madie.cms.gov/Coverage/1","resource":{"resourceType":"Coverage","id":"a41b3183-d539-4f1e-8d86-4f3b401e9a70","meta":{"profile":["http://hl7.org/fhir/us/qicore/StructureDefinition/qicore-coverage"]},"status":"active","beneficiary":{"reference":"Patient/8d813db7-b796-4f8a-a616-8ff89138159a"},"payor":[{"reference":"Organization/26111c91-b0e2-476c-a20b-e3f39799f8f5"}]},"request":{"method":"PUT","url":"Coverage/a41b3183-d539-4f1e-8d86-4f3b401e9a70"}},{"fullUrl":"https://madie.cms.gov/Organization/123456","resource":{"resourceType":"Organization","id":"26111c91-b0e2-476c-a20b-e3f39799f8f5","meta":{"profile":["http://hl7.org/fhir/us/qicore/StructureDefinition/qicore-organization"]},"identifier":[{"use":"temp","system":"urn:oid:2.16.840.1.113883.4.4","value":"21-3259825"}],"active":true,"type":[{"coding":[{"system":"http://terminology.hl7.org/CodeSystem/organization-type","code":"pay","display":"Payer"}]}],"name":"Blue Cross Blue Shield of Texas","telecom":[{"system":"phone","value":"(+1) 972-766-6900"}],"address":[{"use":"billing","type":"postal","line":["P.O. Box 660044"],"city":"Dallas","state":"TX","postalCode":"75266-0044","country":"USA"}]},"request":{"method":"PUT","url":"Organization/26111c91-b0e2-476c-a20b-e3f39799f8f5"}},{"fullUrl":"https://madie.cms.gov/Practitioner/practitioner-123456","resource":{"resourceType":"Practitioner","id":"dc20c118-6abe-422f-9bf9-b210b7669a9a","meta":{"profile":["http://hl7.org/fhir/us/qicore/StructureDefinition/qicore-practitioner"]},"identifier":[{"system":"http://hl7.org/fhir/sid/us-npi","value":"123456"}],"name":[{"family":"Evil","prefix":["Dr"]}]},"request":{"method":"PUT","url":"Practitioner/dc20c118-6abe-422f-9bf9-b210b7669a9a"}},{"fullUrl":"https://madie.cms.gov/MeasureReport/990a32e2-2074-419e-8e53-5c9ca468af5c","resource":{"resourceType":"MeasureReport","id":"990a32e2-2074-419e-8e53-5c9ca468af5c","meta":{"profile":["http://hl7.org/fhir/us/cqfmeasures/StructureDefinition/test-case-cqfm"]},"contained":[{"resourceType":"Parameters","id":"ecc74850-504e-4593-9ffc-d19b767a803e-parameters","parameter":[{"name":"subject","valueString":"8d813db7-b796-4f8a-a616-8ff89138159a"}]}],"extension":[{"url":"http://hl7.org/fhir/us/cqfmeasures/StructureDefinition/cqfm-inputParameters","valueReference":{"reference":"#ecc74850-504e-4593-9ffc-d19b767a803e-parameters"}},{"url":"http://hl7.org/fhir/us/cqfmeasures/StructureDefinition/cqfm-testCaseDescription","valueMarkdown":"Patient had two encounters over 90 days apart, with one encounter being unlisted preventive medicine service."}],"modifierExtension":[{"url":"http://hl7.org/fhir/us/cqfmeasures/StructureDefinition/cqfm-isTestCase","valueBoolean":true}],"status":"complete","type":"individual","measure":"https://madie.cms.gov/Measure/HIVRetentionFHIR","period":{"start":"2025-01-01","end":"2025-12-31"},"group":[{"population":[{"code":{"coding":[{"system":"http://terminology.hl7.org/CodeSystem/measure-population","code":"initial-population","display":"Initial Population"}]},"count":1},{"code":{"coding":[{"system":"http://terminology.hl7.org/CodeSystem/measure-population","code":"denominator","display":"Denominator"}]},"count":1},{"code":{"coding":[{"system":"http://terminology.hl7.org/CodeSystem/measure-population","code":"numerator","display":"Numerator"}]},"count":1}]}]},"request":{"method":"PUT","url":"MeasureReport/990a32e2-2074-419e-8e53-5c9ca468af5c"}}]}