{
  "resourceType": "Bundle",
  "id": "363b28a9-e77d-4fee-aaaf-73ebb35bc57c",
  "type": "transaction",
  "entry": [ {
    "fullUrl": "https://madie.cms.gov/Patient/62f61668-6b4e-4d0a-be44-16a83dfec00e",
    "resource": {
      "resourceType": "Patient",
      "id": "62f61668-6b4e-4d0a-be44-16a83dfec00e",
      "meta": {
        "profile": [ "http://hl7.org/fhir/us/qicore/StructureDefinition/qicore-patient" ]
      },
      "extension": [ {
        "url": "http://hl7.org/fhir/us/core/StructureDefinition/us-core-race",
        "extension": [ {
          "url": "ombCategory",
          "valueCoding": {
            "system": "urn:oid:2.16.840.1.113883.6.238",
            "code": "2106-3",
            "display": "White"
          }
        }, {
          "url": "text",
          "valueString": "White"
        } ]
      }, {
        "url": "http://hl7.org/fhir/us/core/StructureDefinition/us-core-ethnicity",
        "extension": [ {
          "url": "ombCategory",
          "valueCoding": {
            "system": "urn:oid:2.16.840.1.113883.6.238",
            "code": "2135-2",
            "display": "Hispanic or Latino"
          }
        }, {
          "url": "text",
          "valueString": "Hispanic or Latino"
        } ]
      } ],
      "identifier": [ {
        "system": "http://hospital.smarthealthit.org",
        "value": "999999999"
      } ],
      "name": [ {
        "family": "Example",
        "given": [ "Patient" ]
      } ],
      "gender": "male",
      "birthDate": "1955-01-01"
    },
    "request": {
      "method": "POST",
      "url": "Patient/62f61668-6b4e-4d0a-be44-16a83dfec00e"
    }
  }, {
    "fullUrl": "https://madie.cms.gov/Encounter/5e8cccc8931f9c0000abd5b9",
    "resource": {
      "resourceType": "Encounter",
      "id": "5e8cccc8931f9c0000abd5b9",
      "meta": {
        "profile": [ "http://hl7.org/fhir/us/qicore/StructureDefinition/qicore-encounter" ]
      },
      "status": "finished",
      "class": {
        "system": "http://terminology.hl7.org/CodeSystem/v3-ActCode",
        "code": "IMP",
        "display": "inpatient encounter"
      },
      "type": [ {
        "coding": [ {
          "system": "http://snomed.info/sct",
          "code": "183452005"
        } ]
      } ],
      "subject": {
        "reference": "Patient/62f61668-6b4e-4d0a-be44-16a83dfec00e"
      },
      "period": {
        "start": "2025-04-07T08:00:00.000Z",
        "end": "2025-04-11T08:15:00.000Z"
      }
    },
    "request": {
      "method": "POST",
      "url": "Encounter/5e8cccc8931f9c0000abd5b9"
    }
  }, {
    "fullUrl": "https://madie.cms.gov/Observation/glucose-lab-test-mass-per-volume-22f7",
    "resource": {
      "resourceType": "Observation",
      "id": "glucose-lab-test-mass-per-volume-22f7",
      "meta": {
        "profile": [ "http://hl7.org/fhir/us/qicore/StructureDefinition/qicore-observation" ]
      },
      "status": "final",
      "category": [ {
        "coding": [ {
          "system": "http://terminology.hl7.org/CodeSystem/observation-category",
          "code": "laboratory",
          "display": "Laboratory"
        } ]
      } ],
      "code": {
        "coding": [ {
          "system": "http://loinc.org",
          "version": "2.72",
          "code": "1556-0",
          "display": "Fasting glucose [Mass/volume] in Capillary blood",
          "userSelected": true
        } ]
      },
      "subject": {
        "reference": "Patient/62f61668-6b4e-4d0a-be44-16a83dfec00e"
      },
      "effectiveDateTime": "2025-04-07T08:00:00.000+00:00",
      "valueQuantity": {
        "value": 1001,
        "unit": "mg/dL"
      }
    },
    "request": {
      "method": "POST",
      "url": "Observation/glucose-lab-test-mass-per-volume-22f7"
    }
  }, {
    "fullUrl": "https://madie.cms.gov/MeasureReport/b3fd9159-fb87-47cd-8e66-3dee329de146",
    "resource": {
      "resourceType": "MeasureReport",
      "id": "b3fd9159-fb87-47cd-8e66-3dee329de146",
      "meta": {
        "profile": [ "http://hl7.org/fhir/us/cqfmeasures/StructureDefinition/test-case-cqfm" ]
      },
      "contained": [ {
        "resourceType": "Parameters",
        "id": "ba19f071-a083-4acc-8225-3676b3196e63-parameters",
        "parameter": [ {
          "name": "subject",
          "valueString": "62f61668-6b4e-4d0a-be44-16a83dfec00e"
        } ]
      } ],
      "extension": [ {
        "url": "http://hl7.org/fhir/us/cqfmeasures/StructureDefinition/cqfm-inputParameters",
        "valueReference": {
          "reference": "#ba19f071-a083-4acc-8225-3676b3196e63-parameters"
        }
      }, {
        "url": "http://hl7.org/fhir/us/cqfmeasures/StructureDefinition/cqfm-testCaseDescription",
        "valueMarkdown": "IP encounter where glucose level >1000 mg/dL during interval (1 hour prior to admission to 6 hours after admission). Meets exclusion."
      } ],
      "modifierExtension": [ {
        "url": "http://hl7.org/fhir/us/cqfmeasures/StructureDefinition/cqfm-isTestCase",
        "valueBoolean": true
      } ],
      "status": "complete",
      "type": "individual",
      "measure": "https://madie.cms.gov/Measure/HospitalHarmHyperglycemiainHospitalizedPatientsFHIR",
      "period": {
        "start": "2025-01-01",
        "end": "2025-12-31"
      },
      "group": [ {
        "population": [ {
          "code": {
            "coding": [ {
              "system": "http://terminology.hl7.org/CodeSystem/measure-population",
              "code": "initial-population",
              "display": "Initial Population"
            } ]
          },
          "count": 1
        }, {
          "code": {
            "coding": [ {
              "system": "http://terminology.hl7.org/CodeSystem/measure-population",
              "code": "denominator",
              "display": "Denominator"
            } ]
          },
          "count": 1
        }, {
          "code": {
            "coding": [ {
              "system": "http://terminology.hl7.org/CodeSystem/measure-population",
              "code": "denominator-exclusion",
              "display": "Denominator Exclusion"
            } ]
          },
          "count": 1
        }, {
          "code": {
            "coding": [ {
              "system": "http://terminology.hl7.org/CodeSystem/measure-population",
              "code": "numerator",
              "display": "Numerator"
            } ]
          },
          "count": 0
        } ]
      } ],
      "evaluatedResource": [ {
        "reference": "https://madie.cms.gov/Patient/62f61668-6b4e-4d0a-be44-16a83dfec00e"
      }, {
        "reference": "https://madie.cms.gov/Encounter/5e8cccc8931f9c0000abd5b9"
      }, {
        "reference": "https://madie.cms.gov/Observation/glucose-lab-test-mass-per-volume-22f7"
      } ]
    },
    "request": {
      "method": "POST",
      "url": "MeasureReport/b3fd9159-fb87-47cd-8e66-3dee329de146"
    }
  } ]
}