{
  "resourceType": "Bundle",
  "id": "617bf94b1289f5673c8ceff6",
  "type": "transaction",
  "entry": [ {
    "fullUrl": "https://madie.cms.gov/Patient/ef443a3d-6cde-467d-b374-d90a2f244e83",
    "resource": {
      "resourceType": "Patient",
      "id": "ef443a3d-6cde-467d-b374-d90a2f244e83",
      "meta": {
        "profile": [ "http://hl7.org/fhir/us/qicore/StructureDefinition/qicore-patient" ]
      },
      "extension": [ {
        "url": "http://hl7.org/fhir/us/core/StructureDefinition/us-core-race",
        "extension": [ {
          "url": "ombCategory",
          "valueCoding": {
            "system": "urn:oid:2.16.840.1.113883.6.238",
            "code": "2028-9",
            "display": "Asian",
            "userSelected": true
          }
        }, {
          "url": "text",
          "valueString": "Other Race"
        } ]
      }, {
        "url": "http://hl7.org/fhir/us/core/StructureDefinition/us-core-ethnicity",
        "extension": [ {
          "url": "ombCategory",
          "valueCoding": {
            "system": "urn:oid:2.16.840.1.113883.6.238",
            "code": "2135-2",
            "display": "Hispanic or Latino",
            "userSelected": true
          }
        }, {
          "url": "text",
          "valueString": "Hispanic or Latino"
        } ]
      } ],
      "identifier": [ {
        "type": {
          "coding": [ {
            "system": "http://terminology.hl7.org/CodeSystem/v2-0203",
            "code": "MR"
          } ]
        },
        "system": "https://bonnie-fhir.healthit.gov/",
        "value": "617bf94b1289f5673c8ceff6"
      } ],
      "name": [ {
        "family": "DenExcl8Pass",
        "given": [ "AllergyStartsDuringEDNoEnd" ]
      } ],
      "gender": "male",
      "birthDate": "1984-12-02"
    },
    "request": {
      "method": "POST",
      "url": "Patient/ef443a3d-6cde-467d-b374-d90a2f244e83"
    }
  }, {
    "fullUrl": "https://madie.cms.gov/Encounter/emergency-department-visit-62c8",
    "resource": {
      "resourceType": "Encounter",
      "id": "emergency-department-visit-62c8",
      "meta": {
        "profile": [ "http://hl7.org/fhir/us/qicore/StructureDefinition/qicore-encounter" ]
      },
      "status": "finished",
      "class": {
        "system": "http://terminology.hl7.org/CodeSystem/v3-ActCode",
        "code": "EMER",
        "display": "emergency",
        "userSelected": true
      },
      "type": [ {
        "coding": [ {
          "system": "http://snomed.info/sct",
          "version": "2020-09",
          "code": "4525004",
          "display": "Emergency department patient visit (procedure)",
          "userSelected": true
        } ]
      } ],
      "subject": {
        "reference": "Patient/ef443a3d-6cde-467d-b374-d90a2f244e83"
      },
      "period": {
        "start": "2025-10-09T08:05:00.000+00:00",
        "end": "2025-10-10T07:15:00.000+00:00"
      },
      "reasonCode": [ {
        "coding": [ {
          "system": "http://snomed.info/sct",
          "version": "2020-09",
          "code": "703211006",
          "display": "Subsequent ST segment elevation myocardial infarction (disorder)",
          "userSelected": true
        } ]
      } ]
    },
    "request": {
      "method": "POST",
      "url": "Encounter/emergency-department-visit-62c8"
    }
  }, {
    "fullUrl": "https://madie.cms.gov/AllergyIntolerance/thrombolytic-medications-62c9",
    "resource": {
      "resourceType": "AllergyIntolerance",
      "id": "thrombolytic-medications-62c9",
      "meta": {
        "profile": [ "http://hl7.org/fhir/us/qicore/StructureDefinition/qicore-allergyintolerance" ]
      },
      "clinicalStatus": {
        "coding": [ {
          "system": "http://terminology.hl7.org/CodeSystem/allergyintolerance-clinical",
          "code": "active",
          "display": "allergy-active",
          "userSelected": true
        } ]
      },
      "code": {
        "coding": [ {
          "system": "http://www.nlm.nih.gov/research/umls/rxnorm",
          "version": "2021-01",
          "code": "10106",
          "display": "streptokinase",
          "userSelected": true
        } ]
      },
      "patient": {
        "reference": "Patient/ef443a3d-6cde-467d-b374-d90a2f244e83"
      },
      "onsetPeriod": {
        "start": "2020-10-09T13:00:00.000+00:00"
      }
    },
    "request": {
      "method": "POST",
      "url": "AllergyIntolerance/thrombolytic-medications-62c9"
    }
  }, {
    "fullUrl": "https://madie.cms.gov/MeasureReport/75f8556d-cfca-4f19-8870-205615f283cc",
    "resource": {
      "resourceType": "MeasureReport",
      "id": "75f8556d-cfca-4f19-8870-205615f283cc",
      "meta": {
        "profile": [ "http://hl7.org/fhir/us/cqfmeasures/StructureDefinition/test-case-cqfm" ]
      },
      "contained": [ {
        "resourceType": "Parameters",
        "id": "cff7ae48-012d-46ae-9557-cad41255a816-parameters",
        "parameter": [ {
          "name": "subject",
          "valueString": "ef443a3d-6cde-467d-b374-d90a2f244e83"
        } ]
      } ],
      "extension": [ {
        "url": "http://hl7.org/fhir/us/cqfmeasures/StructureDefinition/cqfm-inputParameters",
        "valueReference": {
          "reference": "#cff7ae48-012d-46ae-9557-cad41255a816-parameters"
        }
      }, {
        "url": "http://hl7.org/fhir/us/cqfmeasures/StructureDefinition/cqfm-testCaseDescription",
        "valueMarkdown": "Patient has allergy to medication ingredient starts during ED and no end"
      } ],
      "modifierExtension": [ {
        "url": "http://hl7.org/fhir/us/cqfmeasures/StructureDefinition/cqfm-isTestCase",
        "valueBoolean": true
      } ],
      "status": "complete",
      "type": "individual",
      "measure": "https://madie.cms.gov/Measure/AppropriateTreatmentforSTEMIFHIR",
      "period": {
        "start": "2025-01-01",
        "end": "2025-12-31"
      },
      "group": [ {
        "population": [ {
          "code": {
            "coding": [ {
              "system": "http://terminology.hl7.org/CodeSystem/measure-population",
              "code": "initial-population",
              "display": "Initial Population"
            } ]
          },
          "count": 1
        }, {
          "code": {
            "coding": [ {
              "system": "http://terminology.hl7.org/CodeSystem/measure-population",
              "code": "denominator",
              "display": "Denominator"
            } ]
          },
          "count": 1
        }, {
          "code": {
            "coding": [ {
              "system": "http://terminology.hl7.org/CodeSystem/measure-population",
              "code": "denominator-exclusion",
              "display": "Denominator Exclusion"
            } ]
          },
          "count": 1
        }, {
          "code": {
            "coding": [ {
              "system": "http://terminology.hl7.org/CodeSystem/measure-population",
              "code": "numerator",
              "display": "Numerator"
            } ]
          },
          "count": 0
        }, {
          "code": {
            "coding": [ {
              "system": "http://terminology.hl7.org/CodeSystem/measure-population",
              "code": "denominator-exception",
              "display": "Denominator Exception"
            } ]
          },
          "count": 0
        } ]
      } ],
      "evaluatedResource": [ {
        "reference": "Patient/ef443a3d-6cde-467d-b374-d90a2f244e83"
      }, {
        "reference": "Encounter/emergency-department-visit-62c8"
      }, {
        "reference": "AllergyIntolerance/thrombolytic-medications-62c9"
      } ]
    },
    "request": {
      "method": "POST",
      "url": "MeasureReport/75f8556d-cfca-4f19-8870-205615f283cc"
    }
  } ]
}