{
  "resourceType": "Bundle",
  "id": "DENEXFail-65yoInNursingHomeOnDec31OfMP",
  "type": "transaction",
  "entry": [ {
    "fullUrl": "https://madie.cms.gov/Patient/3ff1b618-c425-4d51-9447-d1c4cf048d3c",
    "resource": {
      "resourceType": "Patient",
      "id": "3ff1b618-c425-4d51-9447-d1c4cf048d3c",
      "meta": {
        "profile": [ "http://hl7.org/fhir/us/qicore/StructureDefinition/qicore-patient" ]
      },
      "extension": [ {
        "url": "http://hl7.org/fhir/us/core/StructureDefinition/us-core-race",
        "extension": [ {
          "url": "ombCategory",
          "valueCoding": {
            "system": "urn:oid:2.16.840.1.113883.6.238",
            "code": "2028-9",
            "display": "Asian"
          }
        }, {
          "url": "text",
          "valueString": "Asian"
        } ]
      }, {
        "url": "http://hl7.org/fhir/us/core/StructureDefinition/us-core-ethnicity",
        "extension": [ {
          "url": "ombCategory",
          "valueCoding": {
            "system": "urn:oid:2.16.840.1.113883.6.238",
            "code": "2135-2",
            "display": "Hispanic or Latino"
          }
        }, {
          "url": "text",
          "valueString": "Hispanic or Latino"
        } ]
      } ],
      "identifier": [ {
        "system": "http://hospital.smarthealthit.org",
        "value": "999999995"
      } ],
      "name": [ {
        "family": "Bertha",
        "given": [ "Betty" ]
      } ],
      "gender": "female",
      "birthDate": "1960-01-01"
    },
    "request": {
      "method": "POST",
      "url": "Patient/3ff1b618-c425-4d51-9447-d1c4cf048d3c"
    }
  }, {
    "fullUrl": "https://madie.cms.gov/Encounter/Encounter-20",
    "resource": {
      "resourceType": "Encounter",
      "id": "Encounter-20",
      "meta": {
        "profile": [ "http://hl7.org/fhir/us/qicore/StructureDefinition/qicore-encounter" ]
      },
      "status": "finished",
      "class": {
        "system": "http://terminology.hl7.org/CodeSystem/v3-ActCode",
        "code": "AMB",
        "display": "ambulatory"
      },
      "type": [ {
        "coding": [ {
          "system": "http://snomed.info/sct",
          "code": "185463005",
          "display": "Visit out of hours (procedure)"
        } ]
      } ],
      "subject": {
        "reference": "Patient/3ff1b618-c425-4d51-9447-d1c4cf048d3c"
      },
      "period": {
        "start": "2025-01-01T00:00:00.000Z",
        "end": "2025-01-01T00:00:00.000Z"
      }
    },
    "request": {
      "method": "POST",
      "url": "Encounter/Encounter-20"
    }
  }, {
    "fullUrl": "https://madie.cms.gov/Condition/Condition-20",
    "resource": {
      "resourceType": "Condition",
      "id": "Condition-20",
      "meta": {
        "profile": [ "http://hl7.org/fhir/us/qicore/StructureDefinition/qicore-condition" ]
      },
      "clinicalStatus": {
        "coding": [ {
          "system": "http://terminology.hl7.org/CodeSystem/condition-clinical",
          "code": "active"
        } ]
      },
      "category": [ {
        "coding": [ {
          "system": "http://terminology.hl7.org/CodeSystem/condition-category",
          "code": "problem-list-item",
          "display": "Problem List Item"
        } ]
      } ],
      "code": {
        "coding": [ {
          "system": "http://snomed.info/sct",
          "code": "102781000119107",
          "display": "Sensory neuropathy due to type 1 diabetes mellitus (disorder)"
        } ]
      },
      "subject": {
        "reference": "Patient/3ff1b618-c425-4d51-9447-d1c4cf048d3c"
      },
      "onsetDateTime": "2025-01-01T00:00:00.000Z"
    },
    "request": {
      "method": "POST",
      "url": "Condition/Condition-20"
    }
  }, {
    "fullUrl": "https://madie.cms.gov/Observation/Observation-20",
    "resource": {
      "resourceType": "Observation",
      "id": "Observation-20",
      "meta": {
        "profile": [ "http://hl7.org/fhir/us/qicore/StructureDefinition/qicore-observation" ]
      },
      "status": "final",
      "category": [ {
        "coding": [ {
          "system": "http://terminology.hl7.org/CodeSystem/observation-category",
          "code": "survey"
        } ]
      } ],
      "code": {
        "coding": [ {
          "system": "http://loinc.org",
          "code": "71802-3",
          "display": "Housing status"
        } ]
      },
      "subject": {
        "reference": "Patient/3ff1b618-c425-4d51-9447-d1c4cf048d3c"
      },
      "effectivePeriod": {
        "start": "2025-12-31T23:59:59.000Z",
        "end": "2025-12-31T23:59:59.000Z"
      },
      "valueCodeableConcept": {
        "coding": [ {
          "system": "http://snomed.info/sct",
          "code": "160734000",
          "display": "Lives in a nursing home (finding)"
        } ]
      }
    },
    "request": {
      "method": "POST",
      "url": "Observation/Observation-20"
    }
  }, {
    "fullUrl": "https://madie.cms.gov/MeasureReport/f219f244-fbb2-4b28-bd72-d03fab21e45f",
    "resource": {
      "resourceType": "MeasureReport",
      "id": "f219f244-fbb2-4b28-bd72-d03fab21e45f",
      "meta": {
        "profile": [ "http://hl7.org/fhir/us/cqfmeasures/StructureDefinition/test-case-cqfm" ]
      },
      "contained": [ {
        "resourceType": "Parameters",
        "id": "1d924377-de6c-4a2a-aec6-60113e277852-parameters",
        "parameter": [ {
          "name": "subject",
          "valueString": "3ff1b618-c425-4d51-9447-d1c4cf048d3c"
        } ]
      } ],
      "extension": [ {
        "url": "http://hl7.org/fhir/us/cqfmeasures/StructureDefinition/cqfm-inputParameters",
        "valueReference": {
          "reference": "#1d924377-de6c-4a2a-aec6-60113e277852-parameters"
        }
      }, {
        "url": "http://hl7.org/fhir/us/cqfmeasures/StructureDefinition/cqfm-testCaseDescription",
        "valueMarkdown": "Patient 65 years, 11 months & 30 days old w/ an Office Visit Encounter 1/1 of the MP & an Observation AIFrailty Living In Nursing Home that starts on 12/31 of the MP."
      } ],
      "modifierExtension": [ {
        "url": "http://hl7.org/fhir/us/cqfmeasures/StructureDefinition/cqfm-isTestCase",
        "valueBoolean": true
      } ],
      "status": "complete",
      "type": "individual",
      "measure": "https://madie.cms.gov/Measure/DiabetesEyeExamFHIR",
      "period": {
        "start": "2025-01-01",
        "end": "2025-12-31"
      },
      "group": [ {
        "population": [ {
          "code": {
            "coding": [ {
              "system": "http://terminology.hl7.org/CodeSystem/measure-population",
              "code": "initial-population",
              "display": "Initial Population"
            } ]
          },
          "count": 1
        }, {
          "code": {
            "coding": [ {
              "system": "http://terminology.hl7.org/CodeSystem/measure-population",
              "code": "denominator",
              "display": "Denominator"
            } ]
          },
          "count": 1
        }, {
          "code": {
            "coding": [ {
              "system": "http://terminology.hl7.org/CodeSystem/measure-population",
              "code": "denominator-exclusion",
              "display": "Denominator Exclusion"
            } ]
          },
          "count": 0
        }, {
          "code": {
            "coding": [ {
              "system": "http://terminology.hl7.org/CodeSystem/measure-population",
              "code": "numerator",
              "display": "Numerator"
            } ]
          },
          "count": 0
        } ]
      } ],
      "evaluatedResource": [ {
        "reference": "https://madie.cms.gov/Patient/3ff1b618-c425-4d51-9447-d1c4cf048d3c"
      }, {
        "reference": "https://madie.cms.gov/Encounter/Encounter-20"
      }, {
        "reference": "https://madie.cms.gov/Condition/Condition-20"
      }, {
        "reference": "https://madie.cms.gov/Observation/Observation-20"
      } ]
    },
    "request": {
      "method": "POST",
      "url": "MeasureReport/f219f244-fbb2-4b28-bd72-d03fab21e45f"
    }
  } ]
}