{
  "resourceType": "Bundle",
  "id": "denomfail-missingresults",
  "type": "transaction",
  "entry": [ {
    "fullUrl": "https://madie.cms.gov/Patient/11d92675-0ef8-4917-9a7c-989b61731831",
    "resource": {
      "resourceType": "Patient",
      "id": "11d92675-0ef8-4917-9a7c-989b61731831",
      "meta": {
        "profile": [ "http://hl7.org/fhir/us/core/StructureDefinition/us-core-patient", "http://hl7.org/fhir/us/qicore/StructureDefinition/qicore-patient" ]
      },
      "extension": [ {
        "url": "http://hl7.org/fhir/us/core/StructureDefinition/us-core-race",
        "extension": [ {
          "url": "ombCategory",
          "valueCoding": {
            "system": "urn:oid:2.16.840.1.113883.6.238",
            "code": "2028-9",
            "display": "Asian"
          }
        }, {
          "url": "text",
          "valueString": "Asian"
        } ]
      }, {
        "url": "http://hl7.org/fhir/us/core/StructureDefinition/us-core-ethnicity",
        "extension": [ {
          "url": "ombCategory",
          "valueCoding": {
            "system": "urn:oid:2.16.840.1.113883.6.238",
            "code": "2135-2",
            "display": "Hispanic or Latino"
          }
        }, {
          "url": "text",
          "valueString": "Hispanic or Latino"
        } ]
      } ],
      "identifier": [ {
        "system": "http://hospital.smarthealthit.org",
        "value": "999999995"
      } ],
      "name": [ {
        "family": "MissingResults",
        "given": [ "DENOMFail" ]
      } ],
      "gender": "female",
      "birthDate": "1986-06-12"
    },
    "request": {
      "method": "PUT",
      "url": "Patient/11d92675-0ef8-4917-9a7c-989b61731831"
    }
  }, {
    "fullUrl": "https://madie.cms.gov/Encounter/5e0add38-f559-49c0-941d-dcc3079a2d19",
    "resource": {
      "resourceType": "Encounter",
      "id": "5e0add38-f559-49c0-941d-dcc3079a2d19",
      "meta": {
        "profile": [ "http://hl7.org/fhir/us/qicore/StructureDefinition/qicore-encounter" ]
      },
      "status": "finished",
      "class": {
        "system": "http://terminology.hl7.org/CodeSystem/v3-ActCode",
        "code": "IMP",
        "display": "inpatient encounter"
      },
      "type": [ {
        "coding": [ {
          "system": "http://snomed.info/sct",
          "code": "183452005",
          "display": "Emergency hospital admission"
        } ]
      } ],
      "subject": {
        "reference": "Patient/11d92675-0ef8-4917-9a7c-989b61731831"
      },
      "period": {
        "start": "2025-03-01T00:00:00.000Z",
        "end": "2025-03-03T01:00:00.000Z"
      }
    },
    "request": {
      "method": "PUT",
      "url": "Encounter/5e0add38-f559-49c0-941d-dcc3079a2d19"
    }
  }, {
    "fullUrl": "https://madie.cms.gov/Observation/9df66c04-dece-4a30-a9cb-ed1aa801e4f3",
    "resource": {
      "resourceType": "Observation",
      "id": "9df66c04-dece-4a30-a9cb-ed1aa801e4f3",
      "meta": {
        "profile": [ "http://hl7.org/fhir/us/qicore/StructureDefinition/qicore-observation" ]
      },
      "status": "final",
      "category": [ {
        "coding": [ {
          "system": "http://terminology.hl7.org/CodeSystem/observation-category",
          "code": "imaging",
          "display": "Imaging"
        } ]
      } ],
      "code": {
        "coding": [ {
          "system": "http://loinc.org",
          "code": "96914-7",
          "display": "CT dose and image quality category"
        } ],
        "text": "CT dose and image quality category"
      },
      "subject": {
        "reference": "Patient/11d92675-0ef8-4917-9a7c-989b61731831"
      },
      "encounter": {
        "reference": "Encounter/5e0add38-f559-49c0-941d-dcc3079a2d19"
      },
      "effectiveDateTime": "2025-03-02T00:00:00.000Z",
      "valueCodeableConcept": {
        "coding": [ {
          "system": "http://loinc.org",
          "code": "LA31753-9",
          "display": "Abdomen and Pelvis Routine Dose"
        } ]
      }
    },
    "request": {
      "method": "PUT",
      "url": "Observation/9df66c04-dece-4a30-a9cb-ed1aa801e4f3"
    }
  }, {
    "fullUrl": "https://madie.cms.gov/MeasureReport/dc1f5d16-e761-4537-93a8-8ad75fc6e8c6",
    "resource": {
      "resourceType": "MeasureReport",
      "id": "dc1f5d16-e761-4537-93a8-8ad75fc6e8c6",
      "meta": {
        "profile": [ "http://hl7.org/fhir/us/cqfmeasures/StructureDefinition/test-case-cqfm" ]
      },
      "contained": [ {
        "resourceType": "Parameters",
        "id": "333f027c-9a85-4998-8fcb-c42fe44487b4-parameters",
        "parameter": [ {
          "name": "subject",
          "valueString": "11d92675-0ef8-4917-9a7c-989b61731831"
        } ]
      } ],
      "extension": [ {
        "url": "http://hl7.org/fhir/us/cqfmeasures/StructureDefinition/cqfm-inputParameters",
        "valueReference": {
          "reference": "#333f027c-9a85-4998-8fcb-c42fe44487b4-parameters"
        }
      }, {
        "url": "http://hl7.org/fhir/us/cqfmeasures/StructureDefinition/cqfm-testCaseDescription",
        "valueMarkdown": "Patient has a valid scan type but the noise and dose values are missing so should not meet DENOM"
      } ],
      "modifierExtension": [ {
        "url": "http://hl7.org/fhir/us/cqfmeasures/StructureDefinition/cqfm-isTestCase",
        "valueBoolean": true
      } ],
      "status": "complete",
      "type": "individual",
      "measure": "https://madie.cms.gov/Measure/AlaraCTIQRFHIR",
      "period": {
        "start": "2025-01-01",
        "end": "2025-12-31"
      },
      "group": [ {
        "population": [ {
          "code": {
            "coding": [ {
              "system": "http://terminology.hl7.org/CodeSystem/measure-population",
              "code": "initial-population",
              "display": "Initial Population"
            } ]
          },
          "count": 1
        }, {
          "code": {
            "coding": [ {
              "system": "http://terminology.hl7.org/CodeSystem/measure-population",
              "code": "denominator",
              "display": "Denominator"
            } ]
          },
          "count": 0
        }, {
          "code": {
            "coding": [ {
              "system": "http://terminology.hl7.org/CodeSystem/measure-population",
              "code": "denominator-exclusion",
              "display": "Denominator Exclusion"
            } ]
          },
          "count": 0
        }, {
          "code": {
            "coding": [ {
              "system": "http://terminology.hl7.org/CodeSystem/measure-population",
              "code": "numerator",
              "display": "Numerator"
            } ]
          },
          "count": 0
        } ]
      } ],
      "evaluatedResource": [ {
        "reference": "Patient/11d92675-0ef8-4917-9a7c-989b61731831"
      }, {
        "reference": "Encounter/5e0add38-f559-49c0-941d-dcc3079a2d19"
      }, {
        "reference": "Observation/9df66c04-dece-4a30-a9cb-ed1aa801e4f3"
      } ]
    },
    "request": {
      "method": "PUT",
      "url": "MeasureReport/dc1f5d16-e761-4537-93a8-8ad75fc6e8c6"
    }
  } ]
}