{"resourceType":"Bundle","id":"tests-9fc73a49-aeff-4770-b4bf-bbf0387708cc-bundle","type":"transaction","entry":[{"fullUrl":"https://madie.cms.gov/Patient/9fc73a49-aeff-4770-b4bf-bbf0387708cc","resource":{"resourceType":"Patient","id":"9fc73a49-aeff-4770-b4bf-bbf0387708cc","meta":{"profile":["http://hl7.org/fhir/us/qicore/StructureDefinition/qicore-patient"]},"extension":[{"url":"http://hl7.org/fhir/us/core/StructureDefinition/us-core-race","extension":[{"url":"ombCategory","valueCoding":{"system":"urn:oid:2.16.840.1.113883.6.238","code":"2028-9","display":"Asian","userSelected":true}},{"url":"text","valueString":"Asian"}]},{"url":"http://hl7.org/fhir/us/core/StructureDefinition/us-core-ethnicity","extension":[{"url":"ombCategory","valueCoding":{"system":"urn:oid:2.16.840.1.113883.6.238","code":"2186-5","display":"Not Hispanic or Latino","userSelected":true}},{"url":"text","valueString":"Not Hispanic or Latino"}]}],"identifier":[{"type":{"coding":[{"system":"http://terminology.hl7.org/CodeSystem/v2-0203","code":"MR"}]},"system":"https://bonnie-fhir.healthit.gov/","value":"62fd4b660968f8012246b012"}],"name":[{"family":"DenomPass","given":["EncAndReferralDuringPeriods"]}],"gender":"female","birthDate":"1988-11-29"},"request":{"method":"PUT","url":"Patient/9fc73a49-aeff-4770-b4bf-bbf0387708cc"}},{"fullUrl":"https://madie.cms.gov/ServiceRequest/referral-a544","resource":{"resourceType":"ServiceRequest","id":"b80cefda-3afe-473c-98af-9307fca343ba","meta":{"profile":["http://hl7.org/fhir/us/qicore/StructureDefinition/qicore-servicerequest"]},"status":"completed","intent":"order","code":{"coding":[{"system":"http://snomed.info/sct","version":"2022-03","code":"103696004","display":"Patient referral to specialist (procedure)","userSelected":true}]},"subject":{"reference":"Patient/9fc73a49-aeff-4770-b4bf-bbf0387708cc"},"authoredOn":"2025-01-01T00:00:00.000+00:00"},"request":{"method":"PUT","url":"ServiceRequest/b80cefda-3afe-473c-98af-9307fca343ba"}},{"fullUrl":"https://madie.cms.gov/Encounter/psych-visit-diagnostic-evaluation-a545","resource":{"resourceType":"Encounter","id":"b2012abc-29ef-44dc-92d2-c7645aa5849a","meta":{"profile":["http://hl7.org/fhir/us/qicore/StructureDefinition/qicore-encounter"]},"status":"finished","class":{"system":"http://terminology.hl7.org/CodeSystem/v3-ActCode","code":"AMB","display":"ambulatory"},"type":[{"coding":[{"system":"http://www.ama-assn.org/go/cpt","version":"2021","code":"90792","display":"Psychiatric diagnostic evaluation with medical services","userSelected":true}]}],"subject":{"reference":"Patient/9fc73a49-aeff-4770-b4bf-bbf0387708cc"},"period":{"start":"2025-01-01T00:00:00.000+00:00","end":"2025-01-01T00:59:00.000+00:00"}},"request":{"method":"PUT","url":"Encounter/b2012abc-29ef-44dc-92d2-c7645aa5849a"}},{"fullUrl":"https://madie.cms.gov/Coverage/1","resource":{"resourceType":"Coverage","id":"5e99da24-09ef-4d39-88f8-bab8c96aa007","meta":{"profile":["http://hl7.org/fhir/us/qicore/StructureDefinition/qicore-coverage"]},"status":"active","beneficiary":{"reference":"Patient/9fc73a49-aeff-4770-b4bf-bbf0387708cc"},"payor":[{"reference":"Organization/4b5a882f-1f43-485c-85c6-f5ad2337d5b1"}]},"request":{"method":"PUT","url":"Coverage/5e99da24-09ef-4d39-88f8-bab8c96aa007"}},{"fullUrl":"https://madie.cms.gov/Organization/123456","resource":{"resourceType":"Organization","id":"4b5a882f-1f43-485c-85c6-f5ad2337d5b1","meta":{"profile":["http://hl7.org/fhir/us/qicore/StructureDefinition/qicore-organization"]},"identifier":[{"use":"temp","system":"urn:oid:2.16.840.1.113883.4.4","value":"21-3259825"}],"active":true,"type":[{"coding":[{"system":"http://terminology.hl7.org/CodeSystem/organization-type","code":"pay","display":"Payer"}]}],"name":"Blue Cross Blue Shield of Texas","telecom":[{"system":"phone","value":"(+1) 972-766-6900"}],"address":[{"use":"billing","type":"postal","line":["P.O. Box 660044"],"city":"Dallas","state":"TX","postalCode":"75266-0044","country":"USA"}]},"request":{"method":"PUT","url":"Organization/4b5a882f-1f43-485c-85c6-f5ad2337d5b1"}},{"fullUrl":"https://madie.cms.gov/Practitioner/practitioner-123456","resource":{"resourceType":"Practitioner","id":"02136477-6e21-4fc1-a410-ba5ac15ec488","meta":{"profile":["http://hl7.org/fhir/us/qicore/StructureDefinition/qicore-practitioner"]},"identifier":[{"system":"http://hl7.org/fhir/sid/us-npi","value":"123456"}],"name":[{"family":"Evil","prefix":["Dr"]}]},"request":{"method":"PUT","url":"Practitioner/02136477-6e21-4fc1-a410-ba5ac15ec488"}},{"fullUrl":"https://madie.cms.gov/MeasureReport/d4179b64-3733-4695-9159-6ea7ee0aa942","resource":{"resourceType":"MeasureReport","id":"d4179b64-3733-4695-9159-6ea7ee0aa942","meta":{"profile":["http://hl7.org/fhir/us/cqfmeasures/StructureDefinition/test-case-cqfm"]},"contained":[{"resourceType":"Parameters","id":"9e812a85-f112-44f6-9ec3-469edb5c3442-parameters","parameter":[{"name":"subject","valueString":"9fc73a49-aeff-4770-b4bf-bbf0387708cc"}]}],"extension":[{"url":"http://hl7.org/fhir/us/cqfmeasures/StructureDefinition/cqfm-inputParameters","valueReference":{"reference":"#9e812a85-f112-44f6-9ec3-469edb5c3442-parameters"}},{"url":"http://hl7.org/fhir/us/cqfmeasures/StructureDefinition/cqfm-testCaseDescription","valueMarkdown":"Encounter first hour of MP, referral made at this time. "}],"modifierExtension":[{"url":"http://hl7.org/fhir/us/cqfmeasures/StructureDefinition/cqfm-isTestCase","valueBoolean":true}],"status":"complete","type":"individual","measure":"https://madie.cms.gov/Measure/CRLReceiptofSpecialistReportFHIR","period":{"start":"2025-01-01","end":"2025-12-31"},"group":[{"population":[{"code":{"coding":[{"system":"http://terminology.hl7.org/CodeSystem/measure-population","code":"initial-population","display":"Initial Population"}]},"count":1},{"code":{"coding":[{"system":"http://terminology.hl7.org/CodeSystem/measure-population","code":"denominator","display":"Denominator"}]},"count":1},{"code":{"coding":[{"system":"http://terminology.hl7.org/CodeSystem/measure-population","code":"numerator","display":"Numerator"}]},"count":0}]}]},"request":{"method":"PUT","url":"MeasureReport/d4179b64-3733-4695-9159-6ea7ee0aa942"}}]}