{"resourceType":"Bundle","id":"tests-81efb365-3093-433f-a571-b777b058edca-bundle","type":"transaction","entry":[{"fullUrl":"https://madie.cms.gov/Patient/81efb365-3093-433f-a571-b777b058edca","resource":{"resourceType":"Patient","id":"81efb365-3093-433f-a571-b777b058edca","meta":{"profile":["http://hl7.org/fhir/us/qicore/StructureDefinition/qicore-patient"]},"extension":[{"url":"http://hl7.org/fhir/us/core/StructureDefinition/us-core-race","extension":[{"url":"ombCategory","valueCoding":{"system":"urn:oid:2.16.840.1.113883.6.238","code":"2054-5","display":"Black or African American","userSelected":true}},{"url":"text","valueString":"Black or African American"}]},{"url":"http://hl7.org/fhir/us/core/StructureDefinition/us-core-ethnicity","extension":[{"url":"ombCategory","valueCoding":{"system":"urn:oid:2.16.840.1.113883.6.238","code":"2186-5","display":"Not Hispanic or Latino","userSelected":true}},{"url":"text","valueString":"Not Hispanic or Latino"}]}],"identifier":[{"type":{"coding":[{"system":"http://terminology.hl7.org/CodeSystem/v2-0203","code":"MR"}]},"system":"https://bonnie-fhir.healthit.gov/","value":"62fd4b710968f82603aac88c"}],"name":[{"family":"IPFail","given":["EncBeforeMP"]}],"gender":"female","birthDate":"2000-12-31"},"request":{"method":"PUT","url":"Patient/81efb365-3093-433f-a571-b777b058edca"}},{"fullUrl":"https://madie.cms.gov/Encounter/preventive-care-services-initial-office-visit-18-and-up-a533","resource":{"resourceType":"Encounter","id":"6cc3edec-7827-42f2-a722-42d6b0507f2d","meta":{"profile":["http://hl7.org/fhir/us/qicore/StructureDefinition/qicore-encounter"]},"status":"finished","class":{"system":"http://terminology.hl7.org/CodeSystem/v3-ActCode","code":"AMB","display":"ambulatory"},"type":[{"coding":[{"system":"http://www.ama-assn.org/go/cpt","version":"2021","code":"99385","display":"Initial comprehensive preventive medicine evaluation and management of an individual including an age and gender appropriate history, examination, counseling/anticipatory guidance/risk factor reduction interventions, and the ordering of laboratory/diagnostic procedures, new patient; 18-39 years","userSelected":true}]}],"subject":{"reference":"Patient/81efb365-3093-433f-a571-b777b058edca"},"period":{"start":"2024-12-31T23:00:00.000+00:00","end":"2024-12-31T23:59:00.000+00:00"}},"request":{"method":"PUT","url":"Encounter/6cc3edec-7827-42f2-a722-42d6b0507f2d"}},{"fullUrl":"https://madie.cms.gov/ServiceRequest/referral-a536","resource":{"resourceType":"ServiceRequest","id":"336ec678-1f8c-4c7a-83f6-9d5187e85e8f","meta":{"profile":["http://hl7.org/fhir/us/qicore/StructureDefinition/qicore-servicerequest"]},"status":"active","intent":"order","code":{"coding":[{"system":"http://snomed.info/sct","version":"2022-03","code":"103696004","display":"Patient referral to specialist (procedure)","userSelected":true}]},"subject":{"reference":"Patient/81efb365-3093-433f-a571-b777b058edca"},"authoredOn":"2025-08-08T08:00:00.000+00:00"},"request":{"method":"PUT","url":"ServiceRequest/336ec678-1f8c-4c7a-83f6-9d5187e85e8f"}},{"fullUrl":"https://madie.cms.gov/Coverage/1","resource":{"resourceType":"Coverage","id":"070d5d83-ce02-404d-9f8c-baf2d9346ba3","meta":{"profile":["http://hl7.org/fhir/us/qicore/StructureDefinition/qicore-coverage"]},"status":"active","beneficiary":{"reference":"Patient/81efb365-3093-433f-a571-b777b058edca"},"payor":[{"reference":"Organization/4b5a882f-1f43-485c-85c6-f5ad2337d5b1"}]},"request":{"method":"PUT","url":"Coverage/070d5d83-ce02-404d-9f8c-baf2d9346ba3"}},{"fullUrl":"https://madie.cms.gov/Organization/123456","resource":{"resourceType":"Organization","id":"4b5a882f-1f43-485c-85c6-f5ad2337d5b1","meta":{"profile":["http://hl7.org/fhir/us/qicore/StructureDefinition/qicore-organization"]},"identifier":[{"use":"temp","system":"urn:oid:2.16.840.1.113883.4.4","value":"21-3259825"}],"active":true,"type":[{"coding":[{"system":"http://terminology.hl7.org/CodeSystem/organization-type","code":"pay","display":"Payer"}]}],"name":"Blue Cross Blue Shield of Texas","telecom":[{"system":"phone","value":"(+1) 972-766-6900"}],"address":[{"use":"billing","type":"postal","line":["P.O. Box 660044"],"city":"Dallas","state":"TX","postalCode":"75266-0044","country":"USA"}]},"request":{"method":"PUT","url":"Organization/4b5a882f-1f43-485c-85c6-f5ad2337d5b1"}},{"fullUrl":"https://madie.cms.gov/Practitioner/practitioner-123456","resource":{"resourceType":"Practitioner","id":"9c739f5e-48ee-4887-ba83-839705e2fd93","meta":{"profile":["http://hl7.org/fhir/us/qicore/StructureDefinition/qicore-practitioner"]},"identifier":[{"system":"http://hl7.org/fhir/sid/us-npi","value":"123456"}],"name":[{"family":"Evil","prefix":["Dr"]}]},"request":{"method":"PUT","url":"Practitioner/9c739f5e-48ee-4887-ba83-839705e2fd93"}},{"fullUrl":"https://madie.cms.gov/MeasureReport/4e870f48-f14e-4902-9323-11087d8c1bd6","resource":{"resourceType":"MeasureReport","id":"4e870f48-f14e-4902-9323-11087d8c1bd6","meta":{"profile":["http://hl7.org/fhir/us/cqfmeasures/StructureDefinition/test-case-cqfm"]},"contained":[{"resourceType":"Parameters","id":"b2c9f76e-086d-4a1b-8694-d7ce59de19e4-parameters","parameter":[{"name":"subject","valueString":"81efb365-3093-433f-a571-b777b058edca"}]}],"extension":[{"url":"http://hl7.org/fhir/us/cqfmeasures/StructureDefinition/cqfm-inputParameters","valueReference":{"reference":"#b2c9f76e-086d-4a1b-8694-d7ce59de19e4-parameters"}},{"url":"http://hl7.org/fhir/us/cqfmeasures/StructureDefinition/cqfm-testCaseDescription","valueMarkdown":"Encounter before MP ( \"start\" : \"202x-12-31T23:00:00.000+00:00\", \"end\" : \"202x-12-31T23:59:00.000+00:00\") status finished with valid Referral Status Active Intent Order"}],"modifierExtension":[{"url":"http://hl7.org/fhir/us/cqfmeasures/StructureDefinition/cqfm-isTestCase","valueBoolean":true}],"status":"complete","type":"individual","measure":"https://madie.cms.gov/Measure/CRLReceiptofSpecialistReportFHIR","period":{"start":"2025-01-01","end":"2025-12-31"},"group":[{"population":[{"code":{"coding":[{"system":"http://terminology.hl7.org/CodeSystem/measure-population","code":"initial-population","display":"Initial Population"}]},"count":0},{"code":{"coding":[{"system":"http://terminology.hl7.org/CodeSystem/measure-population","code":"denominator","display":"Denominator"}]},"count":0},{"code":{"coding":[{"system":"http://terminology.hl7.org/CodeSystem/measure-population","code":"numerator","display":"Numerator"}]},"count":0}]}]},"request":{"method":"PUT","url":"MeasureReport/4e870f48-f14e-4902-9323-11087d8c1bd6"}}]}