{"resourceType":"Bundle","id":"tests-acbd6c6c-abcf-40a8-9ad4-a3a08ba99e36-bundle","type":"transaction","entry":[{"fullUrl":"https://madie.cms.gov/Patient/acbd6c6c-abcf-40a8-9ad4-a3a08ba99e36","resource":{"resourceType":"Patient","id":"acbd6c6c-abcf-40a8-9ad4-a3a08ba99e36","meta":{"profile":["http://hl7.org/fhir/us/qicore/StructureDefinition/qicore-patient"]},"extension":[{"url":"http://hl7.org/fhir/us/core/StructureDefinition/us-core-race","extension":[{"url":"ombCategory","valueCoding":{"system":"urn:oid:2.16.840.1.113883.6.238","code":"1002-5","display":"American Indian or Alaska Native","userSelected":true}},{"url":"text","valueString":"American Indian or Alaska Native"}]},{"url":"http://hl7.org/fhir/us/core/StructureDefinition/us-core-ethnicity","extension":[{"url":"ombCategory","valueCoding":{"system":"urn:oid:2.16.840.1.113883.6.238","code":"2135-2","display":"Hispanic or Latino","userSelected":true}},{"url":"text","valueString":"Hispanic or Latino"}]}],"identifier":[{"type":{"coding":[{"system":"http://terminology.hl7.org/CodeSystem/v2-0203","code":"MR"}]},"system":"https://bonnie-fhir.healthit.gov/","value":"62fd4b720968f82603aac8e3"}],"name":[{"family":"IPFail","given":["NoEncounter"]}],"gender":"male","birthDate":"1989-12-31"},"request":{"method":"PUT","url":"Patient/acbd6c6c-abcf-40a8-9ad4-a3a08ba99e36"}},{"fullUrl":"https://madie.cms.gov/ServiceRequest/referral-a531","resource":{"resourceType":"ServiceRequest","id":"6c6f6e37-4ebd-42a6-be1c-264c8623a473","meta":{"profile":["http://hl7.org/fhir/us/qicore/StructureDefinition/qicore-servicerequest"]},"status":"active","intent":"order","code":{"coding":[{"system":"http://snomed.info/sct","version":"2022-03","code":"103696004","display":"Patient referral to specialist (procedure)","userSelected":true}]},"subject":{"reference":"Patient/acbd6c6c-abcf-40a8-9ad4-a3a08ba99e36"},"authoredOn":"2025-01-01T00:00:00.000+00:00"},"request":{"method":"PUT","url":"ServiceRequest/6c6f6e37-4ebd-42a6-be1c-264c8623a473"}},{"fullUrl":"https://madie.cms.gov/Coverage/1","resource":{"resourceType":"Coverage","id":"669bc8f1-8ee9-4c9b-845d-ed8eb2156cf4","meta":{"profile":["http://hl7.org/fhir/us/qicore/StructureDefinition/qicore-coverage"]},"status":"active","beneficiary":{"reference":"Patient/acbd6c6c-abcf-40a8-9ad4-a3a08ba99e36"},"payor":[{"reference":"Organization/4b5a882f-1f43-485c-85c6-f5ad2337d5b1"}]},"request":{"method":"PUT","url":"Coverage/669bc8f1-8ee9-4c9b-845d-ed8eb2156cf4"}},{"fullUrl":"https://madie.cms.gov/Organization/123456","resource":{"resourceType":"Organization","id":"4b5a882f-1f43-485c-85c6-f5ad2337d5b1","meta":{"profile":["http://hl7.org/fhir/us/qicore/StructureDefinition/qicore-organization"]},"identifier":[{"use":"temp","system":"urn:oid:2.16.840.1.113883.4.4","value":"21-3259825"}],"active":true,"type":[{"coding":[{"system":"http://terminology.hl7.org/CodeSystem/organization-type","code":"pay","display":"Payer"}]}],"name":"Blue Cross Blue Shield of Texas","telecom":[{"system":"phone","value":"(+1) 972-766-6900"}],"address":[{"use":"billing","type":"postal","line":["P.O. Box 660044"],"city":"Dallas","state":"TX","postalCode":"75266-0044","country":"USA"}]},"request":{"method":"PUT","url":"Organization/4b5a882f-1f43-485c-85c6-f5ad2337d5b1"}},{"fullUrl":"https://madie.cms.gov/Practitioner/practitioner-123456","resource":{"resourceType":"Practitioner","id":"383cf138-953c-426c-815b-fe87332feb2d","meta":{"profile":["http://hl7.org/fhir/us/qicore/StructureDefinition/qicore-practitioner"]},"identifier":[{"system":"http://hl7.org/fhir/sid/us-npi","value":"123456"}],"name":[{"family":"Evil","prefix":["Dr"]}]},"request":{"method":"PUT","url":"Practitioner/383cf138-953c-426c-815b-fe87332feb2d"}},{"fullUrl":"https://madie.cms.gov/MeasureReport/df877a68-63d9-4556-af98-89069335f056","resource":{"resourceType":"MeasureReport","id":"df877a68-63d9-4556-af98-89069335f056","meta":{"profile":["http://hl7.org/fhir/us/cqfmeasures/StructureDefinition/test-case-cqfm"]},"contained":[{"resourceType":"Parameters","id":"b4b8edf7-a86f-4d82-9a3b-75986cd1733e-parameters","parameter":[{"name":"subject","valueString":"acbd6c6c-abcf-40a8-9ad4-a3a08ba99e36"}]}],"extension":[{"url":"http://hl7.org/fhir/us/cqfmeasures/StructureDefinition/cqfm-inputParameters","valueReference":{"reference":"#b4b8edf7-a86f-4d82-9a3b-75986cd1733e-parameters"}},{"url":"http://hl7.org/fhir/us/cqfmeasures/StructureDefinition/cqfm-testCaseDescription","valueMarkdown":"Valid Referral during referral period (\"202x-01-01T00:00:00.000+00:00\") with status finished and intent order.  No eligible encounter.\n"}],"modifierExtension":[{"url":"http://hl7.org/fhir/us/cqfmeasures/StructureDefinition/cqfm-isTestCase","valueBoolean":true}],"status":"complete","type":"individual","measure":"https://madie.cms.gov/Measure/CRLReceiptofSpecialistReportFHIR","period":{"start":"2025-01-01","end":"2025-12-31"},"group":[{"population":[{"code":{"coding":[{"system":"http://terminology.hl7.org/CodeSystem/measure-population","code":"initial-population","display":"Initial Population"}]},"count":0},{"code":{"coding":[{"system":"http://terminology.hl7.org/CodeSystem/measure-population","code":"denominator","display":"Denominator"}]},"count":0},{"code":{"coding":[{"system":"http://terminology.hl7.org/CodeSystem/measure-population","code":"numerator","display":"Numerator"}]},"count":0}]}]},"request":{"method":"PUT","url":"MeasureReport/df877a68-63d9-4556-af98-89069335f056"}}]}