{"resourceType":"Bundle","id":"tests-c5f2b465-bfa2-4f94-8512-ff04308a8159-bundle","type":"transaction","entry":[{"fullUrl":"https://madie.cms.gov/Patient/c5f2b465-bfa2-4f94-8512-ff04308a8159","resource":{"resourceType":"Patient","id":"c5f2b465-bfa2-4f94-8512-ff04308a8159","meta":{"profile":["http://hl7.org/fhir/us/qicore/StructureDefinition/qicore-patient"]},"extension":[{"url":"http://hl7.org/fhir/us/core/StructureDefinition/us-core-race","extension":[{"url":"ombCategory","valueCoding":{"system":"urn:oid:2.16.840.1.113883.6.238","code":"2028-9","display":"Asian","userSelected":true}},{"url":"text","valueString":"Asian"}]},{"url":"http://hl7.org/fhir/us/core/StructureDefinition/us-core-ethnicity","extension":[{"url":"ombCategory","valueCoding":{"system":"urn:oid:2.16.840.1.113883.6.238","code":"2135-2","display":"Hispanic or Latino","userSelected":true}},{"url":"text","valueString":"Hispanic or Latino"}]}],"identifier":[{"type":{"coding":[{"system":"http://terminology.hl7.org/CodeSystem/v2-0203","code":"MR"}]},"system":"http://hospital.smarthealthit.org","value":"999999995"}],"name":[{"family":"Bertha","given":["Betty"]}],"gender":"male","birthDate":"2020-01-01"},"request":{"method":"PUT","url":"Patient/c5f2b465-bfa2-4f94-8512-ff04308a8159"}},{"fullUrl":"https://madie.cms.gov/Encounter/Encounter-1","resource":{"resourceType":"Encounter","id":"d6140b52-3035-46a3-ac80-939c09353bdb","meta":{"profile":["http://hl7.org/fhir/us/qicore/StructureDefinition/qicore-encounter"]},"status":"finished","class":{"system":"http://terminology.hl7.org/CodeSystem/v3-ActCode","code":"AMB","display":"ambulatory"},"type":[{"coding":[{"system":"http://snomed.info/sct","code":"185317003","display":"Telephone encounter (procedure)"}]}],"subject":{"reference":"Patient/c5f2b465-bfa2-4f94-8512-ff04308a8159"},"period":{"start":"2025-10-11T12:45:00.000Z","end":"2025-10-11T12:59:00.000Z"}},"request":{"method":"PUT","url":"Encounter/d6140b52-3035-46a3-ac80-939c09353bdb"}},{"fullUrl":"https://madie.cms.gov/Condition/Condition-1","resource":{"resourceType":"Condition","id":"64f3d861-3c14-4de6-8360-087626e87f15","meta":{"profile":["http://hl7.org/fhir/us/qicore/StructureDefinition/qicore-condition"]},"clinicalStatus":{"coding":[{"system":"http://terminology.hl7.org/CodeSystem/condition-clinical","code":"active"}]},"category":[{"coding":[{"system":"http://terminology.hl7.org/CodeSystem/condition-category","code":"problem-list-item","display":"Problem List Item"}]}],"code":{"coding":[{"system":"http://snomed.info/sct","code":"17741008","display":"Acute tonsillitis (disorder)"}]},"subject":{"reference":"Patient/c5f2b465-bfa2-4f94-8512-ff04308a8159"},"onsetDateTime":"2025-10-11T12:48:00.000Z"},"request":{"method":"PUT","url":"Condition/64f3d861-3c14-4de6-8360-087626e87f15"}},{"fullUrl":"https://madie.cms.gov/MedicationRequest/MedicationRequest-1","resource":{"resourceType":"MedicationRequest","id":"ce2e7afc-6468-4c30-8217-c98254b7aea3","meta":{"profile":["http://hl7.org/fhir/us/qicore/StructureDefinition/qicore-medicationrequest"]},"status":"completed","intent":"order","category":[{"coding":[{"system":"http://terminology.hl7.org/CodeSystem/medicationrequest-category","code":"discharge","display":"Discharge"}]}],"medicationCodeableConcept":{"coding":[{"system":"http://www.nlm.nih.gov/research/umls/rxnorm","code":"141963","display":"azithromycin 40 MG/ML Oral Suspension","userSelected":true}]},"subject":{"reference":"Patient/c5f2b465-bfa2-4f94-8512-ff04308a8159"},"authoredOn":"2025-10-12T00:00:00.000Z","requester":{"reference":"Practitioner/example"},"dosageInstruction":[{"timing":{"repeat":{"boundsPeriod":{"start":"2025-10-12T00:00:00.000Z","end":"2025-10-20T00:00:00.000Z"}}}}]},"request":{"method":"PUT","url":"MedicationRequest/ce2e7afc-6468-4c30-8217-c98254b7aea3"}},{"fullUrl":"https://madie.cms.gov/Encounter/Encounter-2","resource":{"resourceType":"Encounter","id":"7cca3536-d1e6-454e-ad5e-d3078be633a3","meta":{"profile":["http://hl7.org/fhir/us/qicore/StructureDefinition/qicore-encounter"]},"status":"finished","class":{"system":"http://terminology.hl7.org/CodeSystem/v3-ActCode","code":"AMB","display":"ambulatory"},"type":[{"coding":[{"system":"http://snomed.info/sct","code":"183921001","display":"Admission to hospice for respite (procedure)"}]}],"subject":{"reference":"Patient/c5f2b465-bfa2-4f94-8512-ff04308a8159"},"period":{"start":"2024-12-31T23:59:59.000Z","end":"2025-01-01T01:00:00.000Z"}},"request":{"method":"PUT","url":"Encounter/7cca3536-d1e6-454e-ad5e-d3078be633a3"}},{"fullUrl":"https://madie.cms.gov/MeasureReport/a6c0f758-fccb-456a-aa7a-4c8e5fa5c64c","resource":{"resourceType":"MeasureReport","id":"a6c0f758-fccb-456a-aa7a-4c8e5fa5c64c","meta":{"profile":["http://hl7.org/fhir/us/cqfmeasures/StructureDefinition/test-case-cqfm"]},"contained":[{"resourceType":"Parameters","id":"af9ad1a5-5f78-498a-8085-35078dc2bd8d-parameters","parameter":[{"name":"subject","valueString":"c5f2b465-bfa2-4f94-8512-ff04308a8159"}]}],"extension":[{"url":"http://hl7.org/fhir/us/cqfmeasures/StructureDefinition/cqfm-inputParameters","valueReference":{"reference":"#af9ad1a5-5f78-498a-8085-35078dc2bd8d-parameters"}},{"url":"http://hl7.org/fhir/us/cqfmeasures/StructureDefinition/cqfm-testCaseDescription","valueMarkdown":"Hospice encounter overlaps the MP"}],"modifierExtension":[{"url":"http://hl7.org/fhir/us/cqfmeasures/StructureDefinition/cqfm-isTestCase","valueBoolean":true}],"status":"complete","type":"individual","measure":"https://madie.cms.gov/Measure/AppropriateTestingforPharyngitisFHIR","period":{"start":"2025-01-01","end":"2025-12-31"},"group":[{"population":[{"code":{"coding":[{"system":"http://terminology.hl7.org/CodeSystem/measure-population","code":"initial-population","display":"Initial Population"}]},"count":1},{"code":{"coding":[{"system":"http://terminology.hl7.org/CodeSystem/measure-population","code":"denominator","display":"Denominator"}]},"count":1},{"code":{"coding":[{"system":"http://terminology.hl7.org/CodeSystem/measure-population","code":"denominator-exclusion","display":"Denominator Exclusion"}]},"count":1},{"code":{"coding":[{"system":"http://terminology.hl7.org/CodeSystem/measure-population","code":"numerator","display":"Numerator"}]},"count":0}]}]},"request":{"method":"PUT","url":"MeasureReport/a6c0f758-fccb-456a-aa7a-4c8e5fa5c64c"}}]}