{"resourceType":"Bundle","id":"tests-79a2dd53-a342-41d9-a5c9-1b565bd06fe7-bundle","type":"transaction","entry":[{"fullUrl":"https://madie.cms.gov/Patient/79a2dd53-a342-41d9-a5c9-1b565bd06fe7","resource":{"resourceType":"Patient","id":"79a2dd53-a342-41d9-a5c9-1b565bd06fe7","meta":{"profile":["http://hl7.org/fhir/us/qicore/StructureDefinition/qicore-patient"]},"text":{"status":"generated","div":"<div xmlns=\"http://www.w3.org/1999/xhtml\"><div class=\"hapiHeaderText\">ProcTPA&lt;24hrB4_ED_Test_Interval <b>DENEXPASS </b></div><table class=\"hapiPropertyTable\"><tbody><tr><td>Date of birth</td><td><span>05 April 1979</span></td></tr></tbody></table></div>"},"extension":[{"url":"http://hl7.org/fhir/us/core/StructureDefinition/us-core-race","extension":[{"url":"ombCategory","valueCoding":{"system":"urn:oid:2.16.840.1.113883.6.238","code":"2106-3","display":"White","userSelected":true}},{"url":"text","valueString":"White"}]},{"url":"http://hl7.org/fhir/us/core/StructureDefinition/us-core-ethnicity","extension":[{"url":"ombCategory","valueCoding":{"system":"urn:oid:2.16.840.1.113883.6.238","code":"2186-5","display":"Not Hispanic or Latino","userSelected":true}},{"url":"text","valueString":"Not Hispanic or Latino"}]}],"identifier":[{"type":{"coding":[{"system":"http://terminology.hl7.org/CodeSystem/v2-0203","code":"MR"}]},"system":"https://bonnie-fhir.healthit.gov/","value":"60f82c3098086b570510e2cf"}],"active":true,"name":[{"use":"usual","family":"DENEXPass","given":["ProcTPA<24hrB4_ED_Test_Interval"]}],"gender":"male","birthDate":"1979-04-05"},"request":{"method":"PUT","url":"Patient/79a2dd53-a342-41d9-a5c9-1b565bd06fe7"}},{"fullUrl":"https://madie.cms.gov/Encounter/5e78c77ed9fca500001be759","resource":{"resourceType":"Encounter","id":"5e983c47-1c3b-43a9-a27b-996c8eeeaee7","meta":{"profile":["http://hl7.org/fhir/us/qicore/StructureDefinition/qicore-encounter"]},"status":"finished","class":{"system":"http://terminology.hl7.org/CodeSystem/v3-ActCode","code":"IMP","display":"inpatient encounter"},"type":[{"coding":[{"system":"http://snomed.info/sct","code":"183452005"}]}],"subject":{"reference":"Patient/79a2dd53-a342-41d9-a5c9-1b565bd06fe7"},"period":{"start":"2025-03-23T08:00:00+00:00","end":"2025-03-30T07:15:00+00:00"},"diagnosis":[{"condition":{"reference":"Condition/ischemic-stroke-6d64"},"use":{"coding":[{"system":"http://terminology.hl7.org/CodeSystem/diagnosis-role","code":"billing","display":"Billing"}]},"rank":1}]},"request":{"method":"PUT","url":"Encounter/5e983c47-1c3b-43a9-a27b-996c8eeeaee7"}},{"fullUrl":"https://madie.cms.gov/Encounter/5e78c7d7d9fca500001be779","resource":{"resourceType":"Encounter","id":"815f2257-7f0e-4d0e-a156-0c9c2acb9997","meta":{"profile":["http://hl7.org/fhir/us/qicore/StructureDefinition/qicore-encounter"]},"status":"finished","class":{"system":"http://terminology.hl7.org/CodeSystem/v3-ActCode","code":"EMER","display":"emergency"},"type":[{"coding":[{"system":"http://snomed.info/sct","code":"4525004"}]}],"subject":{"reference":"Patient/79a2dd53-a342-41d9-a5c9-1b565bd06fe7"},"period":{"start":"2025-03-22T06:00:00+00:00","end":"2025-03-23T07:15:00+00:00"}},"request":{"method":"PUT","url":"Encounter/815f2257-7f0e-4d0e-a156-0c9c2acb9997"}},{"fullUrl":"https://madie.cms.gov/MedicationAdministration/5e78cff811f77d00003c017d","resource":{"resourceType":"MedicationAdministration","id":"33825770-d2d7-4fa1-8d5b-59fdc680bf7f","meta":{"profile":["http://hl7.org/fhir/us/qicore/StructureDefinition/qicore-medicationadministration"]},"status":"completed","medicationCodeableConcept":{"coding":[{"system":"http://www.nlm.nih.gov/research/umls/rxnorm","code":"1804799"}]},"subject":{"reference":"Patient/79a2dd53-a342-41d9-a5c9-1b565bd06fe7"},"effectivePeriod":{"start":"2025-03-21T06:00:00+00:00","end":"2025-03-22T06:15:00+00:00"}},"request":{"method":"PUT","url":"MedicationAdministration/33825770-d2d7-4fa1-8d5b-59fdc680bf7f"}},{"fullUrl":"https://madie.cms.gov/MedicationRequest/5e78c867d9fca500001be7b0","resource":{"resourceType":"MedicationRequest","id":"80121a7a-0d77-457f-ac66-94fcf2f4106b","meta":{"profile":["http://hl7.org/fhir/us/qicore/StructureDefinition/qicore-medicationrequest"]},"status":"completed","intent":"order","medicationCodeableConcept":{"coding":[{"system":"http://www.nlm.nih.gov/research/umls/rxnorm","code":"1037045"}]},"subject":{"reference":"Patient/79a2dd53-a342-41d9-a5c9-1b565bd06fe7"},"authoredOn":"2025-03-23T08:00:00+00:00","requester":{"reference":"Practitioner/example"},"dosageInstruction":[{"timing":{"repeat":{"boundsPeriod":{"start":"2025-03-23T08:00:00+00:00","end":"2025-03-24T07:15:00+00:00"}}}}]},"request":{"method":"PUT","url":"MedicationRequest/80121a7a-0d77-457f-ac66-94fcf2f4106b"}},{"fullUrl":"https://madie.cms.gov/Condition/ischemic-stroke-6d64","resource":{"resourceType":"Condition","id":"c0a98169-a54f-4c04-a04d-66d8f9e64e58","meta":{"profile":["http://hl7.org/fhir/us/qicore/StructureDefinition/qicore-condition"]},"clinicalStatus":{"coding":[{"system":"http://terminology.hl7.org/CodeSystem/condition-clinical","code":"active"}]},"verificationStatus":{"coding":[{"system":"http://terminology.hl7.org/CodeSystem/condition-ver-status","code":"confirmed"}]},"category":[{"coding":[{"system":"http://terminology.hl7.org/CodeSystem/condition-category","code":"encounter-diagnosis","display":"Encounter Diagnosis"}]}],"code":{"coding":[{"system":"http://snomed.info/sct","version":"2020-09","code":"111297002","display":"Nonparalytic stroke (disorder)","userSelected":true}]},"subject":{"reference":"Patient/79a2dd53-a342-41d9-a5c9-1b565bd06fe7"},"recordedDate":"2025-08-13T08:00:00.000+00:00"},"request":{"method":"PUT","url":"Condition/c0a98169-a54f-4c04-a04d-66d8f9e64e58"}},{"fullUrl":"https://madie.cms.gov/Coverage/1","resource":{"resourceType":"Coverage","id":"bd5a6524-af08-4f87-b458-3d32583a9b2b","meta":{"profile":["http://hl7.org/fhir/us/qicore/StructureDefinition/qicore-coverage"]},"status":"active","beneficiary":{"reference":"Patient/79a2dd53-a342-41d9-a5c9-1b565bd06fe7"},"payor":[{"reference":"Organization/4b5a882f-1f43-485c-85c6-f5ad2337d5b1"}]},"request":{"method":"PUT","url":"Coverage/bd5a6524-af08-4f87-b458-3d32583a9b2b"}},{"fullUrl":"https://madie.cms.gov/Organization/123456","resource":{"resourceType":"Organization","id":"4b5a882f-1f43-485c-85c6-f5ad2337d5b1","meta":{"profile":["http://hl7.org/fhir/us/qicore/StructureDefinition/qicore-organization"]},"identifier":[{"use":"temp","system":"urn:oid:2.16.840.1.113883.4.4","value":"21-3259825"}],"active":true,"type":[{"coding":[{"system":"http://terminology.hl7.org/CodeSystem/organization-type","code":"pay","display":"Payer"}]}],"name":"Blue Cross Blue Shield of Texas","telecom":[{"system":"phone","value":"(+1) 972-766-6900"}],"address":[{"use":"billing","type":"postal","line":["P.O. Box 660044"],"city":"Dallas","state":"TX","postalCode":"75266-0044","country":"USA"}]},"request":{"method":"PUT","url":"Organization/4b5a882f-1f43-485c-85c6-f5ad2337d5b1"}},{"fullUrl":"https://madie.cms.gov/MeasureReport/f3a05518-0ad3-4e52-8de5-6afe2e15abf4","resource":{"resourceType":"MeasureReport","id":"f3a05518-0ad3-4e52-8de5-6afe2e15abf4","meta":{"profile":["http://hl7.org/fhir/us/cqfmeasures/StructureDefinition/test-case-cqfm"]},"contained":[{"resourceType":"Parameters","id":"b062b17e-98ba-467d-8f75-12c4910da469-parameters","parameter":[{"name":"subject","valueString":"79a2dd53-a342-41d9-a5c9-1b565bd06fe7"}]}],"extension":[{"url":"http://hl7.org/fhir/us/cqfmeasures/StructureDefinition/cqfm-inputParameters","valueReference":{"reference":"#b062b17e-98ba-467d-8f75-12c4910da469-parameters"}},{"url":"http://hl7.org/fhir/us/cqfmeasures/StructureDefinition/cqfm-testCaseDescription","valueMarkdown":"Testing Interval function to determine if the timing of the TPA has an affect of passing the denominator exclusion. Based on 2020 AU issue ticket 2161. Any time before hospitalization starts does not meet the exclusion. \n"}],"modifierExtension":[{"url":"http://hl7.org/fhir/us/cqfmeasures/StructureDefinition/cqfm-isTestCase","valueBoolean":true}],"status":"complete","type":"individual","measure":"https://madie.cms.gov/Measure/AntithromboticTherapyByEndofHospitalDay2FHIR","period":{"start":"2025-01-01","end":"2025-12-31"},"group":[{"population":[{"code":{"coding":[{"system":"http://terminology.hl7.org/CodeSystem/measure-population","code":"initial-population","display":"Initial Population"}]},"count":1},{"code":{"coding":[{"system":"http://terminology.hl7.org/CodeSystem/measure-population","code":"denominator","display":"Denominator"}]},"count":1},{"code":{"coding":[{"system":"http://terminology.hl7.org/CodeSystem/measure-population","code":"denominator-exclusion","display":"Denominator Exclusion"}]},"count":1},{"code":{"coding":[{"system":"http://terminology.hl7.org/CodeSystem/measure-population","code":"numerator","display":"Numerator"}]},"count":0},{"code":{"coding":[{"system":"http://terminology.hl7.org/CodeSystem/measure-population","code":"denominator-exception","display":"Denominator Exception"}]},"count":0}]}]},"request":{"method":"PUT","url":"MeasureReport/f3a05518-0ad3-4e52-8de5-6afe2e15abf4"}}]}