{"resourceType":"Bundle","id":"tests-fc921a1f-5847-4aed-82da-c65347b31dae-bundle","type":"transaction","entry":[{"fullUrl":"https://madie.cms.gov/Patient/fc921a1f-5847-4aed-82da-c65347b31dae","resource":{"resourceType":"Patient","id":"fc921a1f-5847-4aed-82da-c65347b31dae","meta":{"profile":["http://hl7.org/fhir/us/qicore/StructureDefinition/qicore-patient"]},"text":{"status":"generated","div":"<div xmlns=\"http://www.w3.org/1999/xhtml\"><div class=\"hapiHeaderText\">CMP_DayOf_RelvPerStart_OnObsStart_EDEndLT1hrB4Obs_ObsEndLT1hrB4IP <b>DENEXPASS </b></div><table class=\"hapiPropertyTable\"><tbody><tr><td>Date of birth</td><td><span>01 January 1980</span></td></tr></tbody></table></div>"},"extension":[{"url":"http://hl7.org/fhir/us/core/StructureDefinition/us-core-race","extension":[{"url":"ombCategory","valueCoding":{"system":"urn:oid:2.16.840.1.113883.6.238","code":"2106-3","display":"White","userSelected":true}},{"url":"text","valueString":"White"}]},{"url":"http://hl7.org/fhir/us/core/StructureDefinition/us-core-ethnicity","extension":[{"url":"ombCategory","valueCoding":{"system":"urn:oid:2.16.840.1.113883.6.238","code":"2186-5","display":"Not Hispanic or Latino","userSelected":true}},{"url":"text","valueString":"Not Hispanic or Latino"}]}],"identifier":[{"type":{"coding":[{"system":"http://terminology.hl7.org/CodeSystem/v2-0203","code":"MR"}]},"system":"https://bonnie-fhir.healthit.gov/","value":"60f82c3098086b570510e2e9"}],"active":true,"name":[{"use":"usual","family":"DENEXPass","given":["CMP_DayOf_RelvPerStart_OnObsStart_EDEndLT1hrB4Obs_ObsEndLT1hrB4IP"]}],"gender":"female","birthDate":"1980-01-01"},"request":{"method":"PUT","url":"Patient/fc921a1f-5847-4aed-82da-c65347b31dae"}},{"fullUrl":"https://madie.cms.gov/Encounter/5fb57d5aefbf1a000085c85e","resource":{"resourceType":"Encounter","id":"599f45d7-eb8c-4f92-9714-fe478519ca70","meta":{"profile":["http://hl7.org/fhir/us/qicore/StructureDefinition/qicore-encounter"]},"status":"finished","class":{"system":"http://terminology.hl7.org/CodeSystem/v3-ActCode","code":"EMER","display":"emergency"},"type":[{"coding":[{"system":"http://snomed.info/sct","code":"4525004"}]}],"subject":{"reference":"Patient/fc921a1f-5847-4aed-82da-c65347b31dae"},"period":{"start":"2025-11-18T07:00:00+00:00","end":"2025-11-18T08:01:00+00:00"},"diagnosis":[{"condition":{"reference":"Condition/ischemic-stroke-2d58"},"use":{"coding":[{"system":"http://terminology.hl7.org/CodeSystem/diagnosis-role","code":"billing","display":"Billing"}]},"rank":1}]},"request":{"method":"PUT","url":"Encounter/599f45d7-eb8c-4f92-9714-fe478519ca70"}},{"fullUrl":"https://madie.cms.gov/Encounter/5fb57d73efbf1a000085c870","resource":{"resourceType":"Encounter","id":"66128d7d-cd18-448b-a2bf-de006da7e50e","meta":{"profile":["http://hl7.org/fhir/us/qicore/StructureDefinition/qicore-encounter"]},"status":"finished","class":{"system":"http://terminology.hl7.org/CodeSystem/v3-ActCode","code":"OBSENC","display":"observation encounter"},"type":[{"coding":[{"system":"http://snomed.info/sct","code":"448951000124107"}]}],"subject":{"reference":"Patient/fc921a1f-5847-4aed-82da-c65347b31dae"},"period":{"start":"2025-11-18T09:00:00+00:00","end":"2025-11-18T10:01:00+00:00"}},"request":{"method":"PUT","url":"Encounter/66128d7d-cd18-448b-a2bf-de006da7e50e"}},{"fullUrl":"https://madie.cms.gov/Encounter/5fb57d9eefbf1a000085c896","resource":{"resourceType":"Encounter","id":"6a552bbe-9d6b-4477-a951-e719580a308a","meta":{"profile":["http://hl7.org/fhir/us/qicore/StructureDefinition/qicore-encounter"]},"status":"finished","class":{"system":"http://terminology.hl7.org/CodeSystem/v3-ActCode","code":"IMP","display":"inpatient encounter"},"type":[{"coding":[{"system":"http://snomed.info/sct","code":"183452005"}]}],"subject":{"reference":"Patient/fc921a1f-5847-4aed-82da-c65347b31dae"},"period":{"start":"2025-11-18T11:00:00+00:00","end":"2025-11-20T08:15:00+00:00"},"diagnosis":[{"condition":{"reference":"Condition/ischemic-stroke-2d58"},"use":{"coding":[{"system":"http://terminology.hl7.org/CodeSystem/diagnosis-role","code":"billing","display":"Billing"}]},"rank":1}]},"request":{"method":"PUT","url":"Encounter/6a552bbe-9d6b-4477-a951-e719580a308a"}},{"fullUrl":"https://madie.cms.gov/Procedure/5fb57e1fefbf1a000085c97a","resource":{"resourceType":"Procedure","id":"8e5862d2-3b4c-42dc-9e56-0cac2f886d4f","meta":{"profile":["http://hl7.org/fhir/us/qicore/StructureDefinition/qicore-procedure"]},"extension":[{"url":"http://hl7.org/fhir/us/qicore/StructureDefinition/qicore-recorded","valueDateTime":"2025-11-19T09:35:00-04:00"}],"status":"completed","code":{"coding":[{"system":"http://snomed.info/sct","code":"133918004"}]},"subject":{"reference":"Patient/fc921a1f-5847-4aed-82da-c65347b31dae"},"performedPeriod":{"start":"2025-11-18T09:00:00+00:00","end":"2025-11-18T10:01:00+00:00"}},"request":{"method":"PUT","url":"Procedure/8e5862d2-3b4c-42dc-9e56-0cac2f886d4f"}},{"fullUrl":"https://madie.cms.gov/Condition/ischemic-stroke-2d58","resource":{"resourceType":"Condition","id":"df6fb321-4413-4b18-9cf1-4efa1d4e52ee","meta":{"profile":["http://hl7.org/fhir/us/qicore/StructureDefinition/qicore-condition"]},"clinicalStatus":{"coding":[{"system":"http://terminology.hl7.org/CodeSystem/condition-clinical","code":"active"}]},"verificationStatus":{"coding":[{"system":"http://terminology.hl7.org/CodeSystem/condition-ver-status","code":"confirmed"}]},"category":[{"coding":[{"system":"http://terminology.hl7.org/CodeSystem/condition-category","code":"encounter-diagnosis","display":"Encounter Diagnosis"}]}],"code":{"coding":[{"system":"http://snomed.info/sct","version":"2020-09","code":"111297002","display":"Nonparalytic stroke (disorder)","userSelected":true}]},"subject":{"reference":"Patient/fc921a1f-5847-4aed-82da-c65347b31dae"},"recordedDate":"2025-08-13T08:00:00.000+00:00"},"request":{"method":"PUT","url":"Condition/df6fb321-4413-4b18-9cf1-4efa1d4e52ee"}},{"fullUrl":"https://madie.cms.gov/Coverage/1","resource":{"resourceType":"Coverage","id":"5e9e12cf-505d-4d2f-a437-b596fce046bf","meta":{"profile":["http://hl7.org/fhir/us/qicore/StructureDefinition/qicore-coverage"]},"status":"active","beneficiary":{"reference":"Patient/fc921a1f-5847-4aed-82da-c65347b31dae"},"payor":[{"reference":"Organization/4b5a882f-1f43-485c-85c6-f5ad2337d5b1"}]},"request":{"method":"PUT","url":"Coverage/5e9e12cf-505d-4d2f-a437-b596fce046bf"}},{"fullUrl":"https://madie.cms.gov/Organization/123456","resource":{"resourceType":"Organization","id":"4b5a882f-1f43-485c-85c6-f5ad2337d5b1","meta":{"profile":["http://hl7.org/fhir/us/qicore/StructureDefinition/qicore-organization"]},"identifier":[{"use":"temp","system":"urn:oid:2.16.840.1.113883.4.4","value":"21-3259825"}],"active":true,"type":[{"coding":[{"system":"http://terminology.hl7.org/CodeSystem/organization-type","code":"pay","display":"Payer"}]}],"name":"Blue Cross Blue Shield of Texas","telecom":[{"system":"phone","value":"(+1) 972-766-6900"}],"address":[{"use":"billing","type":"postal","line":["P.O. Box 660044"],"city":"Dallas","state":"TX","postalCode":"75266-0044","country":"USA"}]},"request":{"method":"PUT","url":"Organization/4b5a882f-1f43-485c-85c6-f5ad2337d5b1"}},{"fullUrl":"https://madie.cms.gov/MeasureReport/1194790e-d0d6-4f62-a0f6-99d7a38baa3d","resource":{"resourceType":"MeasureReport","id":"1194790e-d0d6-4f62-a0f6-99d7a38baa3d","meta":{"profile":["http://hl7.org/fhir/us/cqfmeasures/StructureDefinition/test-case-cqfm"]},"contained":[{"resourceType":"Parameters","id":"ce9f8d92-2ca7-4470-a4da-90a3bde5214e-parameters","parameter":[{"name":"subject","valueString":"fc921a1f-5847-4aed-82da-c65347b31dae"}]}],"extension":[{"url":"http://hl7.org/fhir/us/cqfmeasures/StructureDefinition/cqfm-inputParameters","valueReference":{"reference":"#ce9f8d92-2ca7-4470-a4da-90a3bde5214e-parameters"}},{"url":"http://hl7.org/fhir/us/cqfmeasures/StructureDefinition/cqfm-testCaseDescription","valueMarkdown":"Patient receives comfort measures performed on the day of hospital arrival, on Obs start. ED ends less than 1 hour before Obs Start, Obs ends less than 1 hour before IP start.\n"}],"modifierExtension":[{"url":"http://hl7.org/fhir/us/cqfmeasures/StructureDefinition/cqfm-isTestCase","valueBoolean":true}],"status":"complete","type":"individual","measure":"https://madie.cms.gov/Measure/AntithromboticTherapyByEndofHospitalDay2FHIR","period":{"start":"2025-01-01","end":"2025-12-31"},"group":[{"population":[{"code":{"coding":[{"system":"http://terminology.hl7.org/CodeSystem/measure-population","code":"initial-population","display":"Initial Population"}]},"count":1},{"code":{"coding":[{"system":"http://terminology.hl7.org/CodeSystem/measure-population","code":"denominator","display":"Denominator"}]},"count":1},{"code":{"coding":[{"system":"http://terminology.hl7.org/CodeSystem/measure-population","code":"denominator-exclusion","display":"Denominator Exclusion"}]},"count":1},{"code":{"coding":[{"system":"http://terminology.hl7.org/CodeSystem/measure-population","code":"numerator","display":"Numerator"}]},"count":0},{"code":{"coding":[{"system":"http://terminology.hl7.org/CodeSystem/measure-population","code":"denominator-exception","display":"Denominator Exception"}]},"count":0}]}]},"request":{"method":"PUT","url":"MeasureReport/1194790e-d0d6-4f62-a0f6-99d7a38baa3d"}}]}