{"resourceType":"Bundle","id":"tests-29e634bc-c361-4e6b-a44e-444abb79b2de-bundle","type":"transaction","entry":[{"fullUrl":"https://madie.cms.gov/Patient/29e634bc-c361-4e6b-a44e-444abb79b2de","resource":{"resourceType":"Patient","id":"29e634bc-c361-4e6b-a44e-444abb79b2de","meta":{"profile":["http://hl7.org/fhir/us/qicore/StructureDefinition/qicore-patient"]},"text":{"status":"generated","div":"<div xmlns=\"http://www.w3.org/1999/xhtml\"><div class=\"hapiHeaderText\">LOS&lt;2Days_ED_gt1hr_2 <b>DENEXPASS </b></div><table class=\"hapiPropertyTable\"><tbody><tr><td>Identifier</td><td>71a24a00126a8944cc0e0ccb3825c293</td></tr><tr><td>Date of birth</td><td><span>26 September 1975</span></td></tr></tbody></table></div>"},"extension":[{"url":"http://hl7.org/fhir/us/core/StructureDefinition/us-core-race","extension":[{"url":"ombCategory","valueCoding":{"system":"urn:oid:2.16.840.1.113883.6.238","code":"2054-5","display":"Black or African American","userSelected":true}},{"url":"text","valueString":"Black or African American"}]},{"url":"http://hl7.org/fhir/us/core/StructureDefinition/us-core-ethnicity","extension":[{"url":"ombCategory","valueCoding":{"system":"urn:oid:2.16.840.1.113883.6.238","code":"2186-5","display":"Not Hispanic or Latino","userSelected":true}},{"url":"text","valueString":"Not Hispanic or Latino"}]}],"identifier":[{"type":{"coding":[{"system":"http://terminology.hl7.org/CodeSystem/v2-0203","code":"MR"}]},"system":"https://bonnie-fhir.healthit.gov/","value":"60f82c2e98086b570510e27a"}],"active":true,"name":[{"use":"usual","family":"DENEXPass","given":["LOS<2Days_ED_gt1hr_2"]}],"gender":"female","birthDate":"1975-09-26"},"request":{"method":"PUT","url":"Patient/29e634bc-c361-4e6b-a44e-444abb79b2de"}},{"fullUrl":"https://madie.cms.gov/Encounter/5c954893b848462de0ae622f","resource":{"resourceType":"Encounter","id":"b87212d5-1239-4bb3-98fe-23aec4634092","meta":{"profile":["http://hl7.org/fhir/us/qicore/StructureDefinition/qicore-encounter"]},"status":"finished","class":{"system":"http://terminology.hl7.org/CodeSystem/v3-ActCode","code":"EMER","display":"emergency"},"type":[{"coding":[{"system":"http://snomed.info/sct","code":"4525004"}]}],"subject":{"reference":"Patient/29e634bc-c361-4e6b-a44e-444abb79b2de"},"period":{"start":"2025-10-09T06:00:00+00:00","end":"2025-10-10T07:15:00+00:00"},"length":{"value":1,"unit":"days"}},"request":{"method":"PUT","url":"Encounter/b87212d5-1239-4bb3-98fe-23aec4634092"}},{"fullUrl":"https://madie.cms.gov/Encounter/5c954893b848462de0ae6230","resource":{"resourceType":"Encounter","id":"9a997a50-5c1d-40e2-9a8c-4fe4c169015f","meta":{"profile":["http://hl7.org/fhir/us/qicore/StructureDefinition/qicore-encounter"]},"status":"finished","class":{"system":"http://terminology.hl7.org/CodeSystem/v3-ActCode","code":"IMP","display":"inpatient encounter"},"type":[{"coding":[{"system":"http://snomed.info/sct","code":"32485007"}]}],"subject":{"reference":"Patient/29e634bc-c361-4e6b-a44e-444abb79b2de"},"period":{"start":"2025-10-10T09:00:00+00:00","end":"2025-10-11T11:30:00+00:00"},"length":{"value":1,"unit":"days"},"diagnosis":[{"condition":{"reference":"Condition/ischemic-stroke-2d5c"},"use":{"coding":[{"system":"http://terminology.hl7.org/CodeSystem/diagnosis-role","code":"billing","display":"Billing"}]},"rank":1}]},"request":{"method":"PUT","url":"Encounter/9a997a50-5c1d-40e2-9a8c-4fe4c169015f"}},{"fullUrl":"https://madie.cms.gov/MedicationAdministration/5c954893b848462de0ae6232","resource":{"resourceType":"MedicationAdministration","id":"c9c94885-5296-4e21-b8c2-2ed9bed6786e","meta":{"profile":["http://hl7.org/fhir/us/qicore/StructureDefinition/qicore-medicationadministration"]},"status":"completed","medicationCodeableConcept":{"coding":[{"system":"http://www.nlm.nih.gov/research/umls/rxnorm","code":"198466"}]},"subject":{"reference":"Patient/29e634bc-c361-4e6b-a44e-444abb79b2de"},"effectivePeriod":{"start":"2025-10-10T06:00:00+00:00","end":"2025-10-10T07:15:00+00:00"}},"request":{"method":"PUT","url":"MedicationAdministration/c9c94885-5296-4e21-b8c2-2ed9bed6786e"}},{"fullUrl":"https://madie.cms.gov/Coverage/5e20a36b1c76ba6c5896ebdd","resource":{"resourceType":"Coverage","id":"0a75a420-e1b5-4514-b7f9-452a6a4966da","status":"active","beneficiary":{"reference":"Patient/29e634bc-c361-4e6b-a44e-444abb79b2de"},"period":{"start":"1975-09-26T08:00:00+00:00"},"payor":[{"reference":"Organization/4b5a882f-1f43-485c-85c6-f5ad2337d5b1"}]},"request":{"method":"PUT","url":"Coverage/0a75a420-e1b5-4514-b7f9-452a6a4966da"}},{"fullUrl":"https://madie.cms.gov/Condition/ischemic-stroke-2d5c","resource":{"resourceType":"Condition","id":"926c2e53-b901-4560-9765-ad0d9dcfe786","meta":{"profile":["http://hl7.org/fhir/us/qicore/StructureDefinition/qicore-condition"]},"clinicalStatus":{"coding":[{"system":"http://terminology.hl7.org/CodeSystem/condition-clinical","code":"active"}]},"verificationStatus":{"coding":[{"system":"http://terminology.hl7.org/CodeSystem/condition-ver-status","code":"confirmed"}]},"category":[{"coding":[{"system":"http://terminology.hl7.org/CodeSystem/condition-category","code":"encounter-diagnosis","display":"Encounter Diagnosis"}]}],"code":{"coding":[{"system":"http://snomed.info/sct","version":"2020-09","code":"111297002","display":"Nonparalytic stroke (disorder)","userSelected":true}]},"subject":{"reference":"Patient/29e634bc-c361-4e6b-a44e-444abb79b2de"},"recordedDate":"2025-08-13T08:00:00.000+00:00"},"request":{"method":"PUT","url":"Condition/926c2e53-b901-4560-9765-ad0d9dcfe786"}},{"fullUrl":"https://madie.cms.gov/Organization/123456","resource":{"resourceType":"Organization","id":"4b5a882f-1f43-485c-85c6-f5ad2337d5b1","meta":{"profile":["http://hl7.org/fhir/us/qicore/StructureDefinition/qicore-organization"]},"identifier":[{"use":"temp","system":"urn:oid:2.16.840.1.113883.4.4","value":"21-3259825"}],"active":true,"type":[{"coding":[{"system":"http://terminology.hl7.org/CodeSystem/organization-type","code":"pay","display":"Payer"}]}],"name":"Blue Cross Blue Shield of Texas","telecom":[{"system":"phone","value":"(+1) 972-766-6900"}],"address":[{"use":"billing","type":"postal","line":["P.O. Box 660044"],"city":"Dallas","state":"TX","postalCode":"75266-0044","country":"USA"}]},"request":{"method":"PUT","url":"Organization/4b5a882f-1f43-485c-85c6-f5ad2337d5b1"}},{"fullUrl":"https://madie.cms.gov/MeasureReport/78873076-b05d-4d49-b5ff-c1060512b1a3","resource":{"resourceType":"MeasureReport","id":"78873076-b05d-4d49-b5ff-c1060512b1a3","meta":{"profile":["http://hl7.org/fhir/us/cqfmeasures/StructureDefinition/test-case-cqfm"]},"contained":[{"resourceType":"Parameters","id":"236af965-5603-4dd6-a464-0a172427b85f-parameters","parameter":[{"name":"subject","valueString":"29e634bc-c361-4e6b-a44e-444abb79b2de"}]}],"extension":[{"url":"http://hl7.org/fhir/us/cqfmeasures/StructureDefinition/cqfm-inputParameters","valueReference":{"reference":"#236af965-5603-4dd6-a464-0a172427b85f-parameters"}},{"url":"http://hl7.org/fhir/us/cqfmeasures/StructureDefinition/cqfm-testCaseDescription","valueMarkdown":"\"LOS<2 days, Patient has ED end to Enc IP > 1 hour \nglobal.Hospitalization ( IP only)\"\n"}],"modifierExtension":[{"url":"http://hl7.org/fhir/us/cqfmeasures/StructureDefinition/cqfm-isTestCase","valueBoolean":true}],"status":"complete","type":"individual","measure":"https://madie.cms.gov/Measure/AntithromboticTherapyByEndofHospitalDay2FHIR","period":{"start":"2025-01-01","end":"2025-12-31"},"group":[{"population":[{"code":{"coding":[{"system":"http://terminology.hl7.org/CodeSystem/measure-population","code":"initial-population","display":"Initial Population"}]},"count":1},{"code":{"coding":[{"system":"http://terminology.hl7.org/CodeSystem/measure-population","code":"denominator","display":"Denominator"}]},"count":1},{"code":{"coding":[{"system":"http://terminology.hl7.org/CodeSystem/measure-population","code":"denominator-exclusion","display":"Denominator Exclusion"}]},"count":1},{"code":{"coding":[{"system":"http://terminology.hl7.org/CodeSystem/measure-population","code":"numerator","display":"Numerator"}]},"count":0},{"code":{"coding":[{"system":"http://terminology.hl7.org/CodeSystem/measure-population","code":"denominator-exception","display":"Denominator Exception"}]},"count":0}]}]},"request":{"method":"PUT","url":"MeasureReport/78873076-b05d-4d49-b5ff-c1060512b1a3"}}]}