{"resourceType":"Bundle","id":"tests-0c8a299c-b082-4383-b0b4-aebbb0fa9fb4-bundle","type":"transaction","entry":[{"fullUrl":"https://madie.cms.gov/Patient/0c8a299c-b082-4383-b0b4-aebbb0fa9fb4","resource":{"resourceType":"Patient","id":"0c8a299c-b082-4383-b0b4-aebbb0fa9fb4","meta":{"profile":["http://hl7.org/fhir/us/qicore/StructureDefinition/qicore-patient"]},"text":{"status":"generated","div":"<div xmlns=\"http://www.w3.org/1999/xhtml\"><div class=\"hapiHeaderText\">MedAntithromboticStart_gt1dayDuringEncIP <b>NUMERFAIL </b></div><table class=\"hapiPropertyTable\"><tbody><tr><td>Identifier</td><td>17d9cc11aebb5947545ea131f50a8a07</td></tr><tr><td>Date of birth</td><td><span>26 September 1975</span></td></tr></tbody></table></div>"},"extension":[{"url":"http://hl7.org/fhir/us/core/StructureDefinition/us-core-race","extension":[{"url":"ombCategory","valueCoding":{"system":"urn:oid:2.16.840.1.113883.6.238","code":"2054-5","display":"Black or African American","userSelected":true}},{"url":"text","valueString":"Black or African American"}]},{"url":"http://hl7.org/fhir/us/core/StructureDefinition/us-core-ethnicity","extension":[{"url":"ombCategory","valueCoding":{"system":"urn:oid:2.16.840.1.113883.6.238","code":"2186-5","display":"Not Hispanic or Latino","userSelected":true}},{"url":"text","valueString":"Not Hispanic or Latino"}]}],"identifier":[{"type":{"coding":[{"system":"http://terminology.hl7.org/CodeSystem/v2-0203","code":"MR"}]},"system":"https://bonnie-fhir.healthit.gov/","value":"60f82c2d98086b570510e25a"}],"active":true,"name":[{"use":"usual","family":"NUMERFail","given":["MedAntithromboticStart_gt1dayDuringEncIP"]}],"gender":"female","birthDate":"1975-09-26"},"request":{"method":"PUT","url":"Patient/0c8a299c-b082-4383-b0b4-aebbb0fa9fb4"}},{"fullUrl":"https://madie.cms.gov/Encounter/5c954892b848462de0ae61bf","resource":{"resourceType":"Encounter","id":"ed447be4-20ca-4843-8975-6dfd7cb6bfaf","meta":{"profile":["http://hl7.org/fhir/us/qicore/StructureDefinition/qicore-encounter"]},"status":"finished","class":{"system":"http://terminology.hl7.org/CodeSystem/v3-ActCode","code":"IMP","display":"inpatient encounter"},"type":[{"coding":[{"system":"http://snomed.info/sct","code":"32485007"}]}],"subject":{"reference":"Patient/0c8a299c-b082-4383-b0b4-aebbb0fa9fb4"},"period":{"start":"2025-10-10T09:00:00+00:00","end":"2025-10-12T11:15:00+00:00"},"length":{"value":2,"unit":"days"},"diagnosis":[{"condition":{"reference":"Condition/ischemic-stroke-7d5f"},"use":{"coding":[{"system":"http://terminology.hl7.org/CodeSystem/diagnosis-role","code":"billing","display":"Billing"}]},"rank":1}]},"request":{"method":"PUT","url":"Encounter/ed447be4-20ca-4843-8975-6dfd7cb6bfaf"}},{"fullUrl":"https://madie.cms.gov/MedicationAdministration/5c954892b848462de0ae61c1","resource":{"resourceType":"MedicationAdministration","id":"0a09ecc5-02bd-47c9-bbd5-e8525b005088","meta":{"profile":["http://hl7.org/fhir/us/qicore/StructureDefinition/qicore-medicationadministration"]},"status":"completed","medicationCodeableConcept":{"coding":[{"system":"http://www.nlm.nih.gov/research/umls/rxnorm","code":"198466"}]},"subject":{"reference":"Patient/0c8a299c-b082-4383-b0b4-aebbb0fa9fb4"},"effectivePeriod":{"start":"2025-10-12T00:00:00+00:00"}},"request":{"method":"PUT","url":"MedicationAdministration/0a09ecc5-02bd-47c9-bbd5-e8525b005088"}},{"fullUrl":"https://madie.cms.gov/Coverage/5e20a3671c76ba6c5896ebbd","resource":{"resourceType":"Coverage","id":"882413ec-1d30-4b28-9b37-db23343860e8","status":"active","beneficiary":{"reference":"Patient/0c8a299c-b082-4383-b0b4-aebbb0fa9fb4"},"period":{"start":"1975-09-26T08:00:00+00:00"},"payor":[{"reference":"Organization/4b5a882f-1f43-485c-85c6-f5ad2337d5b1"}]},"request":{"method":"PUT","url":"Coverage/882413ec-1d30-4b28-9b37-db23343860e8"}},{"fullUrl":"https://madie.cms.gov/Condition/ischemic-stroke-7d5f","resource":{"resourceType":"Condition","id":"786a9ce4-4391-4357-96ae-73d2c165f238","meta":{"profile":["http://hl7.org/fhir/us/qicore/StructureDefinition/qicore-condition"]},"clinicalStatus":{"coding":[{"system":"http://terminology.hl7.org/CodeSystem/condition-clinical","code":"active"}]},"verificationStatus":{"coding":[{"system":"http://terminology.hl7.org/CodeSystem/condition-ver-status","code":"confirmed"}]},"category":[{"coding":[{"system":"http://terminology.hl7.org/CodeSystem/condition-category","code":"encounter-diagnosis","display":"Encounter Diagnosis"}]}],"code":{"coding":[{"system":"http://snomed.info/sct","version":"2020-09","code":"111297002","display":"Nonparalytic stroke (disorder)","userSelected":true}]},"subject":{"reference":"Patient/0c8a299c-b082-4383-b0b4-aebbb0fa9fb4"},"recordedDate":"2025-08-16T08:00:00.000+00:00"},"request":{"method":"PUT","url":"Condition/786a9ce4-4391-4357-96ae-73d2c165f238"}},{"fullUrl":"https://madie.cms.gov/Organization/123456","resource":{"resourceType":"Organization","id":"4b5a882f-1f43-485c-85c6-f5ad2337d5b1","meta":{"profile":["http://hl7.org/fhir/us/qicore/StructureDefinition/qicore-organization"]},"identifier":[{"use":"temp","system":"urn:oid:2.16.840.1.113883.4.4","value":"21-3259825"}],"active":true,"type":[{"coding":[{"system":"http://terminology.hl7.org/CodeSystem/organization-type","code":"pay","display":"Payer"}]}],"name":"Blue Cross Blue Shield of Texas","telecom":[{"system":"phone","value":"(+1) 972-766-6900"}],"address":[{"use":"billing","type":"postal","line":["P.O. Box 660044"],"city":"Dallas","state":"TX","postalCode":"75266-0044","country":"USA"}]},"request":{"method":"PUT","url":"Organization/4b5a882f-1f43-485c-85c6-f5ad2337d5b1"}},{"fullUrl":"https://madie.cms.gov/Practitioner/practitioner-123456","resource":{"resourceType":"Practitioner","id":"d6c4fa04-3028-42ce-bb88-a0bf60fc1f17","identifier":[{"system":"http://hl7.org/fhir/sid/us-npi","value":"123456"}],"name":[{"family":"Evil","prefix":["Dr"]}]},"request":{"method":"PUT","url":"Practitioner/d6c4fa04-3028-42ce-bb88-a0bf60fc1f17"}},{"fullUrl":"https://madie.cms.gov/MeasureReport/4b6bfccf-ba59-4fb7-84eb-8e6e1b4837cc","resource":{"resourceType":"MeasureReport","id":"4b6bfccf-ba59-4fb7-84eb-8e6e1b4837cc","meta":{"profile":["http://hl7.org/fhir/us/cqfmeasures/StructureDefinition/test-case-cqfm"]},"contained":[{"resourceType":"Parameters","id":"3b5afabf-343e-4a58-88a1-08ff9f30187f-parameters","parameter":[{"name":"subject","valueString":"0c8a299c-b082-4383-b0b4-aebbb0fa9fb4"}]}],"extension":[{"url":"http://hl7.org/fhir/us/cqfmeasures/StructureDefinition/cqfm-inputParameters","valueReference":{"reference":"#3b5afabf-343e-4a58-88a1-08ff9f30187f-parameters"}},{"url":"http://hl7.org/fhir/us/cqfmeasures/StructureDefinition/cqfm-testCaseDescription","valueMarkdown":"\"Patient receives antithrombotic in the ED. MedAntithromboticStart EQ 1day \nglobal.\"\"Hospitalization\"\" =(Ed+IP)\"\n"}],"modifierExtension":[{"url":"http://hl7.org/fhir/us/cqfmeasures/StructureDefinition/cqfm-isTestCase","valueBoolean":true}],"status":"complete","type":"individual","measure":"https://madie.cms.gov/Measure/AntithromboticTherapyByEndofHospitalDay2FHIR","period":{"start":"2025-01-01","end":"2025-12-31"},"group":[{"population":[{"code":{"coding":[{"system":"http://terminology.hl7.org/CodeSystem/measure-population","code":"initial-population","display":"Initial Population"}]},"count":1},{"code":{"coding":[{"system":"http://terminology.hl7.org/CodeSystem/measure-population","code":"denominator","display":"Denominator"}]},"count":1},{"code":{"coding":[{"system":"http://terminology.hl7.org/CodeSystem/measure-population","code":"denominator-exclusion","display":"Denominator Exclusion"}]},"count":0},{"code":{"coding":[{"system":"http://terminology.hl7.org/CodeSystem/measure-population","code":"numerator","display":"Numerator"}]},"count":0},{"code":{"coding":[{"system":"http://terminology.hl7.org/CodeSystem/measure-population","code":"denominator-exception","display":"Denominator Exception"}]},"count":0}]}]},"request":{"method":"PUT","url":"MeasureReport/4b6bfccf-ba59-4fb7-84eb-8e6e1b4837cc"}}]}