{"resourceType":"Bundle","id":"tests-55da835c-4baf-4a94-8ad9-c741739ffcf2-bundle","type":"transaction","entry":[{"fullUrl":"https://madie.cms.gov/Patient/55da835c-4baf-4a94-8ad9-c741739ffcf2","resource":{"resourceType":"Patient","id":"55da835c-4baf-4a94-8ad9-c741739ffcf2","meta":{"profile":["http://hl7.org/fhir/us/qicore/StructureDefinition/qicore-patient"]},"text":{"status":"generated","div":"<div xmlns=\"http://www.w3.org/1999/xhtml\"><div class=\"hapiHeaderText\">EncDx=HemStroke <b>IPPFAIL </b></div><table class=\"hapiPropertyTable\"><tbody><tr><td>Identifier</td><td>848ac673bb103466548c7051158ce798</td></tr><tr><td>Date of birth</td><td><span>20 August 1994</span></td></tr></tbody></table></div>"},"extension":[{"url":"http://hl7.org/fhir/us/core/StructureDefinition/us-core-race","extension":[{"url":"ombCategory","valueCoding":{"system":"urn:oid:2.16.840.1.113883.6.238","code":"1002-5","display":"American Indian or Alaska Native","userSelected":true}},{"url":"text","valueString":"American Indian or Alaska Native"}]},{"url":"http://hl7.org/fhir/us/core/StructureDefinition/us-core-ethnicity","extension":[{"url":"ombCategory","valueCoding":{"system":"urn:oid:2.16.840.1.113883.6.238","code":"2186-5","display":"Not Hispanic or Latino","userSelected":true}},{"url":"text","valueString":"Not Hispanic or Latino"}]}],"identifier":[{"type":{"coding":[{"system":"http://terminology.hl7.org/CodeSystem/v2-0203","code":"MR"}]},"system":"https://bonnie-fhir.healthit.gov/","value":"60f82c2e98086b570510e276"}],"active":true,"name":[{"use":"usual","family":"IPPFail","given":["EncDx=HemStroke"]}],"gender":"male","birthDate":"1994-08-20"},"request":{"method":"PUT","url":"Patient/55da835c-4baf-4a94-8ad9-c741739ffcf2"}},{"fullUrl":"https://madie.cms.gov/Encounter/5c954893b848462de0ae6227","resource":{"resourceType":"Encounter","id":"895ee27d-30c7-4a5e-8143-213a69b29adc","meta":{"profile":["http://hl7.org/fhir/us/qicore/StructureDefinition/qicore-encounter"]},"status":"finished","class":{"system":"http://terminology.hl7.org/CodeSystem/v3-ActCode","code":"IMP","display":"inpatient encounter"},"type":[{"coding":[{"system":"http://snomed.info/sct","code":"32485007"}]}],"subject":{"reference":"Patient/55da835c-4baf-4a94-8ad9-c741739ffcf2"},"period":{"start":"2025-08-21T00:00:00+00:00","end":"2025-12-18T23:59:00+00:00"},"length":{"value":119.0,"unit":"days"},"diagnosis":[{"condition":{"reference":"Condition/hemorrhagic-stroke-7d41"},"use":{"coding":[{"system":"http://snomed.info/sct","code":"195155004","display":"Hemorrhagic Stroke"}]}}]},"request":{"method":"PUT","url":"Encounter/895ee27d-30c7-4a5e-8143-213a69b29adc"}},{"fullUrl":"https://madie.cms.gov/Coverage/5e20a36a1c76ba6c5896ebd9","resource":{"resourceType":"Coverage","id":"83871c1a-787a-42ff-9e85-1e3a7fe44a4a","status":"active","beneficiary":{"reference":"Patient/55da835c-4baf-4a94-8ad9-c741739ffcf2"},"period":{"start":"1994-08-20T07:00:00+00:00"},"payor":[{"reference":"Organization/4b5a882f-1f43-485c-85c6-f5ad2337d5b1"}]},"request":{"method":"PUT","url":"Coverage/83871c1a-787a-42ff-9e85-1e3a7fe44a4a"}},{"fullUrl":"https://madie.cms.gov/Condition/hemorrhagic-stroke-7d41","resource":{"resourceType":"Condition","id":"98fd00f7-5e07-4e4e-87ef-5542ddba42a1","meta":{"profile":["http://hl7.org/fhir/us/qicore/StructureDefinition/qicore-condition"]},"clinicalStatus":{"coding":[{"system":"http://terminology.hl7.org/CodeSystem/condition-clinical","code":"active"}]},"verificationStatus":{"coding":[{"system":"http://terminology.hl7.org/CodeSystem/condition-ver-status","code":"confirmed"}]},"category":[{"coding":[{"system":"http://terminology.hl7.org/CodeSystem/condition-category","code":"encounter-diagnosis","display":"Encounter Diagnosis"}]}],"code":{"coding":[{"system":"http://snomed.info/sct","version":"2020-09","code":"195155004","display":"Subarachnoid hemorrhage from carotid siphon and bifurcation (disorder)","userSelected":true}]},"subject":{"reference":"Patient/55da835c-4baf-4a94-8ad9-c741739ffcf2"},"recordedDate":"2025-08-16T08:00:00.000+00:00"},"request":{"method":"PUT","url":"Condition/98fd00f7-5e07-4e4e-87ef-5542ddba42a1"}},{"fullUrl":"https://madie.cms.gov/Organization/123456","resource":{"resourceType":"Organization","id":"4b5a882f-1f43-485c-85c6-f5ad2337d5b1","meta":{"profile":["http://hl7.org/fhir/us/qicore/StructureDefinition/qicore-organization"]},"identifier":[{"use":"temp","system":"urn:oid:2.16.840.1.113883.4.4","value":"21-3259825"}],"active":true,"type":[{"coding":[{"system":"http://terminology.hl7.org/CodeSystem/organization-type","code":"pay","display":"Payer"}]}],"name":"Blue Cross Blue Shield of Texas","telecom":[{"system":"phone","value":"(+1) 972-766-6900"}],"address":[{"use":"billing","type":"postal","line":["P.O. Box 660044"],"city":"Dallas","state":"TX","postalCode":"75266-0044","country":"USA"}]},"request":{"method":"PUT","url":"Organization/4b5a882f-1f43-485c-85c6-f5ad2337d5b1"}},{"fullUrl":"https://madie.cms.gov/Practitioner/practitioner-123456","resource":{"resourceType":"Practitioner","id":"9d0ef2e9-6e35-43a6-8fcc-4855a7736fe1","identifier":[{"system":"http://hl7.org/fhir/sid/us-npi","value":"123456"}],"name":[{"family":"Evil","prefix":["Dr"]}]},"request":{"method":"PUT","url":"Practitioner/9d0ef2e9-6e35-43a6-8fcc-4855a7736fe1"}},{"fullUrl":"https://madie.cms.gov/MeasureReport/0e603c97-229c-4529-a032-dc381da2ed14","resource":{"resourceType":"MeasureReport","id":"0e603c97-229c-4529-a032-dc381da2ed14","meta":{"profile":["http://hl7.org/fhir/us/cqfmeasures/StructureDefinition/test-case-cqfm"]},"contained":[{"resourceType":"Parameters","id":"3fcdd661-ff73-4390-85c1-a74e1889f00f-parameters","parameter":[{"name":"subject","valueString":"55da835c-4baf-4a94-8ad9-c741739ffcf2"}]}],"extension":[{"url":"http://hl7.org/fhir/us/cqfmeasures/StructureDefinition/cqfm-inputParameters","valueReference":{"reference":"#3fcdd661-ff73-4390-85c1-a74e1889f00f-parameters"}},{"url":"http://hl7.org/fhir/us/cqfmeasures/StructureDefinition/cqfm-testCaseDescription","valueMarkdown":"EncDx=HemStroke   \n"}],"modifierExtension":[{"url":"http://hl7.org/fhir/us/cqfmeasures/StructureDefinition/cqfm-isTestCase","valueBoolean":true}],"status":"complete","type":"individual","measure":"https://madie.cms.gov/Measure/AntithromboticTherapyByEndofHospitalDay2FHIR","period":{"start":"2025-01-01","end":"2025-12-31"},"group":[{"population":[{"code":{"coding":[{"system":"http://terminology.hl7.org/CodeSystem/measure-population","code":"initial-population","display":"Initial Population"}]},"count":0},{"code":{"coding":[{"system":"http://terminology.hl7.org/CodeSystem/measure-population","code":"denominator","display":"Denominator"}]},"count":0},{"code":{"coding":[{"system":"http://terminology.hl7.org/CodeSystem/measure-population","code":"denominator-exclusion","display":"Denominator Exclusion"}]},"count":0},{"code":{"coding":[{"system":"http://terminology.hl7.org/CodeSystem/measure-population","code":"numerator","display":"Numerator"}]},"count":0},{"code":{"coding":[{"system":"http://terminology.hl7.org/CodeSystem/measure-population","code":"denominator-exception","display":"Denominator Exception"}]},"count":0}]}]},"request":{"method":"PUT","url":"MeasureReport/0e603c97-229c-4529-a032-dc381da2ed14"}}]}