{"resourceType":"Bundle","id":"tests-09a132b9-b03c-4a8d-a09f-f18c544bb660-bundle","type":"transaction","entry":[{"fullUrl":"https://madie.cms.gov/Patient/09a132b9-b03c-4a8d-a09f-f18c544bb660","resource":{"resourceType":"Patient","id":"09a132b9-b03c-4a8d-a09f-f18c544bb660","meta":{"profile":["http://hl7.org/fhir/us/qicore/StructureDefinition/qicore-patient"]},"text":{"status":"generated","div":"<div xmlns=\"http://www.w3.org/1999/xhtml\"><div class=\"hapiHeaderText\">INR2hoursB4EDstart_EDend1hrB4_OBSend1hrB4DayAft_IPstart <b>DENEXCEPASS </b></div><table class=\"hapiPropertyTable\"><tbody><tr><td>Identifier</td><td>89ea8ad611120273e39d590cc026d6ca35e3720cede5138111e1e8c931d79085</td></tr><tr><td>Date of birth</td><td><span>26 September 1975</span></td></tr></tbody></table></div>"},"extension":[{"url":"http://hl7.org/fhir/us/core/StructureDefinition/us-core-race","extension":[{"url":"ombCategory","valueCoding":{"system":"urn:oid:2.16.840.1.113883.6.238","code":"2054-5","display":"Black or African American","userSelected":true}},{"url":"text","valueString":"Black or African American"}]},{"url":"http://hl7.org/fhir/us/core/StructureDefinition/us-core-ethnicity","extension":[{"url":"ombCategory","valueCoding":{"system":"urn:oid:2.16.840.1.113883.6.238","code":"2186-5","display":"Not Hispanic or Latino","userSelected":true}},{"url":"text","valueString":"Not Hispanic or Latino"}]}],"identifier":[{"type":{"coding":[{"system":"http://terminology.hl7.org/CodeSystem/v2-0203","code":"MR"}]},"system":"https://bonnie-fhir.healthit.gov/","value":"60f82c2f98086b570510e2c9"}],"active":true,"name":[{"use":"usual","family":"DENEXCEPass","given":["INR2hoursB4EDstart_EDend1hrB4_OBSend1hrB4DayAft_IPstart"]}],"gender":"female","birthDate":"1975-09-26"},"request":{"method":"PUT","url":"Patient/09a132b9-b03c-4a8d-a09f-f18c544bb660"}},{"fullUrl":"https://madie.cms.gov/Encounter/5d41f2adb848464ca836aac9","resource":{"resourceType":"Encounter","id":"437201f9-c30a-4ee6-8081-faea2fef21be","meta":{"profile":["http://hl7.org/fhir/us/qicore/StructureDefinition/qicore-encounter"]},"status":"finished","class":{"system":"http://terminology.hl7.org/CodeSystem/v3-ActCode","code":"EMER","display":"emergency","userSelected":true},"type":[{"coding":[{"system":"http://snomed.info/sct","code":"4525004"}]}],"subject":{"reference":"Patient/09a132b9-b03c-4a8d-a09f-f18c544bb660"},"period":{"start":"2025-10-10T06:32:00+00:00","end":"2025-10-10T23:59:00+00:00"},"length":{"value":0,"unit":"days"}},"request":{"method":"PUT","url":"Encounter/437201f9-c30a-4ee6-8081-faea2fef21be"}},{"fullUrl":"https://madie.cms.gov/Encounter/5d41f2adb848464ca836aaca","resource":{"resourceType":"Encounter","id":"495ace24-2f93-4248-b80f-9adb4b7b25b3","meta":{"profile":["http://hl7.org/fhir/us/qicore/StructureDefinition/qicore-encounter"]},"status":"finished","class":{"system":"http://terminology.hl7.org/CodeSystem/v3-ActCode","code":"OBSENC","display":"observation encounter","userSelected":true},"type":[{"coding":[{"system":"http://snomed.info/sct","code":"448951000124107"}]}],"subject":{"reference":"Patient/09a132b9-b03c-4a8d-a09f-f18c544bb660"},"period":{"start":"2025-10-11T00:00:00+00:00","end":"2025-10-11T06:31:00+00:00"},"length":{"value":0,"unit":"days"}},"request":{"method":"PUT","url":"Encounter/495ace24-2f93-4248-b80f-9adb4b7b25b3"}},{"fullUrl":"https://madie.cms.gov/Encounter/5d41f2adb848464ca836aacb","resource":{"resourceType":"Encounter","id":"22f54c79-0fa5-4337-a435-6fa47e13bc97","meta":{"profile":["http://hl7.org/fhir/us/qicore/StructureDefinition/qicore-encounter"]},"status":"finished","class":{"system":"http://terminology.hl7.org/CodeSystem/v3-ActCode","code":"IMP","display":"inpatient encounter","userSelected":true},"type":[{"coding":[{"system":"http://snomed.info/sct","code":"32485007"}]}],"subject":{"reference":"Patient/09a132b9-b03c-4a8d-a09f-f18c544bb660"},"period":{"start":"2025-10-11T07:31:00+00:00","end":"2025-10-15T11:30:00+00:00"},"length":{"value":4,"unit":"days"},"diagnosis":[{"condition":{"reference":"Condition/ischemic-stroke-9f13"},"use":{"coding":[{"system":"http://terminology.hl7.org/CodeSystem/diagnosis-role","code":"billing","display":"Billing"}]},"rank":1}]},"request":{"method":"PUT","url":"Encounter/22f54c79-0fa5-4337-a435-6fa47e13bc97"}},{"fullUrl":"https://madie.cms.gov/Observation/5d41f2adb848464ca836aac8","resource":{"resourceType":"Observation","id":"0ecb7213-ce8a-45bf-8168-11ec59e815f8","meta":{"profile":["http://hl7.org/fhir/us/qicore/StructureDefinition/qicore-observation"]},"status":"final","category":[{"coding":[{"system":"http://terminology.hl7.org/CodeSystem/observation-category","code":"laboratory","display":"Laboratory"}]}],"code":{"coding":[{"system":"http://loinc.org","code":"34714-6"}]},"subject":{"reference":"Patient/09a132b9-b03c-4a8d-a09f-f18c544bb660"},"effectivePeriod":{"start":"2025-10-10T04:32:00+00:00"},"issued":"2025-10-10T06:31:00.000+00:00","valueQuantity":{"value":3.6}},"request":{"method":"PUT","url":"Observation/0ecb7213-ce8a-45bf-8168-11ec59e815f8"}},{"fullUrl":"https://madie.cms.gov/Coverage/5e20a3731c76ba6c5896ec23","resource":{"resourceType":"Coverage","id":"d7cc95f9-7df0-4d63-b7e3-c8aceffedae5","status":"active","beneficiary":{"reference":"Patient/09a132b9-b03c-4a8d-a09f-f18c544bb660"},"period":{"start":"1975-09-26T08:00:00+00:00"},"payor":[{"reference":"Organization/4b5a882f-1f43-485c-85c6-f5ad2337d5b1"}]},"request":{"method":"PUT","url":"Coverage/d7cc95f9-7df0-4d63-b7e3-c8aceffedae5"}},{"fullUrl":"https://madie.cms.gov/Condition/ischemic-stroke-9f13","resource":{"resourceType":"Condition","id":"94f9d90a-307c-427b-a7a0-dc50b4320830","meta":{"profile":["http://hl7.org/fhir/us/qicore/StructureDefinition/qicore-condition"]},"clinicalStatus":{"coding":[{"system":"http://terminology.hl7.org/CodeSystem/condition-clinical","code":"active"}]},"verificationStatus":{"coding":[{"system":"http://terminology.hl7.org/CodeSystem/condition-ver-status","code":"confirmed"}]},"category":[{"coding":[{"system":"http://terminology.hl7.org/CodeSystem/condition-category","code":"encounter-diagnosis","display":"Encounter Diagnosis"}]}],"code":{"coding":[{"system":"http://snomed.info/sct","version":"2020-09","code":"111297002","display":"Nonparalytic stroke (disorder)","userSelected":true}]},"subject":{"reference":"Patient/09a132b9-b03c-4a8d-a09f-f18c544bb660"},"recordedDate":"2025-08-06T08:00:00.000+00:00"},"request":{"method":"PUT","url":"Condition/94f9d90a-307c-427b-a7a0-dc50b4320830"}},{"fullUrl":"https://madie.cms.gov/Organization/123456","resource":{"resourceType":"Organization","id":"4b5a882f-1f43-485c-85c6-f5ad2337d5b1","meta":{"profile":["http://hl7.org/fhir/us/qicore/StructureDefinition/qicore-organization"]},"identifier":[{"use":"temp","system":"urn:oid:2.16.840.1.113883.4.4","value":"21-3259825"}],"active":true,"type":[{"coding":[{"system":"http://terminology.hl7.org/CodeSystem/organization-type","code":"pay","display":"Payer"}]}],"name":"Blue Cross Blue Shield of Texas","telecom":[{"system":"phone","value":"(+1) 972-766-6900"}],"address":[{"use":"billing","type":"postal","line":["P.O. Box 660044"],"city":"Dallas","state":"TX","postalCode":"75266-0044","country":"USA"}]},"request":{"method":"PUT","url":"Organization/4b5a882f-1f43-485c-85c6-f5ad2337d5b1"}},{"fullUrl":"https://madie.cms.gov/MeasureReport/29dd6fa7-415d-46bc-9aad-1edab0af9489","resource":{"resourceType":"MeasureReport","id":"29dd6fa7-415d-46bc-9aad-1edab0af9489","meta":{"profile":["http://hl7.org/fhir/us/cqfmeasures/StructureDefinition/test-case-cqfm"]},"contained":[{"resourceType":"Parameters","id":"e8c3ac9c-8fcf-485f-b1eb-fb13414f0a43-parameters","parameter":[{"name":"subject","valueString":"09a132b9-b03c-4a8d-a09f-f18c544bb660"}]}],"extension":[{"url":"http://hl7.org/fhir/us/cqfmeasures/StructureDefinition/cqfm-inputParameters","valueReference":{"reference":"#e8c3ac9c-8fcf-485f-b1eb-fb13414f0a43-parameters"}},{"url":"http://hl7.org/fhir/us/cqfmeasures/StructureDefinition/cqfm-testCaseDescription","valueMarkdown":"Patient receives INR of 3.6 the 1 min  before ED start. ED ends 60 minute before OBS starts. OBS starts on day 2 at midnight. IP on the same day. Testing Day of operator with HospitalizationWithObservation function.\n"}],"modifierExtension":[{"url":"http://hl7.org/fhir/us/cqfmeasures/StructureDefinition/cqfm-isTestCase","valueBoolean":true}],"status":"complete","type":"individual","measure":"https://madie.cms.gov/Measure/AntithromboticTherapyByEndofHospitalDay2FHIR","period":{"start":"2025-01-01","end":"2025-12-31"},"group":[{"population":[{"code":{"coding":[{"system":"http://terminology.hl7.org/CodeSystem/measure-population","code":"initial-population","display":"Initial Population"}]},"count":1},{"code":{"coding":[{"system":"http://terminology.hl7.org/CodeSystem/measure-population","code":"denominator","display":"Denominator"}]},"count":1},{"code":{"coding":[{"system":"http://terminology.hl7.org/CodeSystem/measure-population","code":"denominator-exclusion","display":"Denominator Exclusion"}]},"count":0},{"code":{"coding":[{"system":"http://terminology.hl7.org/CodeSystem/measure-population","code":"numerator","display":"Numerator"}]},"count":0},{"code":{"coding":[{"system":"http://terminology.hl7.org/CodeSystem/measure-population","code":"denominator-exception","display":"Denominator Exception"}]},"count":1}]}]},"request":{"method":"PUT","url":"MeasureReport/29dd6fa7-415d-46bc-9aad-1edab0af9489"}}]}