{"resourceType":"Bundle","id":"tests-e89c4eae-404c-44b9-8be5-c8a8b481813a-bundle","type":"transaction","entry":[{"fullUrl":"https://madie.cms.gov/Patient/e89c4eae-404c-44b9-8be5-c8a8b481813a","resource":{"resourceType":"Patient","id":"e89c4eae-404c-44b9-8be5-c8a8b481813a","meta":{"profile":["http://hl7.org/fhir/us/qicore/StructureDefinition/qicore-patient"]},"text":{"status":"generated","div":"<div xmlns=\"http://www.w3.org/1999/xhtml\"><div class=\"hapiHeaderText\">LOS=2Days_EDend_EQ_EncIPStart <b>DENEXFAIL </b></div><table class=\"hapiPropertyTable\"><tbody><tr><td>Identifier</td><td>a458b8b9bea67a7a55dee798a7585d96</td></tr><tr><td>Date of birth</td><td><span>21 August 1993</span></td></tr></tbody></table></div>"},"extension":[{"url":"http://hl7.org/fhir/us/core/StructureDefinition/us-core-race","extension":[{"url":"ombCategory","valueCoding":{"system":"urn:oid:2.16.840.1.113883.6.238","code":"1002-5","display":"American Indian or Alaska Native","userSelected":true}},{"url":"text","valueString":"American Indian or Alaska Native"}]},{"url":"http://hl7.org/fhir/us/core/StructureDefinition/us-core-ethnicity","extension":[{"url":"ombCategory","valueCoding":{"system":"urn:oid:2.16.840.1.113883.6.238","code":"2135-2","display":"Hispanic or Latino","userSelected":true}},{"url":"text","valueString":"Hispanic or Latino"}]}],"identifier":[{"type":{"coding":[{"system":"http://terminology.hl7.org/CodeSystem/v2-0203","code":"MR"}]},"system":"https://bonnie-fhir.healthit.gov/","value":"60f82c2e98086b570510e27f"}],"active":true,"name":[{"use":"usual","family":"DENEXFail","given":["LOS=2Days_EDend_EQ_EncIPStart"]}],"gender":"male","birthDate":"1993-08-21"},"request":{"method":"PUT","url":"Patient/e89c4eae-404c-44b9-8be5-c8a8b481813a"}},{"fullUrl":"https://madie.cms.gov/Encounter/5c954893b848462de0ae623f","resource":{"resourceType":"Encounter","id":"53336d2f-ecbd-46e4-a561-6f36be492d58","meta":{"profile":["http://hl7.org/fhir/us/qicore/StructureDefinition/qicore-encounter"]},"status":"finished","class":{"system":"http://terminology.hl7.org/CodeSystem/v3-ActCode","code":"EMER","display":"emergency","userSelected":true},"type":[{"coding":[{"system":"http://snomed.info/sct","code":"4525004"}]}],"subject":{"reference":"Patient/e89c4eae-404c-44b9-8be5-c8a8b481813a"},"period":{"start":"2025-08-20T08:00:00+00:00","end":"2025-08-20T22:00:00+00:00"},"length":{"value":0,"unit":"days"}},"request":{"method":"PUT","url":"Encounter/53336d2f-ecbd-46e4-a561-6f36be492d58"}},{"fullUrl":"https://madie.cms.gov/Encounter/5c954893b848462de0ae6240","resource":{"resourceType":"Encounter","id":"fd939e49-355f-4ec5-a892-e889dd417185","meta":{"profile":["http://hl7.org/fhir/us/qicore/StructureDefinition/qicore-encounter"]},"status":"finished","class":{"system":"http://terminology.hl7.org/CodeSystem/v3-ActCode","code":"IMP","display":"inpatient encounter","userSelected":true},"type":[{"coding":[{"system":"http://snomed.info/sct","code":"32485007"}]}],"subject":{"reference":"Patient/e89c4eae-404c-44b9-8be5-c8a8b481813a"},"period":{"start":"2025-08-20T22:00:00+00:00","end":"2025-08-22T12:00:00+00:00"},"length":{"value":2,"unit":"days"},"diagnosis":[{"condition":{"reference":"Condition/cbc4d893-7f58-4ff9-8cea-c7212629d1a3"},"use":{"coding":[{"system":"http://terminology.hl7.org/CodeSystem/diagnosis-role","code":"billing","display":"Billing"}]},"rank":1}]},"request":{"method":"PUT","url":"Encounter/fd939e49-355f-4ec5-a892-e889dd417185"}},{"fullUrl":"https://madie.cms.gov/Coverage/5e20a36b1c76ba6c5896ebe2","resource":{"resourceType":"Coverage","id":"30b57517-36cc-4d1d-9997-08bfdc072454","status":"active","beneficiary":{"reference":"Patient/e89c4eae-404c-44b9-8be5-c8a8b481813a"},"period":{"start":"1993-08-21T07:00:00+00:00"},"payor":[{"reference":"Organization/4b5a882f-1f43-485c-85c6-f5ad2337d5b1"}]},"request":{"method":"PUT","url":"Coverage/30b57517-36cc-4d1d-9997-08bfdc072454"}},{"fullUrl":"https://madie.cms.gov/Condition/ischemic-stroke-8242","resource":{"resourceType":"Condition","id":"cbc4d893-7f58-4ff9-8cea-c7212629d1a3","meta":{"profile":["http://hl7.org/fhir/us/qicore/StructureDefinition/qicore-condition"]},"clinicalStatus":{"coding":[{"system":"http://terminology.hl7.org/CodeSystem/condition-clinical","code":"active"}]},"verificationStatus":{"coding":[{"system":"http://terminology.hl7.org/CodeSystem/condition-ver-status","code":"confirmed"}]},"category":[{"coding":[{"system":"http://terminology.hl7.org/CodeSystem/condition-category","code":"encounter-diagnosis","display":"Encounter Diagnosis"}]}],"code":{"coding":[{"system":"http://snomed.info/sct","version":"2020-09","code":"111297002","display":"Nonparalytic stroke (disorder)","userSelected":true}]},"subject":{"reference":"Patient/e89c4eae-404c-44b9-8be5-c8a8b481813a"},"recordedDate":"2025-08-12T08:00:00.000+00:00"},"request":{"method":"PUT","url":"Condition/cbc4d893-7f58-4ff9-8cea-c7212629d1a3"}},{"fullUrl":"https://madie.cms.gov/Organization/123456","resource":{"resourceType":"Organization","id":"4b5a882f-1f43-485c-85c6-f5ad2337d5b1","meta":{"profile":["http://hl7.org/fhir/us/qicore/StructureDefinition/qicore-organization"]},"identifier":[{"use":"temp","system":"urn:oid:2.16.840.1.113883.4.4","value":"21-3259825"}],"active":true,"type":[{"coding":[{"system":"http://terminology.hl7.org/CodeSystem/organization-type","code":"pay","display":"Payer"}]}],"name":"Blue Cross Blue Shield of Texas","telecom":[{"system":"phone","value":"(+1) 972-766-6900"}],"address":[{"use":"billing","type":"postal","line":["P.O. Box 660044"],"city":"Dallas","state":"TX","postalCode":"75266-0044","country":"USA"}]},"request":{"method":"PUT","url":"Organization/4b5a882f-1f43-485c-85c6-f5ad2337d5b1"}},{"fullUrl":"https://madie.cms.gov/MeasureReport/db574136-cc1b-4a08-aa52-4ccb754dac45","resource":{"resourceType":"MeasureReport","id":"db574136-cc1b-4a08-aa52-4ccb754dac45","meta":{"profile":["http://hl7.org/fhir/us/cqfmeasures/StructureDefinition/test-case-cqfm"]},"contained":[{"resourceType":"Parameters","id":"54335c06-37a1-4e2e-9b0c-0212c06346a8-parameters","parameter":[{"name":"subject","valueString":"e89c4eae-404c-44b9-8be5-c8a8b481813a"}]}],"extension":[{"url":"http://hl7.org/fhir/us/cqfmeasures/StructureDefinition/cqfm-inputParameters","valueReference":{"reference":"#54335c06-37a1-4e2e-9b0c-0212c06346a8-parameters"}},{"url":"http://hl7.org/fhir/us/cqfmeasures/StructureDefinition/cqfm-testCaseDescription","valueMarkdown":"LOS=2 days, Patient has  ED Visit end time same as Enc IP starts time. global.Hospitalization ( = Ed +IP)\n"}],"modifierExtension":[{"url":"http://hl7.org/fhir/us/cqfmeasures/StructureDefinition/cqfm-isTestCase","valueBoolean":true}],"status":"complete","type":"individual","measure":"https://madie.cms.gov/Measure/AntithromboticTherapyByEndofHospitalDay2FHIR","period":{"start":"2025-01-01","end":"2025-12-31"},"group":[{"population":[{"code":{"coding":[{"system":"http://terminology.hl7.org/CodeSystem/measure-population","code":"initial-population","display":"Initial Population"}]},"count":1},{"code":{"coding":[{"system":"http://terminology.hl7.org/CodeSystem/measure-population","code":"denominator","display":"Denominator"}]},"count":1},{"code":{"coding":[{"system":"http://terminology.hl7.org/CodeSystem/measure-population","code":"denominator-exclusion","display":"Denominator Exclusion"}]},"count":0},{"code":{"coding":[{"system":"http://terminology.hl7.org/CodeSystem/measure-population","code":"numerator","display":"Numerator"}]},"count":0},{"code":{"coding":[{"system":"http://terminology.hl7.org/CodeSystem/measure-population","code":"denominator-exception","display":"Denominator Exception"}]},"count":0}]}]},"request":{"method":"PUT","url":"MeasureReport/db574136-cc1b-4a08-aa52-4ccb754dac45"}}]}