{"resourceType":"Bundle","id":"tests-4f8b0ca2-baf1-4ce6-8b9a-c3220097cf7c-bundle","type":"transaction","entry":[{"fullUrl":"https://madie.cms.gov/Patient/4f8b0ca2-baf1-4ce6-8b9a-c3220097cf7c","resource":{"resourceType":"Patient","id":"4f8b0ca2-baf1-4ce6-8b9a-c3220097cf7c","meta":{"profile":["http://hl7.org/fhir/us/qicore/StructureDefinition/qicore-patient"]},"text":{"status":"generated","div":"<div xmlns=\"http://www.w3.org/1999/xhtml\"><div class=\"hapiHeaderText\">INRDayOfObs_ED&lt;1hrObs&lt;1hrBFEncDayOf <b>DENEXCEPASS </b></div><table class=\"hapiPropertyTable\"><tbody><tr><td>Identifier</td><td>955c3164f28b1cd12a47e69610b3987de9a411ffaf7a33899bbd175a9be414f3</td></tr><tr><td>Date of birth</td><td><span>26 September 1975</span></td></tr></tbody></table></div>"},"extension":[{"url":"http://hl7.org/fhir/us/core/StructureDefinition/us-core-race","extension":[{"url":"ombCategory","valueCoding":{"system":"urn:oid:2.16.840.1.113883.6.238","code":"2054-5","display":"Black or African American","userSelected":true}},{"url":"text","valueString":"Black or African American"}]},{"url":"http://hl7.org/fhir/us/core/StructureDefinition/us-core-ethnicity","extension":[{"url":"ombCategory","valueCoding":{"system":"urn:oid:2.16.840.1.113883.6.238","code":"2186-5","display":"Not Hispanic or Latino","userSelected":true}},{"url":"text","valueString":"Not Hispanic or Latino"}]}],"identifier":[{"type":{"coding":[{"system":"http://terminology.hl7.org/CodeSystem/v2-0203","code":"MR"}]},"system":"https://bonnie-fhir.healthit.gov/","value":"60f82c2f98086b570510e2aa"}],"active":true,"name":[{"use":"usual","family":"DENEXCEPass","given":["INRDayOfObs_ED<1hrObs<1hrBFEncDayOf"]}],"gender":"female","birthDate":"1975-09-26"},"request":{"method":"PUT","url":"Patient/4f8b0ca2-baf1-4ce6-8b9a-c3220097cf7c"}},{"fullUrl":"https://madie.cms.gov/Encounter/5c954894b848462de0ae62d8","resource":{"resourceType":"Encounter","id":"174f3b15-396d-4108-9799-9f493d8c9afe","meta":{"profile":["http://hl7.org/fhir/us/qicore/StructureDefinition/qicore-encounter"]},"status":"finished","class":{"system":"http://terminology.hl7.org/CodeSystem/v3-ActCode","code":"EMER","display":"emergency","userSelected":true},"type":[{"coding":[{"system":"http://snomed.info/sct","code":"4525004"}]}],"subject":{"reference":"Patient/4f8b0ca2-baf1-4ce6-8b9a-c3220097cf7c"},"period":{"start":"2025-10-10T06:15:00+00:00","end":"2025-10-10T06:30:00+00:00"},"length":{"value":0,"unit":"days"}},"request":{"method":"PUT","url":"Encounter/174f3b15-396d-4108-9799-9f493d8c9afe"}},{"fullUrl":"https://madie.cms.gov/Encounter/5c954894b848462de0ae62d9","resource":{"resourceType":"Encounter","id":"f75d622f-d11d-4344-8e8c-9ac57848a6d7","meta":{"profile":["http://hl7.org/fhir/us/qicore/StructureDefinition/qicore-encounter"]},"status":"finished","class":{"system":"http://terminology.hl7.org/CodeSystem/v3-ActCode","code":"OBSENC","display":"observation encounter","userSelected":true},"type":[{"coding":[{"system":"http://snomed.info/sct","code":"448851000124103"}]}],"subject":{"reference":"Patient/4f8b0ca2-baf1-4ce6-8b9a-c3220097cf7c"},"period":{"start":"2025-10-10T06:31:00+00:00","end":"2025-10-10T07:30:00+00:00"},"length":{"value":0,"unit":"days"}},"request":{"method":"PUT","url":"Encounter/f75d622f-d11d-4344-8e8c-9ac57848a6d7"}},{"fullUrl":"https://madie.cms.gov/Encounter/5c954894b848462de0ae62da","resource":{"resourceType":"Encounter","id":"ff675a7e-bf44-4cc9-bc34-ab86ec36b338","meta":{"profile":["http://hl7.org/fhir/us/qicore/StructureDefinition/qicore-encounter"]},"status":"finished","class":{"system":"http://terminology.hl7.org/CodeSystem/v3-ActCode","code":"IMP","display":"inpatient encounter","userSelected":true},"type":[{"coding":[{"system":"http://snomed.info/sct","code":"32485007"}]}],"subject":{"reference":"Patient/4f8b0ca2-baf1-4ce6-8b9a-c3220097cf7c"},"period":{"start":"2025-10-10T07:31:00+00:00","end":"2025-10-15T11:30:00+00:00"},"length":{"value":5,"unit":"days"},"diagnosis":[{"condition":{"reference":"Condition/ischemic-stroke-9f17"},"use":{"coding":[{"system":"http://terminology.hl7.org/CodeSystem/diagnosis-role","code":"billing","display":"Billing"}]},"rank":1}]},"request":{"method":"PUT","url":"Encounter/ff675a7e-bf44-4cc9-bc34-ab86ec36b338"}},{"fullUrl":"https://madie.cms.gov/Observation/5c954894b848462de0ae62dc","resource":{"resourceType":"Observation","id":"723410e8-92fc-438b-86e4-784f652fed80","meta":{"profile":["http://hl7.org/fhir/us/qicore/StructureDefinition/qicore-observation"]},"status":"final","category":[{"coding":[{"system":"http://terminology.hl7.org/CodeSystem/observation-category","code":"laboratory","display":"Laboratory"}]}],"code":{"coding":[{"system":"http://loinc.org","code":"34714-6"}]},"subject":{"reference":"Patient/4f8b0ca2-baf1-4ce6-8b9a-c3220097cf7c"},"effectivePeriod":{"start":"2025-10-10T06:15:00+00:00"},"issued":"2025-10-10T06:31:00.000+00:00","valueQuantity":{"value":3.6}},"request":{"method":"PUT","url":"Observation/723410e8-92fc-438b-86e4-784f652fed80"}},{"fullUrl":"https://madie.cms.gov/Coverage/5e20a3701c76ba6c5896ec0d","resource":{"resourceType":"Coverage","id":"f221b074-9c46-4276-924c-b2db23162359","status":"active","beneficiary":{"reference":"Patient/4f8b0ca2-baf1-4ce6-8b9a-c3220097cf7c"},"period":{"start":"1975-09-26T08:00:00+00:00"},"payor":[{"reference":"Organization/4b5a882f-1f43-485c-85c6-f5ad2337d5b1"}]},"request":{"method":"PUT","url":"Coverage/f221b074-9c46-4276-924c-b2db23162359"}},{"fullUrl":"https://madie.cms.gov/Condition/ischemic-stroke-9f17","resource":{"resourceType":"Condition","id":"6466b152-43f5-496e-b6e9-a399975287dd","meta":{"profile":["http://hl7.org/fhir/us/qicore/StructureDefinition/qicore-condition"]},"clinicalStatus":{"coding":[{"system":"http://terminology.hl7.org/CodeSystem/condition-clinical","code":"active"}]},"verificationStatus":{"coding":[{"system":"http://terminology.hl7.org/CodeSystem/condition-ver-status","code":"confirmed"}]},"category":[{"coding":[{"system":"http://terminology.hl7.org/CodeSystem/condition-category","code":"encounter-diagnosis","display":"Encounter Diagnosis"}]}],"code":{"coding":[{"system":"http://snomed.info/sct","version":"2020-09","code":"111297002","display":"Nonparalytic stroke (disorder)","userSelected":true}]},"subject":{"reference":"Patient/4f8b0ca2-baf1-4ce6-8b9a-c3220097cf7c"},"recordedDate":"2025-08-06T08:00:00.000+00:00"},"request":{"method":"PUT","url":"Condition/6466b152-43f5-496e-b6e9-a399975287dd"}},{"fullUrl":"https://madie.cms.gov/Organization/123456","resource":{"resourceType":"Organization","id":"4b5a882f-1f43-485c-85c6-f5ad2337d5b1","meta":{"profile":["http://hl7.org/fhir/us/qicore/StructureDefinition/qicore-organization"]},"identifier":[{"use":"temp","system":"urn:oid:2.16.840.1.113883.4.4","value":"21-3259825"}],"active":true,"type":[{"coding":[{"system":"http://terminology.hl7.org/CodeSystem/organization-type","code":"pay","display":"Payer"}]}],"name":"Blue Cross Blue Shield of Texas","telecom":[{"system":"phone","value":"(+1) 972-766-6900"}],"address":[{"use":"billing","type":"postal","line":["P.O. Box 660044"],"city":"Dallas","state":"TX","postalCode":"75266-0044","country":"USA"}]},"request":{"method":"PUT","url":"Organization/4b5a882f-1f43-485c-85c6-f5ad2337d5b1"}},{"fullUrl":"https://madie.cms.gov/MeasureReport/062c689d-713d-4f90-b66e-8854dcb3c38a","resource":{"resourceType":"MeasureReport","id":"062c689d-713d-4f90-b66e-8854dcb3c38a","meta":{"profile":["http://hl7.org/fhir/us/cqfmeasures/StructureDefinition/test-case-cqfm"]},"contained":[{"resourceType":"Parameters","id":"53551d89-9e67-4ba5-9ab9-fec3502c9e95-parameters","parameter":[{"name":"subject","valueString":"4f8b0ca2-baf1-4ce6-8b9a-c3220097cf7c"}]}],"extension":[{"url":"http://hl7.org/fhir/us/cqfmeasures/StructureDefinition/cqfm-inputParameters","valueReference":{"reference":"#53551d89-9e67-4ba5-9ab9-fec3502c9e95-parameters"}},{"url":"http://hl7.org/fhir/us/cqfmeasures/StructureDefinition/cqfm-testCaseDescription","valueMarkdown":"Patient receives INR of 3.6 the day of Obs start. ED ends 1 min before Obs, Obs ends 1 min before IP starts on the same day.Testing Day of operator with HospitalizationWithObservation function.\n"}],"modifierExtension":[{"url":"http://hl7.org/fhir/us/cqfmeasures/StructureDefinition/cqfm-isTestCase","valueBoolean":true}],"status":"complete","type":"individual","measure":"https://madie.cms.gov/Measure/AntithromboticTherapyByEndofHospitalDay2FHIR","period":{"start":"2025-01-01","end":"2025-12-31"},"group":[{"population":[{"code":{"coding":[{"system":"http://terminology.hl7.org/CodeSystem/measure-population","code":"initial-population","display":"Initial Population"}]},"count":1},{"code":{"coding":[{"system":"http://terminology.hl7.org/CodeSystem/measure-population","code":"denominator","display":"Denominator"}]},"count":1},{"code":{"coding":[{"system":"http://terminology.hl7.org/CodeSystem/measure-population","code":"denominator-exclusion","display":"Denominator Exclusion"}]},"count":0},{"code":{"coding":[{"system":"http://terminology.hl7.org/CodeSystem/measure-population","code":"numerator","display":"Numerator"}]},"count":0},{"code":{"coding":[{"system":"http://terminology.hl7.org/CodeSystem/measure-population","code":"denominator-exception","display":"Denominator Exception"}]},"count":1}]}]},"request":{"method":"PUT","url":"MeasureReport/062c689d-713d-4f90-b66e-8854dcb3c38a"}}]}