{"resourceType":"Bundle","id":"tests-2bdb83c0-fcd9-4f06-b908-e373a7dcf91e-bundle","type":"transaction","entry":[{"fullUrl":"https://madie.cms.gov/Patient/2bdb83c0-fcd9-4f06-b908-e373a7dcf91e","resource":{"resourceType":"Patient","id":"2bdb83c0-fcd9-4f06-b908-e373a7dcf91e","meta":{"profile":["http://hl7.org/fhir/us/qicore/StructureDefinition/qicore-patient"]},"text":{"status":"generated","div":"<div xmlns=\"http://www.w3.org/1999/xhtml\"><div class=\"hapiHeaderText\">CMP_DayOf_RelvDat_1minAftEDStart_EDEndLT1hrB4Obs_ObsEndLT1hrB4IP <b>DENEXPASS </b></div><table class=\"hapiPropertyTable\"><tbody><tr><td>Identifier</td><td>a4b5ca450b4d11ad50aba1ee99a95908</td></tr><tr><td>Date of birth</td><td><span>26 September 1975</span></td></tr></tbody></table></div>"},"extension":[{"url":"http://hl7.org/fhir/us/core/StructureDefinition/us-core-race","extension":[{"url":"ombCategory","valueCoding":{"system":"urn:oid:2.16.840.1.113883.6.238","code":"2054-5","display":"Black or African American","userSelected":true}},{"url":"text","valueString":"Black or African American"}]},{"url":"http://hl7.org/fhir/us/core/StructureDefinition/us-core-ethnicity","extension":[{"url":"ombCategory","valueCoding":{"system":"urn:oid:2.16.840.1.113883.6.238","code":"2186-5","display":"Not Hispanic or Latino","userSelected":true}},{"url":"text","valueString":"Not Hispanic or Latino"}]}],"identifier":[{"type":{"coding":[{"system":"http://terminology.hl7.org/CodeSystem/v2-0203","code":"MR"}]},"system":"https://bonnie-fhir.healthit.gov/","value":"60f82c2e98086b570510e264"}],"active":true,"name":[{"use":"usual","family":"DENEXPass","given":["CMP_DayOf_RelvDat_1minAftEDStart_EDEndLT1hrB4Obs_ObsEndLT1hrB4IP"]}],"gender":"female","birthDate":"1975-09-26"},"request":{"method":"PUT","url":"Patient/2bdb83c0-fcd9-4f06-b908-e373a7dcf91e"}},{"fullUrl":"https://madie.cms.gov/Encounter/5c954892b848462de0ae61e3","resource":{"resourceType":"Encounter","id":"8aaac713-ebb1-4688-8fb0-5ab8b4f60653","meta":{"profile":["http://hl7.org/fhir/us/qicore/StructureDefinition/qicore-encounter"]},"status":"finished","class":{"system":"http://terminology.hl7.org/CodeSystem/v3-ActCode","code":"EMER","display":"emergency","userSelected":true},"type":[{"coding":[{"system":"http://snomed.info/sct","code":"4525004"}]}],"subject":{"reference":"Patient/2bdb83c0-fcd9-4f06-b908-e373a7dcf91e"},"period":{"start":"2025-10-10T04:00:00+00:00","end":"2025-10-10T06:00:00+00:00"},"length":{"value":0,"unit":"days"}},"request":{"method":"PUT","url":"Encounter/8aaac713-ebb1-4688-8fb0-5ab8b4f60653"}},{"fullUrl":"https://madie.cms.gov/Encounter/5c954892b848462de0ae61e4","resource":{"resourceType":"Encounter","id":"d95dc04f-4b61-4f09-ac1f-ba8b9f24b5e9","meta":{"profile":["http://hl7.org/fhir/us/qicore/StructureDefinition/qicore-encounter"]},"status":"finished","class":{"system":"http://terminology.hl7.org/CodeSystem/v3-ActCode","code":"IMP","display":"inpatient encounter","userSelected":true},"type":[{"coding":[{"system":"http://snomed.info/sct","code":"32485007"}]}],"subject":{"reference":"Patient/2bdb83c0-fcd9-4f06-b908-e373a7dcf91e"},"period":{"start":"2025-10-10T08:59:00+00:00","end":"2025-10-11T11:15:00+00:00"},"length":{"value":1,"unit":"days"},"diagnosis":[{"condition":{"reference":"Condition/ischemic-stroke-8aa1"},"use":{"coding":[{"system":"http://terminology.hl7.org/CodeSystem/diagnosis-role","code":"billing","display":"Billing"}]},"rank":1}]},"request":{"method":"PUT","url":"Encounter/d95dc04f-4b61-4f09-ac1f-ba8b9f24b5e9"}},{"fullUrl":"https://madie.cms.gov/Encounter/5fc7d364e344cb0000f78ad8","resource":{"resourceType":"Encounter","id":"c974bd4d-2b7b-4081-9f11-a788aedd4e6f","meta":{"profile":["http://hl7.org/fhir/us/qicore/StructureDefinition/qicore-encounter"]},"status":"finished","class":{"system":"http://terminology.hl7.org/CodeSystem/v3-ActCode","code":"OBSENC","display":"observation encounter","userSelected":true},"type":[{"coding":[{"system":"http://snomed.info/sct","code":"448951000124107"}]}],"subject":{"reference":"Patient/2bdb83c0-fcd9-4f06-b908-e373a7dcf91e"},"period":{"start":"2025-10-10T06:59:00+00:00","end":"2025-10-10T08:00:00+00:00"}},"request":{"method":"PUT","url":"Encounter/c974bd4d-2b7b-4081-9f11-a788aedd4e6f"}},{"fullUrl":"https://madie.cms.gov/Procedure/5c954892b848462de0ae61e6","resource":{"resourceType":"Procedure","id":"31424fbc-1f41-4937-a1f9-9cc5651927d7","meta":{"profile":["http://hl7.org/fhir/us/qicore/StructureDefinition/qicore-procedure"]},"extension":[{"url":"http://hl7.org/fhir/us/qicore/StructureDefinition/qicore-recorded","valueDateTime":"2025-10-10T09:35:00-04:00"}],"status":"completed","code":{"coding":[{"system":"http://snomed.info/sct","code":"133918004"}]},"subject":{"reference":"Patient/2bdb83c0-fcd9-4f06-b908-e373a7dcf91e"},"performedPeriod":{"start":"2025-10-10T04:01:00+00:00","end":"2025-10-10T06:00:00+00:00"}},"request":{"method":"PUT","url":"Procedure/31424fbc-1f41-4937-a1f9-9cc5651927d7"}},{"fullUrl":"https://madie.cms.gov/Coverage/5e20a3681c76ba6c5896ebc7","resource":{"resourceType":"Coverage","id":"5a155a1f-e62a-4471-825a-9c25e14b4338","status":"active","beneficiary":{"reference":"Patient/2bdb83c0-fcd9-4f06-b908-e373a7dcf91e"},"period":{"start":"1975-09-26T08:00:00+00:00"},"payor":[{"reference":"Organization/4b5a882f-1f43-485c-85c6-f5ad2337d5b1"}]},"request":{"method":"PUT","url":"Coverage/5a155a1f-e62a-4471-825a-9c25e14b4338"}},{"fullUrl":"https://madie.cms.gov/Condition/ischemic-stroke-8aa1","resource":{"resourceType":"Condition","id":"4c169489-d080-4edc-ad02-a2685a543af8","meta":{"profile":["http://hl7.org/fhir/us/qicore/StructureDefinition/qicore-condition"]},"clinicalStatus":{"coding":[{"system":"http://terminology.hl7.org/CodeSystem/condition-clinical","code":"active"}]},"verificationStatus":{"coding":[{"system":"http://terminology.hl7.org/CodeSystem/condition-ver-status","code":"confirmed"}]},"category":[{"coding":[{"system":"http://terminology.hl7.org/CodeSystem/condition-category","code":"encounter-diagnosis","display":"Encounter Diagnosis"}]}],"code":{"coding":[{"system":"http://snomed.info/sct","version":"2020-09","code":"111297002","display":"Nonparalytic stroke (disorder)","userSelected":true}]},"subject":{"reference":"Patient/2bdb83c0-fcd9-4f06-b908-e373a7dcf91e"},"recordedDate":"2025-08-13T08:00:00.000+00:00"},"request":{"method":"PUT","url":"Condition/4c169489-d080-4edc-ad02-a2685a543af8"}},{"fullUrl":"https://madie.cms.gov/Organization/123456","resource":{"resourceType":"Organization","id":"4b5a882f-1f43-485c-85c6-f5ad2337d5b1","meta":{"profile":["http://hl7.org/fhir/us/qicore/StructureDefinition/qicore-organization"]},"identifier":[{"use":"temp","system":"urn:oid:2.16.840.1.113883.4.4","value":"21-3259825"}],"active":true,"type":[{"coding":[{"system":"http://terminology.hl7.org/CodeSystem/organization-type","code":"pay","display":"Payer"}]}],"name":"Blue Cross Blue Shield of Texas","telecom":[{"system":"phone","value":"(+1) 972-766-6900"}],"address":[{"use":"billing","type":"postal","line":["P.O. Box 660044"],"city":"Dallas","state":"TX","postalCode":"75266-0044","country":"USA"}]},"request":{"method":"PUT","url":"Organization/4b5a882f-1f43-485c-85c6-f5ad2337d5b1"}},{"fullUrl":"https://madie.cms.gov/MeasureReport/d327d2f3-2a3e-4a48-a97e-83e50c223205","resource":{"resourceType":"MeasureReport","id":"d327d2f3-2a3e-4a48-a97e-83e50c223205","meta":{"profile":["http://hl7.org/fhir/us/cqfmeasures/StructureDefinition/test-case-cqfm"]},"contained":[{"resourceType":"Parameters","id":"d933a13d-98dd-4b33-ab57-1edb75c1c9ca-parameters","parameter":[{"name":"subject","valueString":"2bdb83c0-fcd9-4f06-b908-e373a7dcf91e"}]}],"extension":[{"url":"http://hl7.org/fhir/us/cqfmeasures/StructureDefinition/cqfm-inputParameters","valueReference":{"reference":"#d933a13d-98dd-4b33-ab57-1edb75c1c9ca-parameters"}},{"url":"http://hl7.org/fhir/us/cqfmeasures/StructureDefinition/cqfm-testCaseDescription","valueMarkdown":"Comfort measures performed on the first day of hospitalization using relevant dateTime, 1 minute after ED start, ED ends less than one hour before Obs start, Obs ends less than one hour before IP start.\n"}],"modifierExtension":[{"url":"http://hl7.org/fhir/us/cqfmeasures/StructureDefinition/cqfm-isTestCase","valueBoolean":true}],"status":"complete","type":"individual","measure":"https://madie.cms.gov/Measure/AntithromboticTherapyByEndofHospitalDay2FHIR","period":{"start":"2025-01-01","end":"2025-12-31"},"group":[{"population":[{"code":{"coding":[{"system":"http://terminology.hl7.org/CodeSystem/measure-population","code":"initial-population","display":"Initial Population"}]},"count":1},{"code":{"coding":[{"system":"http://terminology.hl7.org/CodeSystem/measure-population","code":"denominator","display":"Denominator"}]},"count":1},{"code":{"coding":[{"system":"http://terminology.hl7.org/CodeSystem/measure-population","code":"denominator-exclusion","display":"Denominator Exclusion"}]},"count":1},{"code":{"coding":[{"system":"http://terminology.hl7.org/CodeSystem/measure-population","code":"numerator","display":"Numerator"}]},"count":0},{"code":{"coding":[{"system":"http://terminology.hl7.org/CodeSystem/measure-population","code":"denominator-exception","display":"Denominator Exception"}]},"count":0}]}]},"request":{"method":"PUT","url":"MeasureReport/d327d2f3-2a3e-4a48-a97e-83e50c223205"}}]}