{"resourceType":"Bundle","id":"tests-155afb0b-baef-4e1a-8255-dd3bc96c9c0d-bundle","type":"transaction","entry":[{"fullUrl":"https://madie.cms.gov/Patient/155afb0b-baef-4e1a-8255-dd3bc96c9c0d","resource":{"resourceType":"Patient","id":"155afb0b-baef-4e1a-8255-dd3bc96c9c0d","meta":{"profile":["http://hl7.org/fhir/us/qicore/StructureDefinition/qicore-patient"]},"text":{"status":"generated","div":"<div xmlns=\"http://www.w3.org/1999/xhtml\"><div class=\"hapiHeaderText\">PharmContra2DayAftObs_ED&lt;1hrDayOfObs&lt;1hrDayAftBFEnc <b>DENEXCEPFAIL </b></div><table class=\"hapiPropertyTable\"><tbody><tr><td>Identifier</td><td>0103105e2f27712406d6c0e67f07d973c7aef843dfe22913e133b63fea98440f</td></tr><tr><td>Date of birth</td><td><span>26 September 1975</span></td></tr></tbody></table></div>"},"extension":[{"url":"http://hl7.org/fhir/us/core/StructureDefinition/us-core-race","extension":[{"url":"ombCategory","valueCoding":{"system":"urn:oid:2.16.840.1.113883.6.238","code":"2054-5","display":"Black or African American","userSelected":true}},{"url":"text","valueString":"Black or African American"}]},{"url":"http://hl7.org/fhir/us/core/StructureDefinition/us-core-ethnicity","extension":[{"url":"ombCategory","valueCoding":{"system":"urn:oid:2.16.840.1.113883.6.238","code":"2186-5","display":"Not Hispanic or Latino","userSelected":true}},{"url":"text","valueString":"Not Hispanic or Latino"}]}],"identifier":[{"type":{"coding":[{"system":"http://terminology.hl7.org/CodeSystem/v2-0203","code":"MR"}]},"system":"https://bonnie-fhir.healthit.gov/","value":"60f82c2f98086b570510e2ba"}],"active":true,"name":[{"use":"usual","family":"DENEXCEPFail","given":["PharmContra2DayAftObs_ED<1hrDayOfObs<1hrDayAftBFEnc"]}],"gender":"female","birthDate":"1975-09-26"},"request":{"method":"PUT","url":"Patient/155afb0b-baef-4e1a-8255-dd3bc96c9c0d"}},{"fullUrl":"https://madie.cms.gov/Encounter/5c954895b848462de0ae6331","resource":{"resourceType":"Encounter","id":"21ea487a-c70c-4af8-861b-f0097916dd26","meta":{"profile":["http://hl7.org/fhir/us/qicore/StructureDefinition/qicore-encounter"]},"status":"finished","class":{"system":"http://terminology.hl7.org/CodeSystem/v3-ActCode","code":"EMER","display":"emergency","userSelected":true},"type":[{"coding":[{"system":"http://snomed.info/sct","code":"4525004"}]}],"subject":{"reference":"Patient/155afb0b-baef-4e1a-8255-dd3bc96c9c0d"},"period":{"start":"2025-10-10T09:00:00.000+00:00","end":"2025-10-10T09:15:00.000+00:00"},"length":{"value":0,"unit":"days"}},"request":{"method":"PUT","url":"Encounter/21ea487a-c70c-4af8-861b-f0097916dd26"}},{"fullUrl":"https://madie.cms.gov/Encounter/5c954895b848462de0ae6332","resource":{"resourceType":"Encounter","id":"bc690dfb-4d48-4bb0-84c1-572c5b1beef9","meta":{"profile":["http://hl7.org/fhir/us/qicore/StructureDefinition/qicore-encounter"]},"status":"finished","class":{"system":"http://terminology.hl7.org/CodeSystem/v3-ActCode","code":"OBSENC","display":"observation encounter","userSelected":true},"type":[{"coding":[{"system":"http://snomed.info/sct","code":"448951000124107"}]}],"subject":{"reference":"Patient/155afb0b-baef-4e1a-8255-dd3bc96c9c0d"},"period":{"start":"2025-10-10T09:16:00.000+00:00","end":"2025-10-12T23:59:00.000+00:00"},"length":{"value":2,"unit":"days"}},"request":{"method":"PUT","url":"Encounter/bc690dfb-4d48-4bb0-84c1-572c5b1beef9"}},{"fullUrl":"https://madie.cms.gov/Encounter/5c954895b848462de0ae6333","resource":{"resourceType":"Encounter","id":"61628e3b-b2b8-480f-b496-a279f356bed8","meta":{"profile":["http://hl7.org/fhir/us/qicore/StructureDefinition/qicore-encounter"]},"status":"finished","class":{"system":"http://terminology.hl7.org/CodeSystem/v3-ActCode","code":"IMP","display":"inpatient encounter","userSelected":true},"type":[{"coding":[{"system":"http://snomed.info/sct","code":"32485007"}]}],"subject":{"reference":"Patient/155afb0b-baef-4e1a-8255-dd3bc96c9c0d"},"period":{"start":"2025-10-13T00:00:00.000+00:00","end":"2025-10-17T11:15:00.000+00:00"},"length":{"value":4,"unit":"days"},"diagnosis":[{"condition":{"reference":"Condition/ischemic-stroke-2cfa"},"use":{"coding":[{"system":"http://terminology.hl7.org/CodeSystem/diagnosis-role","code":"billing","display":"Billing"}]},"rank":1}]},"request":{"method":"PUT","url":"Encounter/61628e3b-b2b8-480f-b496-a279f356bed8"}},{"fullUrl":"https://madie.cms.gov/MedicationAdministration/5de6c3375b87f90000eaf1e1","resource":{"resourceType":"MedicationAdministration","id":"7fa4eaf8-6f1b-4028-aed8-0d9288004157","meta":{"profile":["http://hl7.org/fhir/us/qicore/StructureDefinition/qicore-medicationadministration"]},"status":"completed","medicationCodeableConcept":{"coding":[{"system":"http://www.nlm.nih.gov/research/umls/rxnorm","code":"1116635"}]},"subject":{"reference":"Patient/155afb0b-baef-4e1a-8255-dd3bc96c9c0d"},"effectivePeriod":{"start":"2025-10-12T23:59:00+00:00"}},"request":{"method":"PUT","url":"MedicationAdministration/7fa4eaf8-6f1b-4028-aed8-0d9288004157"}},{"fullUrl":"https://madie.cms.gov/Coverage/5e20a3721c76ba6c5896ec1d","resource":{"resourceType":"Coverage","id":"26a9cde2-14a9-4f18-bdd9-e87e75b48fd9","status":"active","beneficiary":{"reference":"Patient/155afb0b-baef-4e1a-8255-dd3bc96c9c0d"},"period":{"start":"1975-09-26T08:00:00+00:00"},"payor":[{"reference":"Organization/4b5a882f-1f43-485c-85c6-f5ad2337d5b1"}]},"request":{"method":"PUT","url":"Coverage/26a9cde2-14a9-4f18-bdd9-e87e75b48fd9"}},{"fullUrl":"https://madie.cms.gov/Condition/ischemic-stroke-2cfa","resource":{"resourceType":"Condition","id":"11b4a489-d2b7-4182-9940-a56ef3c409c5","meta":{"profile":["http://hl7.org/fhir/us/qicore/StructureDefinition/qicore-condition"]},"clinicalStatus":{"coding":[{"system":"http://terminology.hl7.org/CodeSystem/condition-clinical","code":"active"}]},"verificationStatus":{"coding":[{"system":"http://terminology.hl7.org/CodeSystem/condition-ver-status","code":"confirmed"}]},"category":[{"coding":[{"system":"http://terminology.hl7.org/CodeSystem/condition-category","code":"encounter-diagnosis","display":"Encounter Diagnosis"}]}],"code":{"coding":[{"system":"http://snomed.info/sct","version":"2020-09","code":"111297002","display":"Nonparalytic stroke (disorder)","userSelected":true}]},"subject":{"reference":"Patient/155afb0b-baef-4e1a-8255-dd3bc96c9c0d"},"recordedDate":"2025-08-03T08:00:00.000+00:00"},"request":{"method":"PUT","url":"Condition/11b4a489-d2b7-4182-9940-a56ef3c409c5"}},{"fullUrl":"https://madie.cms.gov/Organization/123456","resource":{"resourceType":"Organization","id":"4b5a882f-1f43-485c-85c6-f5ad2337d5b1","meta":{"profile":["http://hl7.org/fhir/us/qicore/StructureDefinition/qicore-organization"]},"identifier":[{"use":"temp","system":"urn:oid:2.16.840.1.113883.4.4","value":"21-3259825"}],"active":true,"type":[{"coding":[{"system":"http://terminology.hl7.org/CodeSystem/organization-type","code":"pay","display":"Payer"}]}],"name":"Blue Cross Blue Shield of Texas","telecom":[{"system":"phone","value":"(+1) 972-766-6900"}],"address":[{"use":"billing","type":"postal","line":["P.O. Box 660044"],"city":"Dallas","state":"TX","postalCode":"75266-0044","country":"USA"}]},"request":{"method":"PUT","url":"Organization/4b5a882f-1f43-485c-85c6-f5ad2337d5b1"}},{"fullUrl":"https://madie.cms.gov/MeasureReport/bcaccabf-7316-4e95-bbb5-c73eacd6ee87","resource":{"resourceType":"MeasureReport","id":"bcaccabf-7316-4e95-bbb5-c73eacd6ee87","meta":{"profile":["http://hl7.org/fhir/us/cqfmeasures/StructureDefinition/test-case-cqfm"]},"contained":[{"resourceType":"Parameters","id":"03fc1db9-9aa8-48f3-8c04-9711e7d9fc53-parameters","parameter":[{"name":"subject","valueString":"155afb0b-baef-4e1a-8255-dd3bc96c9c0d"}]}],"extension":[{"url":"http://hl7.org/fhir/us/cqfmeasures/StructureDefinition/cqfm-inputParameters","valueReference":{"reference":"#03fc1db9-9aa8-48f3-8c04-9711e7d9fc53-parameters"}},{"url":"http://hl7.org/fhir/us/cqfmeasures/StructureDefinition/cqfm-testCaseDescription","valueMarkdown":"Patient receives Ticagrelor during Obs, 2 days after Obs starts. ED ends 1 min before Obs.Obs ends 1 min before IP start at midnight. Testing Day of operator with HospitalizationWithObservation function.\n"}],"modifierExtension":[{"url":"http://hl7.org/fhir/us/cqfmeasures/StructureDefinition/cqfm-isTestCase","valueBoolean":true}],"status":"complete","type":"individual","measure":"https://madie.cms.gov/Measure/AntithromboticTherapyByEndofHospitalDay2FHIR","period":{"start":"2025-01-01","end":"2025-12-31"},"group":[{"population":[{"code":{"coding":[{"system":"http://terminology.hl7.org/CodeSystem/measure-population","code":"initial-population","display":"Initial Population"}]},"count":1},{"code":{"coding":[{"system":"http://terminology.hl7.org/CodeSystem/measure-population","code":"denominator","display":"Denominator"}]},"count":1},{"code":{"coding":[{"system":"http://terminology.hl7.org/CodeSystem/measure-population","code":"denominator-exclusion","display":"Denominator Exclusion"}]},"count":0},{"code":{"coding":[{"system":"http://terminology.hl7.org/CodeSystem/measure-population","code":"numerator","display":"Numerator"}]},"count":0},{"code":{"coding":[{"system":"http://terminology.hl7.org/CodeSystem/measure-population","code":"denominator-exception","display":"Denominator Exception"}]},"count":0}]}]},"request":{"method":"PUT","url":"MeasureReport/bcaccabf-7316-4e95-bbb5-c73eacd6ee87"}}]}