{"resourceType":"Bundle","id":"tests-11fc1901-7cc7-46c6-bbd0-58b614082170-bundle","type":"transaction","entry":[{"fullUrl":"https://madie.cms.gov/Patient/11fc1901-7cc7-46c6-bbd0-58b614082170","resource":{"resourceType":"Patient","id":"11fc1901-7cc7-46c6-bbd0-58b614082170","meta":{"profile":["http://hl7.org/fhir/us/qicore/StructureDefinition/qicore-patient"]},"text":{"status":"generated","div":"<div xmlns=\"http://www.w3.org/1999/xhtml\"><div class=\"hapiHeaderText\">INR1DayBFEncStart_NoEDNoObsBFEnc <b>DENEXCEPFAIL </b></div><table class=\"hapiPropertyTable\"><tbody><tr><td>Identifier</td><td>82ca1a5f2a06865800221d359dc5cd926ad16d8dec44c23f113683d4361f9002</td></tr><tr><td>Date of birth</td><td><span>26 September 1975</span></td></tr></tbody></table></div>"},"extension":[{"url":"http://hl7.org/fhir/us/core/StructureDefinition/us-core-race","extension":[{"url":"ombCategory","valueCoding":{"system":"urn:oid:2.16.840.1.113883.6.238","code":"2054-5","display":"Black or African American","userSelected":true}},{"url":"text","valueString":"Black or African American"}]},{"url":"http://hl7.org/fhir/us/core/StructureDefinition/us-core-ethnicity","extension":[{"url":"ombCategory","valueCoding":{"system":"urn:oid:2.16.840.1.113883.6.238","code":"2186-5","display":"Not Hispanic or Latino","userSelected":true}},{"url":"text","valueString":"Not Hispanic or Latino"}]}],"identifier":[{"type":{"coding":[{"system":"http://terminology.hl7.org/CodeSystem/v2-0203","code":"MR"}]},"system":"https://bonnie-fhir.healthit.gov/","value":"60f82c2f98086b570510e2a7"}],"active":true,"name":[{"use":"usual","family":"DENEXCEPFail","given":["INR1DayBFEncStart_NoEDNoObsBFEnc"]}],"gender":"female","birthDate":"1975-09-26"},"request":{"method":"PUT","url":"Patient/11fc1901-7cc7-46c6-bbd0-58b614082170"}},{"fullUrl":"https://madie.cms.gov/Encounter/5c954893b848462de0ae621e","resource":{"resourceType":"Encounter","id":"809bd5c2-145e-43aa-bb0f-8bf73aea59bf","meta":{"profile":["http://hl7.org/fhir/us/qicore/StructureDefinition/qicore-encounter"]},"status":"finished","class":{"system":"http://terminology.hl7.org/CodeSystem/v3-ActCode","code":"IMP","display":"inpatient encounter","userSelected":true},"type":[{"coding":[{"system":"http://snomed.info/sct","code":"32485007"}]}],"subject":{"reference":"Patient/11fc1901-7cc7-46c6-bbd0-58b614082170"},"period":{"start":"2025-10-11T06:15:00.000+00:00","end":"2025-10-15T11:30:00.000+00:00"},"length":{"value":4,"unit":"days"},"diagnosis":[{"condition":{"reference":"Condition/ischemic-stroke-a3b7"},"use":{"coding":[{"system":"http://terminology.hl7.org/CodeSystem/diagnosis-role","code":"billing","display":"Billing"}]},"rank":1}]},"request":{"method":"PUT","url":"Encounter/809bd5c2-145e-43aa-bb0f-8bf73aea59bf"}},{"fullUrl":"https://madie.cms.gov/Observation/5c954893b848462de0ae6220","resource":{"resourceType":"Observation","id":"805ec05f-1a4d-4817-a375-bc6296f40a4c","meta":{"profile":["http://hl7.org/fhir/us/qicore/StructureDefinition/qicore-observation"]},"status":"final","category":[{"coding":[{"system":"http://terminology.hl7.org/CodeSystem/observation-category","code":"laboratory","display":"Laboratory"}]}],"code":{"coding":[{"system":"http://loinc.org","code":"34714-6"}]},"subject":{"reference":"Patient/11fc1901-7cc7-46c6-bbd0-58b614082170"},"effectiveDateTime":"2025-10-10T06:14:00.000+00:00","issued":"2025-10-10T06:13:00.000+00:00","valueQuantity":{"value":3.6}},"request":{"method":"PUT","url":"Observation/805ec05f-1a4d-4817-a375-bc6296f40a4c"}},{"fullUrl":"https://madie.cms.gov/Coverage/5e20a3701c76ba6c5896ec0a","resource":{"resourceType":"Coverage","id":"9764adbc-ae23-49b1-86c8-a1e697408b16","status":"active","beneficiary":{"reference":"Patient/11fc1901-7cc7-46c6-bbd0-58b614082170"},"period":{"start":"1975-09-26T08:00:00+00:00"},"payor":[{"reference":"Organization/4b5a882f-1f43-485c-85c6-f5ad2337d5b1"}]},"request":{"method":"PUT","url":"Coverage/9764adbc-ae23-49b1-86c8-a1e697408b16"}},{"fullUrl":"https://madie.cms.gov/Condition/ischemic-stroke-a3b7","resource":{"resourceType":"Condition","id":"f547d95a-d0f4-4a05-8c12-9e2d1c3b847f","meta":{"profile":["http://hl7.org/fhir/us/qicore/StructureDefinition/qicore-condition"]},"clinicalStatus":{"coding":[{"system":"http://terminology.hl7.org/CodeSystem/condition-clinical","code":"active"}]},"verificationStatus":{"coding":[{"system":"http://terminology.hl7.org/CodeSystem/condition-ver-status","code":"confirmed"}]},"category":[{"coding":[{"system":"http://terminology.hl7.org/CodeSystem/condition-category","code":"encounter-diagnosis","display":"Encounter Diagnosis"}]}],"code":{"coding":[{"system":"http://snomed.info/sct","version":"2020-09","code":"111297002","display":"Nonparalytic stroke (disorder)","userSelected":true}]},"subject":{"reference":"Patient/11fc1901-7cc7-46c6-bbd0-58b614082170"},"recordedDate":"2025-07-28T08:00:00.000+00:00"},"request":{"method":"PUT","url":"Condition/f547d95a-d0f4-4a05-8c12-9e2d1c3b847f"}},{"fullUrl":"https://madie.cms.gov/Organization/123456","resource":{"resourceType":"Organization","id":"4b5a882f-1f43-485c-85c6-f5ad2337d5b1","meta":{"profile":["http://hl7.org/fhir/us/qicore/StructureDefinition/qicore-organization"]},"identifier":[{"use":"temp","system":"urn:oid:2.16.840.1.113883.4.4","value":"21-3259825"}],"active":true,"type":[{"coding":[{"system":"http://terminology.hl7.org/CodeSystem/organization-type","code":"pay","display":"Payer"}]}],"name":"Blue Cross Blue Shield of Texas","telecom":[{"system":"phone","value":"(+1) 972-766-6900"}],"address":[{"use":"billing","type":"postal","line":["P.O. Box 660044"],"city":"Dallas","state":"TX","postalCode":"75266-0044","country":"USA"}]},"request":{"method":"PUT","url":"Organization/4b5a882f-1f43-485c-85c6-f5ad2337d5b1"}},{"fullUrl":"https://madie.cms.gov/MeasureReport/2d22ac4f-95d8-4d25-944a-07739915edb5","resource":{"resourceType":"MeasureReport","id":"2d22ac4f-95d8-4d25-944a-07739915edb5","meta":{"profile":["http://hl7.org/fhir/us/cqfmeasures/StructureDefinition/test-case-cqfm"]},"contained":[{"resourceType":"Parameters","id":"f97ac344-428a-4b91-a8ce-5ea3bee4301c-parameters","parameter":[{"name":"subject","valueString":"11fc1901-7cc7-46c6-bbd0-58b614082170"}]}],"extension":[{"url":"http://hl7.org/fhir/us/cqfmeasures/StructureDefinition/cqfm-inputParameters","valueReference":{"reference":"#f97ac344-428a-4b91-a8ce-5ea3bee4301c-parameters"}},{"url":"http://hl7.org/fhir/us/cqfmeasures/StructureDefinition/cqfm-testCaseDescription","valueMarkdown":"Patient receives INR 1 day before IP start. No ED. No Obs. Testing Day of operator with HospitalizationWithObservation function.\n"}],"modifierExtension":[{"url":"http://hl7.org/fhir/us/cqfmeasures/StructureDefinition/cqfm-isTestCase","valueBoolean":true}],"status":"complete","type":"individual","measure":"https://madie.cms.gov/Measure/AntithromboticTherapyByEndofHospitalDay2FHIR","period":{"start":"2025-01-01","end":"2025-12-31"},"group":[{"population":[{"code":{"coding":[{"system":"http://terminology.hl7.org/CodeSystem/measure-population","code":"initial-population","display":"Initial Population"}]},"count":1},{"code":{"coding":[{"system":"http://terminology.hl7.org/CodeSystem/measure-population","code":"denominator","display":"Denominator"}]},"count":1},{"code":{"coding":[{"system":"http://terminology.hl7.org/CodeSystem/measure-population","code":"denominator-exclusion","display":"Denominator Exclusion"}]},"count":0},{"code":{"coding":[{"system":"http://terminology.hl7.org/CodeSystem/measure-population","code":"numerator","display":"Numerator"}]},"count":0},{"code":{"coding":[{"system":"http://terminology.hl7.org/CodeSystem/measure-population","code":"denominator-exception","display":"Denominator Exception"}]},"count":0}]}]},"request":{"method":"PUT","url":"MeasureReport/2d22ac4f-95d8-4d25-944a-07739915edb5"}}]}