{"resourceType":"Bundle","id":"tests-9843e92a-751f-4b3c-86b8-50397a64c8fd-bundle","type":"transaction","entry":[{"fullUrl":"https://madie.cms.gov/Patient/9843e92a-751f-4b3c-86b8-50397a64c8fd","resource":{"resourceType":"Patient","id":"9843e92a-751f-4b3c-86b8-50397a64c8fd","meta":{"profile":["http://hl7.org/fhir/us/qicore/StructureDefinition/qicore-patient"]},"text":{"status":"generated","div":"<div xmlns=\"http://www.w3.org/1999/xhtml\"><div class=\"hapiHeaderText\">INRDayOfObs_ED&lt;1hrDayOfObs&lt;1hrDayAftBFEncDayAft <b>DENEXCEPASS </b></div><table class=\"hapiPropertyTable\"><tbody><tr><td>Identifier</td><td>e43c076b9afcb907f634df4ae6afd4d155fdd8ea59212e07cc71af3a9ba2e49c</td></tr><tr><td>Date of birth</td><td><span>26 September 1975</span></td></tr></tbody></table></div>"},"extension":[{"url":"http://hl7.org/fhir/us/core/StructureDefinition/us-core-race","extension":[{"url":"ombCategory","valueCoding":{"system":"urn:oid:2.16.840.1.113883.6.238","code":"2054-5","display":"Black or African American","userSelected":true}},{"url":"text","valueString":"Black or African American"}]},{"url":"http://hl7.org/fhir/us/core/StructureDefinition/us-core-ethnicity","extension":[{"url":"ombCategory","valueCoding":{"system":"urn:oid:2.16.840.1.113883.6.238","code":"2186-5","display":"Not Hispanic or Latino","userSelected":true}},{"url":"text","valueString":"Not Hispanic or Latino"}]}],"identifier":[{"type":{"coding":[{"system":"http://terminology.hl7.org/CodeSystem/v2-0203","code":"MR"}]},"system":"https://bonnie-fhir.healthit.gov/","value":"60f82c2f98086b570510e2ad"}],"active":true,"name":[{"use":"usual","family":"DENEXCEPass","given":["INRDayOfObs_ED<1hrDayOfObs<1hrDayAftBFEncDayAft"]}],"gender":"female","birthDate":"1975-09-26"},"request":{"method":"PUT","url":"Patient/9843e92a-751f-4b3c-86b8-50397a64c8fd"}},{"fullUrl":"https://madie.cms.gov/Encounter/5c954894b848462de0ae62ea","resource":{"resourceType":"Encounter","id":"2b6b4397-70b2-4b32-beee-043dec0aaec4","meta":{"profile":["http://hl7.org/fhir/us/qicore/StructureDefinition/qicore-encounter"]},"status":"finished","class":{"system":"http://terminology.hl7.org/CodeSystem/v3-ActCode","code":"EMER","display":"emergency","userSelected":true},"type":[{"coding":[{"system":"http://snomed.info/sct","code":"4525004"}]}],"subject":{"reference":"Patient/9843e92a-751f-4b3c-86b8-50397a64c8fd"},"period":{"start":"2025-10-10T06:15:00+00:00","end":"2025-10-10T23:59:00+00:00"},"length":{"value":0,"unit":"days"}},"request":{"method":"PUT","url":"Encounter/2b6b4397-70b2-4b32-beee-043dec0aaec4"}},{"fullUrl":"https://madie.cms.gov/Encounter/5c954894b848462de0ae62eb","resource":{"resourceType":"Encounter","id":"92964593-d7a5-45f5-a2ea-40dbcc15a15b","meta":{"profile":["http://hl7.org/fhir/us/qicore/StructureDefinition/qicore-encounter"]},"status":"finished","class":{"system":"http://terminology.hl7.org/CodeSystem/v3-ActCode","code":"OBSENC","display":"observation encounter","userSelected":true},"type":[{"coding":[{"system":"http://snomed.info/sct","code":"448851000124103"}]}],"subject":{"reference":"Patient/9843e92a-751f-4b3c-86b8-50397a64c8fd"},"period":{"start":"2025-10-11T00:00:00+00:00","end":"2025-10-11T00:59:00+00:00"},"length":{"value":0,"unit":"days"}},"request":{"method":"PUT","url":"Encounter/92964593-d7a5-45f5-a2ea-40dbcc15a15b"}},{"fullUrl":"https://madie.cms.gov/Encounter/5c954894b848462de0ae62ec","resource":{"resourceType":"Encounter","id":"404c3319-0a10-4f23-b50f-e823e0a853f0","meta":{"profile":["http://hl7.org/fhir/us/qicore/StructureDefinition/qicore-encounter"]},"status":"finished","class":{"system":"http://terminology.hl7.org/CodeSystem/v3-ActCode","code":"IMP","display":"inpatient encounter","userSelected":true},"type":[{"coding":[{"system":"http://snomed.info/sct","code":"32485007"}]}],"subject":{"reference":"Patient/9843e92a-751f-4b3c-86b8-50397a64c8fd"},"period":{"start":"2025-10-11T01:00:00+00:00","end":"2025-10-15T11:30:00+00:00"},"length":{"value":4,"unit":"days"},"diagnosis":[{"condition":{"reference":"Condition/ischemic-stroke-9f15"},"use":{"coding":[{"system":"http://terminology.hl7.org/CodeSystem/diagnosis-role","code":"billing","display":"Billing"}]},"rank":1}]},"request":{"method":"PUT","url":"Encounter/404c3319-0a10-4f23-b50f-e823e0a853f0"}},{"fullUrl":"https://madie.cms.gov/Observation/5c954894b848462de0ae62ee","resource":{"resourceType":"Observation","id":"9228110e-aee2-4f78-99c8-2c88e3ab8e43","meta":{"profile":["http://hl7.org/fhir/us/qicore/StructureDefinition/qicore-observation"]},"status":"final","category":[{"coding":[{"system":"http://terminology.hl7.org/CodeSystem/observation-category","code":"laboratory","display":"Laboratory"}]}],"code":{"coding":[{"system":"http://loinc.org","code":"34714-6"}]},"subject":{"reference":"Patient/9843e92a-751f-4b3c-86b8-50397a64c8fd"},"effectivePeriod":{"start":"2025-10-11T08:00:00+00:00"},"issued":"2025-10-11T00:01:00.000+00:00","valueQuantity":{"value":3.6}},"request":{"method":"PUT","url":"Observation/9228110e-aee2-4f78-99c8-2c88e3ab8e43"}},{"fullUrl":"https://madie.cms.gov/Coverage/5e20a3701c76ba6c5896ec10","resource":{"resourceType":"Coverage","id":"451dd925-2f10-4bd3-8c3d-771cafc25ceb","status":"active","beneficiary":{"reference":"Patient/9843e92a-751f-4b3c-86b8-50397a64c8fd"},"period":{"start":"1975-09-26T08:00:00+00:00"},"payor":[{"reference":"Organization/4b5a882f-1f43-485c-85c6-f5ad2337d5b1"}]},"request":{"method":"PUT","url":"Coverage/451dd925-2f10-4bd3-8c3d-771cafc25ceb"}},{"fullUrl":"https://madie.cms.gov/Condition/ischemic-stroke-9f15","resource":{"resourceType":"Condition","id":"6fa9e5da-7bc2-49ba-9b19-c6766c33af57","meta":{"profile":["http://hl7.org/fhir/us/qicore/StructureDefinition/qicore-condition"]},"clinicalStatus":{"coding":[{"system":"http://terminology.hl7.org/CodeSystem/condition-clinical","code":"active"}]},"verificationStatus":{"coding":[{"system":"http://terminology.hl7.org/CodeSystem/condition-ver-status","code":"confirmed"}]},"category":[{"coding":[{"system":"http://terminology.hl7.org/CodeSystem/condition-category","code":"encounter-diagnosis","display":"Encounter Diagnosis"}]}],"code":{"coding":[{"system":"http://snomed.info/sct","version":"2020-09","code":"111297002","display":"Nonparalytic stroke (disorder)","userSelected":true}]},"subject":{"reference":"Patient/9843e92a-751f-4b3c-86b8-50397a64c8fd"},"recordedDate":"2025-08-06T08:00:00.000+00:00"},"request":{"method":"PUT","url":"Condition/6fa9e5da-7bc2-49ba-9b19-c6766c33af57"}},{"fullUrl":"https://madie.cms.gov/Organization/123456","resource":{"resourceType":"Organization","id":"4b5a882f-1f43-485c-85c6-f5ad2337d5b1","meta":{"profile":["http://hl7.org/fhir/us/qicore/StructureDefinition/qicore-organization"]},"identifier":[{"use":"temp","system":"urn:oid:2.16.840.1.113883.4.4","value":"21-3259825"}],"active":true,"type":[{"coding":[{"system":"http://terminology.hl7.org/CodeSystem/organization-type","code":"pay","display":"Payer"}]}],"name":"Blue Cross Blue Shield of Texas","telecom":[{"system":"phone","value":"(+1) 972-766-6900"}],"address":[{"use":"billing","type":"postal","line":["P.O. Box 660044"],"city":"Dallas","state":"TX","postalCode":"75266-0044","country":"USA"}]},"request":{"method":"PUT","url":"Organization/4b5a882f-1f43-485c-85c6-f5ad2337d5b1"}},{"fullUrl":"https://madie.cms.gov/MeasureReport/1bdf6188-ab5b-4952-9571-839301bd93d8","resource":{"resourceType":"MeasureReport","id":"1bdf6188-ab5b-4952-9571-839301bd93d8","meta":{"profile":["http://hl7.org/fhir/us/cqfmeasures/StructureDefinition/test-case-cqfm"]},"contained":[{"resourceType":"Parameters","id":"98f98e1a-9100-4322-ad1b-dc307915bcf9-parameters","parameter":[{"name":"subject","valueString":"9843e92a-751f-4b3c-86b8-50397a64c8fd"}]}],"extension":[{"url":"http://hl7.org/fhir/us/cqfmeasures/StructureDefinition/cqfm-inputParameters","valueReference":{"reference":"#98f98e1a-9100-4322-ad1b-dc307915bcf9-parameters"}},{"url":"http://hl7.org/fhir/us/cqfmeasures/StructureDefinition/cqfm-testCaseDescription","valueMarkdown":"Patient receives INR day of Obs, ED ends 1 min before Obs start at midnight, Obs ends 1 min before IP start. Testing Day of operator with HospitalizationWithObservation function.\n"}],"modifierExtension":[{"url":"http://hl7.org/fhir/us/cqfmeasures/StructureDefinition/cqfm-isTestCase","valueBoolean":true}],"status":"complete","type":"individual","measure":"https://madie.cms.gov/Measure/AntithromboticTherapyByEndofHospitalDay2FHIR","period":{"start":"2025-01-01","end":"2025-12-31"},"group":[{"population":[{"code":{"coding":[{"system":"http://terminology.hl7.org/CodeSystem/measure-population","code":"initial-population","display":"Initial Population"}]},"count":1},{"code":{"coding":[{"system":"http://terminology.hl7.org/CodeSystem/measure-population","code":"denominator","display":"Denominator"}]},"count":1},{"code":{"coding":[{"system":"http://terminology.hl7.org/CodeSystem/measure-population","code":"denominator-exclusion","display":"Denominator Exclusion"}]},"count":0},{"code":{"coding":[{"system":"http://terminology.hl7.org/CodeSystem/measure-population","code":"numerator","display":"Numerator"}]},"count":0},{"code":{"coding":[{"system":"http://terminology.hl7.org/CodeSystem/measure-population","code":"denominator-exception","display":"Denominator Exception"}]},"count":1}]}]},"request":{"method":"PUT","url":"MeasureReport/1bdf6188-ab5b-4952-9571-839301bd93d8"}}]}