{"resourceType":"Bundle","id":"tests-3b193bfc-511a-49a2-987a-50d8c7d9a0df-bundle","type":"transaction","entry":[{"fullUrl":"https://madie.cms.gov/Patient/3b193bfc-511a-49a2-987a-50d8c7d9a0df","resource":{"resourceType":"Patient","id":"3b193bfc-511a-49a2-987a-50d8c7d9a0df","meta":{"profile":["http://hl7.org/fhir/us/qicore/StructureDefinition/qicore-patient"]},"text":{"status":"generated","div":"<div xmlns=\"http://www.w3.org/1999/xhtml\"><div class=\"hapiHeaderText\">CMP_DayOf_RelvDat_1minB4EDEnd_EDEndLT1hrB4Obs_ObsEndLT1hrB4IP <b>DENEXPASS </b></div><table class=\"hapiPropertyTable\"><tbody><tr><td>Identifier</td><td>e45ea273a97caf856d1691cd883a08e0</td></tr><tr><td>Date of birth</td><td><span>26 September 1975</span></td></tr></tbody></table></div>"},"extension":[{"url":"http://hl7.org/fhir/us/core/StructureDefinition/us-core-race","extension":[{"url":"ombCategory","valueCoding":{"system":"urn:oid:2.16.840.1.113883.6.238","code":"2054-5","display":"Black or African American","userSelected":true}},{"url":"text","valueString":"Black or African American"}]},{"url":"http://hl7.org/fhir/us/core/StructureDefinition/us-core-ethnicity","extension":[{"url":"ombCategory","valueCoding":{"system":"urn:oid:2.16.840.1.113883.6.238","code":"2186-5","display":"Not Hispanic or Latino","userSelected":true}},{"url":"text","valueString":"Not Hispanic or Latino"}]}],"identifier":[{"type":{"coding":[{"system":"http://terminology.hl7.org/CodeSystem/v2-0203","code":"MR"}]},"system":"https://bonnie-fhir.healthit.gov/","value":"60f82c2e98086b570510e287"}],"active":true,"name":[{"use":"usual","family":"DENEXPass","given":["CMP_DayOf_RelvDat_1minB4EDEnd_EDEndLT1hrB4Obs_ObsEndLT1hrB4IP"]}],"gender":"female","birthDate":"1975-09-26"},"request":{"method":"PUT","url":"Patient/3b193bfc-511a-49a2-987a-50d8c7d9a0df"}},{"fullUrl":"https://madie.cms.gov/Encounter/5c954893b848462de0ae6259","resource":{"resourceType":"Encounter","id":"d8d17da8-bd35-4790-8bc6-5540717fa70f","meta":{"profile":["http://hl7.org/fhir/us/qicore/StructureDefinition/qicore-encounter"]},"status":"finished","class":{"system":"http://terminology.hl7.org/CodeSystem/v3-ActCode","code":"EMER","display":"emergency"},"type":[{"coding":[{"system":"http://snomed.info/sct","code":"4525004"}]}],"subject":{"reference":"Patient/3b193bfc-511a-49a2-987a-50d8c7d9a0df"},"period":{"start":"2025-10-10T04:00:00+00:00","end":"2025-10-10T06:00:00+00:00"},"length":{"value":1,"unit":"days"}},"request":{"method":"PUT","url":"Encounter/d8d17da8-bd35-4790-8bc6-5540717fa70f"}},{"fullUrl":"https://madie.cms.gov/Encounter/5c954893b848462de0ae625a","resource":{"resourceType":"Encounter","id":"0eb1ad15-4904-4372-b996-912211a16c25","meta":{"profile":["http://hl7.org/fhir/us/qicore/StructureDefinition/qicore-encounter"]},"status":"finished","class":{"system":"http://terminology.hl7.org/CodeSystem/v3-ActCode","code":"IMP","display":"inpatient encounter"},"type":[{"coding":[{"system":"http://snomed.info/sct","code":"32485007"}]}],"subject":{"reference":"Patient/3b193bfc-511a-49a2-987a-50d8c7d9a0df"},"period":{"start":"2025-10-10T08:59:00+00:00","end":"2025-10-11T11:15:00+00:00"},"length":{"value":1,"unit":"days"},"diagnosis":[{"condition":{"reference":"Condition/ischemic-stroke-8aa6"},"use":{"coding":[{"system":"http://terminology.hl7.org/CodeSystem/diagnosis-role","code":"billing","display":"Billing"}]},"rank":1}]},"request":{"method":"PUT","url":"Encounter/0eb1ad15-4904-4372-b996-912211a16c25"}},{"fullUrl":"https://madie.cms.gov/Encounter/5fc7e790e344cb0000f78c1b","resource":{"resourceType":"Encounter","id":"60c69129-41c7-4e55-9216-252c76032d30","meta":{"profile":["http://hl7.org/fhir/us/qicore/StructureDefinition/qicore-encounter"]},"status":"finished","class":{"system":"http://terminology.hl7.org/CodeSystem/v3-ActCode","code":"OBSENC","display":"observation encounter"},"type":[{"coding":[{"system":"http://snomed.info/sct","code":"448951000124107"}]}],"subject":{"reference":"Patient/3b193bfc-511a-49a2-987a-50d8c7d9a0df"},"period":{"start":"2025-10-10T06:59:00+00:00","end":"2025-10-10T08:00:00+00:00"}},"request":{"method":"PUT","url":"Encounter/60c69129-41c7-4e55-9216-252c76032d30"}},{"fullUrl":"https://madie.cms.gov/Procedure/5c954893b848462de0ae625c","resource":{"resourceType":"Procedure","id":"b786ec54-6d28-4819-b7ed-8c3adbc3ab8a","meta":{"profile":["http://hl7.org/fhir/us/qicore/StructureDefinition/qicore-procedure"]},"extension":[{"url":"http://hl7.org/fhir/us/qicore/StructureDefinition/qicore-recorded","valueDateTime":"2025-10-10T05:59:00+00:00"}],"status":"completed","code":{"coding":[{"system":"http://snomed.info/sct","code":"133918004"}]},"subject":{"reference":"Patient/3b193bfc-511a-49a2-987a-50d8c7d9a0df"},"performedPeriod":{"start":"2025-10-10T05:59:00+00:00","end":"2025-10-10T06:00:00+00:00"}},"request":{"method":"PUT","url":"Procedure/b786ec54-6d28-4819-b7ed-8c3adbc3ab8a"}},{"fullUrl":"https://madie.cms.gov/Coverage/5e20a36c1c76ba6c5896ebea","resource":{"resourceType":"Coverage","id":"038bc43c-365d-46a1-adbd-cdb88183221b","status":"active","beneficiary":{"reference":"Patient/3b193bfc-511a-49a2-987a-50d8c7d9a0df"},"period":{"start":"1975-09-26T08:00:00+00:00"},"payor":[{"reference":"Organization/4b5a882f-1f43-485c-85c6-f5ad2337d5b1"}]},"request":{"method":"PUT","url":"Coverage/038bc43c-365d-46a1-adbd-cdb88183221b"}},{"fullUrl":"https://madie.cms.gov/Condition/ischemic-stroke-8aa6","resource":{"resourceType":"Condition","id":"7851e583-2a8a-436c-ac78-872604e4ef38","meta":{"profile":["http://hl7.org/fhir/us/qicore/StructureDefinition/qicore-condition"]},"clinicalStatus":{"coding":[{"system":"http://terminology.hl7.org/CodeSystem/condition-clinical","code":"active"}]},"verificationStatus":{"coding":[{"system":"http://terminology.hl7.org/CodeSystem/condition-ver-status","code":"confirmed"}]},"category":[{"coding":[{"system":"http://terminology.hl7.org/CodeSystem/condition-category","code":"encounter-diagnosis","display":"Encounter Diagnosis"}]}],"code":{"coding":[{"system":"http://snomed.info/sct","version":"2020-09","code":"111297002","display":"Nonparalytic stroke (disorder)","userSelected":true}]},"subject":{"reference":"Patient/3b193bfc-511a-49a2-987a-50d8c7d9a0df"},"recordedDate":"2025-08-13T08:00:00.000+00:00"},"request":{"method":"PUT","url":"Condition/7851e583-2a8a-436c-ac78-872604e4ef38"}},{"fullUrl":"https://madie.cms.gov/Organization/123456","resource":{"resourceType":"Organization","id":"4b5a882f-1f43-485c-85c6-f5ad2337d5b1","meta":{"profile":["http://hl7.org/fhir/us/qicore/StructureDefinition/qicore-organization"]},"identifier":[{"use":"temp","system":"urn:oid:2.16.840.1.113883.4.4","value":"21-3259825"}],"active":true,"type":[{"coding":[{"system":"http://terminology.hl7.org/CodeSystem/organization-type","code":"pay","display":"Payer"}]}],"name":"Blue Cross Blue Shield of Texas","telecom":[{"system":"phone","value":"(+1) 972-766-6900"}],"address":[{"use":"billing","type":"postal","line":["P.O. Box 660044"],"city":"Dallas","state":"TX","postalCode":"75266-0044","country":"USA"}]},"request":{"method":"PUT","url":"Organization/4b5a882f-1f43-485c-85c6-f5ad2337d5b1"}},{"fullUrl":"https://madie.cms.gov/MeasureReport/50b5d5d2-d3bd-476e-9cc6-9657381dfc0c","resource":{"resourceType":"MeasureReport","id":"50b5d5d2-d3bd-476e-9cc6-9657381dfc0c","meta":{"profile":["http://hl7.org/fhir/us/cqfmeasures/StructureDefinition/test-case-cqfm"]},"contained":[{"resourceType":"Parameters","id":"a6a8b90e-a8b1-42ac-9835-0597861d4648-parameters","parameter":[{"name":"subject","valueString":"3b193bfc-511a-49a2-987a-50d8c7d9a0df"}]}],"extension":[{"url":"http://hl7.org/fhir/us/cqfmeasures/StructureDefinition/cqfm-inputParameters","valueReference":{"reference":"#a6a8b90e-a8b1-42ac-9835-0597861d4648-parameters"}},{"url":"http://hl7.org/fhir/us/cqfmeasures/StructureDefinition/cqfm-testCaseDescription","valueMarkdown":"Comfort measures performed on the first day of hospitalization using relevant date time, 1 minute before ED end, ED ends less than 1 hour before Obs, Obs ends less than 1 hour before IP. \n"}],"modifierExtension":[{"url":"http://hl7.org/fhir/us/cqfmeasures/StructureDefinition/cqfm-isTestCase","valueBoolean":true}],"status":"complete","type":"individual","measure":"https://madie.cms.gov/Measure/AntithromboticTherapyByEndofHospitalDay2FHIR","period":{"start":"2025-01-01","end":"2025-12-31"},"group":[{"population":[{"code":{"coding":[{"system":"http://terminology.hl7.org/CodeSystem/measure-population","code":"initial-population","display":"Initial Population"}]},"count":1},{"code":{"coding":[{"system":"http://terminology.hl7.org/CodeSystem/measure-population","code":"denominator","display":"Denominator"}]},"count":1},{"code":{"coding":[{"system":"http://terminology.hl7.org/CodeSystem/measure-population","code":"denominator-exclusion","display":"Denominator Exclusion"}]},"count":1},{"code":{"coding":[{"system":"http://terminology.hl7.org/CodeSystem/measure-population","code":"numerator","display":"Numerator"}]},"count":0},{"code":{"coding":[{"system":"http://terminology.hl7.org/CodeSystem/measure-population","code":"denominator-exception","display":"Denominator Exception"}]},"count":0}]}]},"request":{"method":"PUT","url":"MeasureReport/50b5d5d2-d3bd-476e-9cc6-9657381dfc0c"}}]}