{"resourceType":"Bundle","id":"tests-3fbd6ec2-8d40-45e7-90d7-747d7c491c1a-bundle","type":"transaction","entry":[{"fullUrl":"https://madie.cms.gov/Patient/3fbd6ec2-8d40-45e7-90d7-747d7c491c1a","resource":{"resourceType":"Patient","id":"3fbd6ec2-8d40-45e7-90d7-747d7c491c1a","meta":{"profile":["http://hl7.org/fhir/us/qicore/StructureDefinition/qicore-patient"]},"text":{"status":"generated","div":"<div xmlns=\"http://www.w3.org/1999/xhtml\"><div class=\"hapiHeaderText\">Med1TPAStart_inGap_ofEDandEncIP <b>DENEXPASS </b></div><table class=\"hapiPropertyTable\"><tbody><tr><td>Identifier</td><td>b0519c7cbaeef57f16bed4e113c51983</td></tr><tr><td>Date of birth</td><td><span>26 September 1975</span></td></tr></tbody></table></div>"},"extension":[{"url":"http://hl7.org/fhir/us/core/StructureDefinition/us-core-race","extension":[{"url":"ombCategory","valueCoding":{"system":"urn:oid:2.16.840.1.113883.6.238","code":"2054-5","display":"Black or African American","userSelected":true}},{"url":"text","valueString":"Black or African American"}]},{"url":"http://hl7.org/fhir/us/core/StructureDefinition/us-core-ethnicity","extension":[{"url":"ombCategory","valueCoding":{"system":"urn:oid:2.16.840.1.113883.6.238","code":"2186-5","display":"Not Hispanic or Latino","userSelected":true}},{"url":"text","valueString":"Not Hispanic or Latino"}]}],"identifier":[{"type":{"coding":[{"system":"http://terminology.hl7.org/CodeSystem/v2-0203","code":"MR"}]},"system":"https://bonnie-fhir.healthit.gov/","value":"60f82c2e98086b570510e282"}],"active":true,"name":[{"use":"usual","family":"DENEXPass","given":["Med1TPAStart_inGap_ofEDandEncIP"]}],"gender":"female","birthDate":"1975-09-26"},"request":{"method":"PUT","url":"Patient/3fbd6ec2-8d40-45e7-90d7-747d7c491c1a"}},{"fullUrl":"https://madie.cms.gov/Encounter/5c954893b848462de0ae6249","resource":{"resourceType":"Encounter","id":"bc1364e6-e45c-4c43-8a14-7153532f1564","meta":{"profile":["http://hl7.org/fhir/us/qicore/StructureDefinition/qicore-encounter"]},"status":"finished","class":{"system":"http://terminology.hl7.org/CodeSystem/v3-ActCode","code":"EMER","display":"emergency"},"type":[{"coding":[{"system":"http://snomed.info/sct","code":"4525004"}]}],"subject":{"reference":"Patient/3fbd6ec2-8d40-45e7-90d7-747d7c491c1a"},"period":{"start":"2025-10-10T06:00:00+00:00","end":"2025-10-10T08:30:00+00:00"},"length":{"value":0,"unit":"days"}},"request":{"method":"PUT","url":"Encounter/bc1364e6-e45c-4c43-8a14-7153532f1564"}},{"fullUrl":"https://madie.cms.gov/Encounter/5c954893b848462de0ae624a","resource":{"resourceType":"Encounter","id":"af1b98df-5d79-43af-a75f-2afe45e268d6","meta":{"profile":["http://hl7.org/fhir/us/qicore/StructureDefinition/qicore-encounter"]},"status":"finished","class":{"system":"http://terminology.hl7.org/CodeSystem/v3-ActCode","code":"IMP","display":"inpatient encounter"},"type":[{"coding":[{"system":"http://snomed.info/sct","code":"32485007"}]}],"subject":{"reference":"Patient/3fbd6ec2-8d40-45e7-90d7-747d7c491c1a"},"period":{"start":"2025-10-10T09:00:00+00:00","end":"2025-10-12T11:15:00+00:00"},"length":{"value":2,"unit":"days"},"diagnosis":[{"condition":{"reference":"Condition/ischemic-stroke-2d62"},"use":{"coding":[{"system":"http://terminology.hl7.org/CodeSystem/diagnosis-role","code":"billing","display":"Billing"}]},"rank":1}]},"request":{"method":"PUT","url":"Encounter/af1b98df-5d79-43af-a75f-2afe45e268d6"}},{"fullUrl":"https://madie.cms.gov/MedicationAdministration/5c954893b848462de0ae624c","resource":{"resourceType":"MedicationAdministration","id":"c892bc93-b57e-4310-8e6f-edf942f652c3","meta":{"profile":["http://hl7.org/fhir/us/qicore/StructureDefinition/qicore-medicationadministration"]},"status":"completed","medicationCodeableConcept":{"coding":[{"system":"http://www.nlm.nih.gov/research/umls/rxnorm","code":"1804799"}]},"subject":{"reference":"Patient/3fbd6ec2-8d40-45e7-90d7-747d7c491c1a"},"effectivePeriod":{"start":"2025-10-10T08:35:00+00:00"}},"request":{"method":"PUT","url":"MedicationAdministration/c892bc93-b57e-4310-8e6f-edf942f652c3"}},{"fullUrl":"https://madie.cms.gov/Coverage/5e20a36b1c76ba6c5896ebe5","resource":{"resourceType":"Coverage","id":"c6c1d25d-b0d8-4975-8b22-7f4b61696e07","status":"active","beneficiary":{"reference":"Patient/3fbd6ec2-8d40-45e7-90d7-747d7c491c1a"},"period":{"start":"1975-09-26T08:00:00+00:00"},"payor":[{"reference":"Organization/4b5a882f-1f43-485c-85c6-f5ad2337d5b1"}]},"request":{"method":"PUT","url":"Coverage/c6c1d25d-b0d8-4975-8b22-7f4b61696e07"}},{"fullUrl":"https://madie.cms.gov/Condition/ischemic-stroke-2d62","resource":{"resourceType":"Condition","id":"c35a84e2-bdc2-4819-8595-7e766ac6cf8c","meta":{"profile":["http://hl7.org/fhir/us/qicore/StructureDefinition/qicore-condition"]},"clinicalStatus":{"coding":[{"system":"http://terminology.hl7.org/CodeSystem/condition-clinical","code":"active"}]},"verificationStatus":{"coding":[{"system":"http://terminology.hl7.org/CodeSystem/condition-ver-status","code":"confirmed"}]},"category":[{"coding":[{"system":"http://terminology.hl7.org/CodeSystem/condition-category","code":"encounter-diagnosis","display":"Encounter Diagnosis"}]}],"code":{"coding":[{"system":"http://snomed.info/sct","version":"2020-09","code":"111297002","display":"Nonparalytic stroke (disorder)","userSelected":true}]},"subject":{"reference":"Patient/3fbd6ec2-8d40-45e7-90d7-747d7c491c1a"},"recordedDate":"2025-08-13T08:00:00.000+00:00"},"request":{"method":"PUT","url":"Condition/c35a84e2-bdc2-4819-8595-7e766ac6cf8c"}},{"fullUrl":"https://madie.cms.gov/Organization/123456","resource":{"resourceType":"Organization","id":"4b5a882f-1f43-485c-85c6-f5ad2337d5b1","meta":{"profile":["http://hl7.org/fhir/us/qicore/StructureDefinition/qicore-organization"]},"identifier":[{"use":"temp","system":"urn:oid:2.16.840.1.113883.4.4","value":"21-3259825"}],"active":true,"type":[{"coding":[{"system":"http://terminology.hl7.org/CodeSystem/organization-type","code":"pay","display":"Payer"}]}],"name":"Blue Cross Blue Shield of Texas","telecom":[{"system":"phone","value":"(+1) 972-766-6900"}],"address":[{"use":"billing","type":"postal","line":["P.O. Box 660044"],"city":"Dallas","state":"TX","postalCode":"75266-0044","country":"USA"}]},"request":{"method":"PUT","url":"Organization/4b5a882f-1f43-485c-85c6-f5ad2337d5b1"}},{"fullUrl":"https://madie.cms.gov/MeasureReport/c5e23323-7351-4797-bb27-3b68f185d965","resource":{"resourceType":"MeasureReport","id":"c5e23323-7351-4797-bb27-3b68f185d965","meta":{"profile":["http://hl7.org/fhir/us/cqfmeasures/StructureDefinition/test-case-cqfm"]},"contained":[{"resourceType":"Parameters","id":"4b5aeedb-2cb0-41e6-b0c2-2447daff7116-parameters","parameter":[{"name":"subject","valueString":"3fbd6ec2-8d40-45e7-90d7-747d7c491c1a"}]}],"extension":[{"url":"http://hl7.org/fhir/us/cqfmeasures/StructureDefinition/cqfm-inputParameters","valueReference":{"reference":"#4b5aeedb-2cb0-41e6-b0c2-2447daff7116-parameters"}},{"url":"http://hl7.org/fhir/us/cqfmeasures/StructureDefinition/cqfm-testCaseDescription","valueMarkdown":"\"Patient has Med TPA between ED and Enc IP ,(in gap) \n  global.\"\"Hospitalization\"\" =(Ed+IP)\"\n"}],"modifierExtension":[{"url":"http://hl7.org/fhir/us/cqfmeasures/StructureDefinition/cqfm-isTestCase","valueBoolean":true}],"status":"complete","type":"individual","measure":"https://madie.cms.gov/Measure/AntithromboticTherapyByEndofHospitalDay2FHIR","period":{"start":"2025-01-01","end":"2025-12-31"},"group":[{"population":[{"code":{"coding":[{"system":"http://terminology.hl7.org/CodeSystem/measure-population","code":"initial-population","display":"Initial Population"}]},"count":1},{"code":{"coding":[{"system":"http://terminology.hl7.org/CodeSystem/measure-population","code":"denominator","display":"Denominator"}]},"count":1},{"code":{"coding":[{"system":"http://terminology.hl7.org/CodeSystem/measure-population","code":"denominator-exclusion","display":"Denominator Exclusion"}]},"count":1},{"code":{"coding":[{"system":"http://terminology.hl7.org/CodeSystem/measure-population","code":"numerator","display":"Numerator"}]},"count":0},{"code":{"coding":[{"system":"http://terminology.hl7.org/CodeSystem/measure-population","code":"denominator-exception","display":"Denominator Exception"}]},"count":0}]}]},"request":{"method":"PUT","url":"MeasureReport/c5e23323-7351-4797-bb27-3b68f185d965"}}]}