{"resourceType":"Bundle","id":"tests-036c2c6b-c5b7-4e1f-8a85-ac0787e3a15d-bundle","type":"transaction","entry":[{"fullUrl":"https://madie.cms.gov/Patient/036c2c6b-c5b7-4e1f-8a85-ac0787e3a15d","resource":{"resourceType":"Patient","id":"036c2c6b-c5b7-4e1f-8a85-ac0787e3a15d","meta":{"profile":["http://hl7.org/fhir/us/qicore/StructureDefinition/qicore-patient"]},"text":{"status":"generated","div":"<div xmlns=\"http://www.w3.org/1999/xhtml\"><div class=\"hapiHeaderText\">LowINRDayOfEncStart_NoEDNoObsBFEncDayOf <b>DENEXFAIL </b></div><table class=\"hapiPropertyTable\"><tbody><tr><td>Identifier</td><td>10c7f70e4cd70973731e86c309e8b6a062eba3f3b6c0ee06101848d8dd42fe3a</td></tr><tr><td>Date of birth</td><td><span>26 September 1975</span></td></tr></tbody></table></div>"},"extension":[{"url":"http://hl7.org/fhir/us/core/StructureDefinition/us-core-race","extension":[{"url":"ombCategory","valueCoding":{"system":"urn:oid:2.16.840.1.113883.6.238","code":"2054-5","display":"Black or African American","userSelected":true}},{"url":"text","valueString":"Black or African American"}]},{"url":"http://hl7.org/fhir/us/core/StructureDefinition/us-core-ethnicity","extension":[{"url":"ombCategory","valueCoding":{"system":"urn:oid:2.16.840.1.113883.6.238","code":"2186-5","display":"Not Hispanic or Latino","userSelected":true}},{"url":"text","valueString":"Not Hispanic or Latino"}]}],"identifier":[{"type":{"coding":[{"system":"http://terminology.hl7.org/CodeSystem/v2-0203","code":"MR"}]},"system":"https://bonnie-fhir.healthit.gov/","value":"60f82c2f98086b570510e2a6"}],"active":true,"name":[{"use":"usual","family":"DENEXFail","given":["LowINRDayOfEncStart_NoEDNoObsBFEncDayOf "]}],"gender":"female","birthDate":"1975-09-26"},"request":{"method":"PUT","url":"Patient/036c2c6b-c5b7-4e1f-8a85-ac0787e3a15d"}},{"fullUrl":"https://madie.cms.gov/Encounter/5c954891b848462de0ae618f","resource":{"resourceType":"Encounter","id":"5f60be3f-e08f-47fe-a914-738750215650","meta":{"profile":["http://hl7.org/fhir/us/qicore/StructureDefinition/qicore-encounter"]},"status":"finished","class":{"system":"http://terminology.hl7.org/CodeSystem/v3-ActCode","code":"IMP","display":"inpatient encounter","userSelected":true},"type":[{"coding":[{"system":"http://snomed.info/sct","code":"32485007"}]}],"subject":{"reference":"Patient/036c2c6b-c5b7-4e1f-8a85-ac0787e3a15d"},"period":{"start":"2025-10-10T06:15:00+00:00","end":"2025-10-15T11:30:00+00:00"},"length":{"value":5,"unit":"days"},"diagnosis":[{"condition":{"reference":"Condition/ischemic-stroke-8247"},"use":{"coding":[{"system":"http://terminology.hl7.org/CodeSystem/diagnosis-role","code":"billing","display":"Billing"}]},"rank":1}]},"request":{"method":"PUT","url":"Encounter/5f60be3f-e08f-47fe-a914-738750215650"}},{"fullUrl":"https://madie.cms.gov/Observation/5c954891b848462de0ae6191","resource":{"resourceType":"Observation","id":"9bb72dbf-ab61-4c68-8629-25def38b3b79","meta":{"profile":["http://hl7.org/fhir/us/qicore/StructureDefinition/qicore-observation"]},"status":"final","category":[{"coding":[{"system":"http://terminology.hl7.org/CodeSystem/observation-category","code":"laboratory","display":"Laboratory"}]}],"code":{"coding":[{"system":"http://loinc.org","code":"34714-6"}]},"subject":{"reference":"Patient/036c2c6b-c5b7-4e1f-8a85-ac0787e3a15d"},"effectivePeriod":{"start":"2025-10-10T06:15:00+00:00"},"issued":"2025-10-10T06:30:00.000+00:00","valueQuantity":{"value":3.5}},"request":{"method":"PUT","url":"Observation/9bb72dbf-ab61-4c68-8629-25def38b3b79"}},{"fullUrl":"https://madie.cms.gov/Coverage/5e20a3701c76ba6c5896ec09","resource":{"resourceType":"Coverage","id":"89ccdf85-fbd7-483b-9efb-5c63bc6cfdc6","status":"active","beneficiary":{"reference":"Patient/036c2c6b-c5b7-4e1f-8a85-ac0787e3a15d"},"period":{"start":"1975-09-26T08:00:00+00:00"},"payor":[{"reference":"Organization/4b5a882f-1f43-485c-85c6-f5ad2337d5b1"}]},"request":{"method":"PUT","url":"Coverage/89ccdf85-fbd7-483b-9efb-5c63bc6cfdc6"}},{"fullUrl":"https://madie.cms.gov/Condition/ischemic-stroke-8247","resource":{"resourceType":"Condition","id":"2682f3bb-a01e-4d2f-a596-a490d89ae4e1","meta":{"profile":["http://hl7.org/fhir/us/qicore/StructureDefinition/qicore-condition"]},"clinicalStatus":{"coding":[{"system":"http://terminology.hl7.org/CodeSystem/condition-clinical","code":"active"}]},"verificationStatus":{"coding":[{"system":"http://terminology.hl7.org/CodeSystem/condition-ver-status","code":"confirmed"}]},"category":[{"coding":[{"system":"http://terminology.hl7.org/CodeSystem/condition-category","code":"encounter-diagnosis","display":"Encounter Diagnosis"}]}],"code":{"coding":[{"system":"http://snomed.info/sct","version":"2020-09","code":"111297002","display":"Nonparalytic stroke (disorder)","userSelected":true}]},"subject":{"reference":"Patient/036c2c6b-c5b7-4e1f-8a85-ac0787e3a15d"},"recordedDate":"2025-08-12T08:00:00.000+00:00"},"request":{"method":"PUT","url":"Condition/2682f3bb-a01e-4d2f-a596-a490d89ae4e1"}},{"fullUrl":"https://madie.cms.gov/Organization/123456","resource":{"resourceType":"Organization","id":"4b5a882f-1f43-485c-85c6-f5ad2337d5b1","meta":{"profile":["http://hl7.org/fhir/us/qicore/StructureDefinition/qicore-organization"]},"identifier":[{"use":"temp","system":"urn:oid:2.16.840.1.113883.4.4","value":"21-3259825"}],"active":true,"type":[{"coding":[{"system":"http://terminology.hl7.org/CodeSystem/organization-type","code":"pay","display":"Payer"}]}],"name":"Blue Cross Blue Shield of Texas","telecom":[{"system":"phone","value":"(+1) 972-766-6900"}],"address":[{"use":"billing","type":"postal","line":["P.O. Box 660044"],"city":"Dallas","state":"TX","postalCode":"75266-0044","country":"USA"}]},"request":{"method":"PUT","url":"Organization/4b5a882f-1f43-485c-85c6-f5ad2337d5b1"}},{"fullUrl":"https://madie.cms.gov/MeasureReport/0bd64f7a-2104-455e-a6c9-de6938675200","resource":{"resourceType":"MeasureReport","id":"0bd64f7a-2104-455e-a6c9-de6938675200","meta":{"profile":["http://hl7.org/fhir/us/cqfmeasures/StructureDefinition/test-case-cqfm"]},"contained":[{"resourceType":"Parameters","id":"60866574-efbc-423f-93c1-26cd4bb21ad7-parameters","parameter":[{"name":"subject","valueString":"036c2c6b-c5b7-4e1f-8a85-ac0787e3a15d"}]}],"extension":[{"url":"http://hl7.org/fhir/us/cqfmeasures/StructureDefinition/cqfm-inputParameters","valueReference":{"reference":"#60866574-efbc-423f-93c1-26cd4bb21ad7-parameters"}},{"url":"http://hl7.org/fhir/us/cqfmeasures/StructureDefinition/cqfm-testCaseDescription","valueMarkdown":"Patient receives INR of 3.5 the day of IP start. No ED. No Obs. negative test for lab value.\n"}],"modifierExtension":[{"url":"http://hl7.org/fhir/us/cqfmeasures/StructureDefinition/cqfm-isTestCase","valueBoolean":true}],"status":"complete","type":"individual","measure":"https://madie.cms.gov/Measure/AntithromboticTherapyByEndofHospitalDay2FHIR","period":{"start":"2025-01-01","end":"2025-12-31"},"group":[{"population":[{"code":{"coding":[{"system":"http://terminology.hl7.org/CodeSystem/measure-population","code":"initial-population","display":"Initial Population"}]},"count":1},{"code":{"coding":[{"system":"http://terminology.hl7.org/CodeSystem/measure-population","code":"denominator","display":"Denominator"}]},"count":1},{"code":{"coding":[{"system":"http://terminology.hl7.org/CodeSystem/measure-population","code":"denominator-exclusion","display":"Denominator Exclusion"}]},"count":0},{"code":{"coding":[{"system":"http://terminology.hl7.org/CodeSystem/measure-population","code":"numerator","display":"Numerator"}]},"count":0},{"code":{"coding":[{"system":"http://terminology.hl7.org/CodeSystem/measure-population","code":"denominator-exception","display":"Denominator Exception"}]},"count":0}]}]},"request":{"method":"PUT","url":"MeasureReport/0bd64f7a-2104-455e-a6c9-de6938675200"}}]}