{"resourceType":"Bundle","id":"tests-7d9affce-5c31-4fcb-b9e5-c0304c3f9406-bundle","type":"transaction","entry":[{"fullUrl":"https://madie.cms.gov/Patient/7d9affce-5c31-4fcb-b9e5-c0304c3f9406","resource":{"resourceType":"Patient","id":"7d9affce-5c31-4fcb-b9e5-c0304c3f9406","meta":{"profile":["http://hl7.org/fhir/us/qicore/StructureDefinition/qicore-patient"]},"text":{"status":"generated","div":"<div xmlns=\"http://www.w3.org/1999/xhtml\"><div class=\"hapiHeaderText\">PharmContraDayOfObs_ED&gt;1hrObs&gt;1hrBFEncDayOf <b>DENEXCEPPASS </b></div><table class=\"hapiPropertyTable\"><tbody><tr><td>Identifier</td><td>dbfd2d599cefda8ae73cccaed9a99adfa89e85cfcce7bb076766e3c2add6d39c</td></tr><tr><td>Date of birth</td><td><span>26 September 1975</span></td></tr></tbody></table></div>"},"extension":[{"url":"http://hl7.org/fhir/us/core/StructureDefinition/us-core-race","extension":[{"url":"ombCategory","valueCoding":{"system":"urn:oid:2.16.840.1.113883.6.238","code":"2054-5","display":"Black or African American","userSelected":true}},{"url":"text","valueString":"Black or African American"}]},{"url":"http://hl7.org/fhir/us/core/StructureDefinition/us-core-ethnicity","extension":[{"url":"ombCategory","valueCoding":{"system":"urn:oid:2.16.840.1.113883.6.238","code":"2186-5","display":"Not Hispanic or Latino","userSelected":true}},{"url":"text","valueString":"Not Hispanic or Latino"}]}],"identifier":[{"type":{"coding":[{"system":"http://terminology.hl7.org/CodeSystem/v2-0203","code":"MR"}]},"system":"https://bonnie-fhir.healthit.gov/","value":"60f82c2f98086b570510e2a3"}],"active":true,"name":[{"use":"usual","family":"DENEXCEPPass","given":["PharmContraDayOfObs_ED>1hrObs>1hrBFEncDayOf"]}],"gender":"female","birthDate":"1975-09-26"},"request":{"method":"PUT","url":"Patient/7d9affce-5c31-4fcb-b9e5-c0304c3f9406"}},{"fullUrl":"https://madie.cms.gov/Encounter/5c954894b848462de0ae62be","resource":{"resourceType":"Encounter","id":"eaede3e6-bc18-4160-9fa9-2a936faffb15","meta":{"profile":["http://hl7.org/fhir/us/qicore/StructureDefinition/qicore-encounter"]},"status":"finished","class":{"system":"http://terminology.hl7.org/CodeSystem/v3-ActCode","code":"EMER","display":"emergency","userSelected":true},"type":[{"coding":[{"system":"http://snomed.info/sct","code":"4525004"}]}],"subject":{"reference":"Patient/7d9affce-5c31-4fcb-b9e5-c0304c3f9406"},"period":{"start":"2025-10-10T09:00:00+00:00","end":"2025-10-10T09:15:00+00:00"},"length":{"value":0,"unit":"days"}},"request":{"method":"PUT","url":"Encounter/eaede3e6-bc18-4160-9fa9-2a936faffb15"}},{"fullUrl":"https://madie.cms.gov/Encounter/5c954894b848462de0ae62bf","resource":{"resourceType":"Encounter","id":"b0fad7aa-8bae-4501-b4d8-1183500120c7","meta":{"profile":["http://hl7.org/fhir/us/qicore/StructureDefinition/qicore-encounter"]},"status":"finished","class":{"system":"http://terminology.hl7.org/CodeSystem/v3-ActCode","code":"OBSENC","display":"observation encounter","userSelected":true},"type":[{"coding":[{"system":"http://snomed.info/sct","code":"448851000124103"}]}],"subject":{"reference":"Patient/7d9affce-5c31-4fcb-b9e5-c0304c3f9406"},"period":{"start":"2025-10-10T10:16:00+00:00","end":"2025-10-10T11:15:00+00:00"},"length":{"value":0,"unit":"days"}},"request":{"method":"PUT","url":"Encounter/b0fad7aa-8bae-4501-b4d8-1183500120c7"}},{"fullUrl":"https://madie.cms.gov/Encounter/5c954894b848462de0ae62c0","resource":{"resourceType":"Encounter","id":"69b9899c-1fc2-4ad2-b978-93498653e35a","meta":{"profile":["http://hl7.org/fhir/us/qicore/StructureDefinition/qicore-encounter"]},"status":"finished","class":{"system":"http://terminology.hl7.org/CodeSystem/v3-ActCode","code":"IMP","display":"inpatient encounter","userSelected":true},"type":[{"coding":[{"system":"http://snomed.info/sct","code":"32485007"}]}],"subject":{"reference":"Patient/7d9affce-5c31-4fcb-b9e5-c0304c3f9406"},"period":{"start":"2025-10-10T12:16:00+00:00","end":"2025-10-13T10:15:00+00:00"},"length":{"value":3,"unit":"days"},"diagnosis":[{"condition":{"reference":"Condition/ischemic-stroke-9f0f"},"use":{"coding":[{"system":"http://terminology.hl7.org/CodeSystem/diagnosis-role","code":"billing","display":"Billing"}]},"rank":1}]},"request":{"method":"PUT","url":"Encounter/69b9899c-1fc2-4ad2-b978-93498653e35a"}},{"fullUrl":"https://madie.cms.gov/MedicationAdministration/5de6c52f5b87f90000eaf45d","resource":{"resourceType":"MedicationAdministration","id":"37e92023-2015-4b43-8eb4-c3fbf39d0b94","meta":{"profile":["http://hl7.org/fhir/us/qicore/StructureDefinition/qicore-medicationadministration"]},"status":"completed","medicationCodeableConcept":{"coding":[{"system":"http://www.nlm.nih.gov/research/umls/rxnorm","code":"855812","display":"prasugrel 10 MG Oral Tablet","userSelected":true}]},"subject":{"reference":"Patient/7d9affce-5c31-4fcb-b9e5-c0304c3f9406"},"effectivePeriod":{"start":"2025-10-10T10:16:00+00:00"}},"request":{"method":"PUT","url":"MedicationAdministration/37e92023-2015-4b43-8eb4-c3fbf39d0b94"}},{"fullUrl":"https://madie.cms.gov/Coverage/5e20a36f1c76ba6c5896ec06","resource":{"resourceType":"Coverage","id":"b4361ab6-a36c-421d-93db-3601b5428ccf","status":"active","beneficiary":{"reference":"Patient/7d9affce-5c31-4fcb-b9e5-c0304c3f9406"},"period":{"start":"1975-09-26T08:00:00+00:00"},"payor":[{"reference":"Organization/4b5a882f-1f43-485c-85c6-f5ad2337d5b1"}]},"request":{"method":"PUT","url":"Coverage/b4361ab6-a36c-421d-93db-3601b5428ccf"}},{"fullUrl":"https://madie.cms.gov/Condition/ischemic-stroke-9f0f","resource":{"resourceType":"Condition","id":"0765ba6b-3077-4214-be03-6cf6f2c456b0","meta":{"profile":["http://hl7.org/fhir/us/qicore/StructureDefinition/qicore-condition"]},"clinicalStatus":{"coding":[{"system":"http://terminology.hl7.org/CodeSystem/condition-clinical","code":"active"}]},"verificationStatus":{"coding":[{"system":"http://terminology.hl7.org/CodeSystem/condition-ver-status","code":"confirmed"}]},"category":[{"coding":[{"system":"http://terminology.hl7.org/CodeSystem/condition-category","code":"encounter-diagnosis","display":"Encounter Diagnosis"}]}],"code":{"coding":[{"system":"http://snomed.info/sct","version":"2020-09","code":"111297002","display":"Nonparalytic stroke (disorder)","userSelected":true}]},"subject":{"reference":"Patient/7d9affce-5c31-4fcb-b9e5-c0304c3f9406"},"recordedDate":"2025-08-06T08:00:00.000+00:00"},"request":{"method":"PUT","url":"Condition/0765ba6b-3077-4214-be03-6cf6f2c456b0"}},{"fullUrl":"https://madie.cms.gov/Organization/123456","resource":{"resourceType":"Organization","id":"4b5a882f-1f43-485c-85c6-f5ad2337d5b1","meta":{"profile":["http://hl7.org/fhir/us/qicore/StructureDefinition/qicore-organization"]},"identifier":[{"use":"temp","system":"urn:oid:2.16.840.1.113883.4.4","value":"21-3259825"}],"active":true,"type":[{"coding":[{"system":"http://terminology.hl7.org/CodeSystem/organization-type","code":"pay","display":"Payer"}]}],"name":"Blue Cross Blue Shield of Texas","telecom":[{"system":"phone","value":"(+1) 972-766-6900"}],"address":[{"use":"billing","type":"postal","line":["P.O. Box 660044"],"city":"Dallas","state":"TX","postalCode":"75266-0044","country":"USA"}]},"request":{"method":"PUT","url":"Organization/4b5a882f-1f43-485c-85c6-f5ad2337d5b1"}},{"fullUrl":"https://madie.cms.gov/MeasureReport/0173b60e-74be-4944-8aef-cf49e7a69be0","resource":{"resourceType":"MeasureReport","id":"0173b60e-74be-4944-8aef-cf49e7a69be0","meta":{"profile":["http://hl7.org/fhir/us/cqfmeasures/StructureDefinition/test-case-cqfm"]},"contained":[{"resourceType":"Parameters","id":"9f342cc3-07fb-48f0-8fc3-4cad9b81882c-parameters","parameter":[{"name":"subject","valueString":"7d9affce-5c31-4fcb-b9e5-c0304c3f9406"}]}],"extension":[{"url":"http://hl7.org/fhir/us/cqfmeasures/StructureDefinition/cqfm-inputParameters","valueReference":{"reference":"#9f342cc3-07fb-48f0-8fc3-4cad9b81882c-parameters"}},{"url":"http://hl7.org/fhir/us/cqfmeasures/StructureDefinition/cqfm-testCaseDescription","valueMarkdown":"Patient receives Ticagrelor the day of Obs. ED ends 61 min before Obs.Obs ends 61 min before IP all on the same day. Testing Day of operator with HospitalizationWithObservation function.\n"}],"modifierExtension":[{"url":"http://hl7.org/fhir/us/cqfmeasures/StructureDefinition/cqfm-isTestCase","valueBoolean":true}],"status":"complete","type":"individual","measure":"https://madie.cms.gov/Measure/AntithromboticTherapyByEndofHospitalDay2FHIR","period":{"start":"2025-01-01","end":"2025-12-31"},"group":[{"population":[{"code":{"coding":[{"system":"http://terminology.hl7.org/CodeSystem/measure-population","code":"initial-population","display":"Initial Population"}]},"count":1},{"code":{"coding":[{"system":"http://terminology.hl7.org/CodeSystem/measure-population","code":"denominator","display":"Denominator"}]},"count":1},{"code":{"coding":[{"system":"http://terminology.hl7.org/CodeSystem/measure-population","code":"denominator-exclusion","display":"Denominator Exclusion"}]},"count":0},{"code":{"coding":[{"system":"http://terminology.hl7.org/CodeSystem/measure-population","code":"numerator","display":"Numerator"}]},"count":0},{"code":{"coding":[{"system":"http://terminology.hl7.org/CodeSystem/measure-population","code":"denominator-exception","display":"Denominator Exception"}]},"count":1}]}]},"request":{"method":"PUT","url":"MeasureReport/0173b60e-74be-4944-8aef-cf49e7a69be0"}}]}