{"resourceType":"Bundle","id":"tests-0ccb9c3c-d834-4769-a68a-6b01ce1e868e-bundle","type":"transaction","entry":[{"fullUrl":"https://madie.cms.gov/Patient/0ccb9c3c-d834-4769-a68a-6b01ce1e868e","resource":{"resourceType":"Patient","id":"0ccb9c3c-d834-4769-a68a-6b01ce1e868e","meta":{"profile":["http://hl7.org/fhir/us/qicore/StructureDefinition/qicore-patient"]},"text":{"status":"generated","div":"<div xmlns=\"http://www.w3.org/1999/xhtml\"><div class=\"hapiHeaderText\">CMP_DayOf_RelvDat_1minAftIPEnd_EDEndLT1hrB4Obs_ObsEndLT1hrB4IP <b>DENEXPASS </b></div><table class=\"hapiPropertyTable\"><tbody><tr><td>Date of birth</td><td><span>01 January 1980</span></td></tr></tbody></table></div>"},"extension":[{"url":"http://hl7.org/fhir/us/core/StructureDefinition/us-core-race","extension":[{"url":"ombCategory","valueCoding":{"system":"urn:oid:2.16.840.1.113883.6.238","code":"2106-3","display":"White","userSelected":true}},{"url":"text","valueString":"White"}]},{"url":"http://hl7.org/fhir/us/core/StructureDefinition/us-core-ethnicity","extension":[{"url":"ombCategory","valueCoding":{"system":"urn:oid:2.16.840.1.113883.6.238","code":"2186-5","display":"Not Hispanic or Latino","userSelected":true}},{"url":"text","valueString":"Not Hispanic or Latino"}]}],"identifier":[{"type":{"coding":[{"system":"http://terminology.hl7.org/CodeSystem/v2-0203","code":"MR"}]},"system":"https://bonnie-fhir.healthit.gov/","value":"60f82c3098086b570510e2e3"}],"active":true,"name":[{"use":"usual","family":"DENEXPass","given":["CMP_DayOf_RelvDat_1minAftIPEnd_EDEndLT1hrB4Obs_ObsEndLT1hrB4IP"]}],"gender":"female","birthDate":"1980-01-01"},"request":{"method":"PUT","url":"Patient/0ccb9c3c-d834-4769-a68a-6b01ce1e868e"}},{"fullUrl":"https://madie.cms.gov/Encounter/5fb57d5aefbf1a000085c85e","resource":{"resourceType":"Encounter","id":"062828d3-6690-4f60-ac02-a81e02f37ec7","meta":{"profile":["http://hl7.org/fhir/us/qicore/StructureDefinition/qicore-encounter"]},"status":"finished","class":{"system":"http://terminology.hl7.org/CodeSystem/v3-ActCode","code":"EMER","display":"emergency","userSelected":true},"type":[{"coding":[{"system":"http://snomed.info/sct","code":"4525004"}]}],"subject":{"reference":"Patient/0ccb9c3c-d834-4769-a68a-6b01ce1e868e"},"period":{"start":"2025-11-18T07:00:00+00:00","end":"2025-11-18T08:01:00+00:00"},"diagnosis":[{"condition":{"reference":"Condition/ischemic-stroke-8aa2"},"use":{"coding":[{"system":"http://terminology.hl7.org/CodeSystem/diagnosis-role","code":"billing","display":"Billing"}]},"rank":1}]},"request":{"method":"PUT","url":"Encounter/062828d3-6690-4f60-ac02-a81e02f37ec7"}},{"fullUrl":"https://madie.cms.gov/Encounter/5fb57d73efbf1a000085c870","resource":{"resourceType":"Encounter","id":"874815a0-9ac5-4e77-9035-ee50ba7c291d","meta":{"profile":["http://hl7.org/fhir/us/qicore/StructureDefinition/qicore-encounter"]},"status":"finished","class":{"system":"http://terminology.hl7.org/CodeSystem/v3-ActCode","code":"OBSENC","display":"observation encounter","userSelected":true},"type":[{"coding":[{"system":"http://snomed.info/sct","code":"448951000124107"}]}],"subject":{"reference":"Patient/0ccb9c3c-d834-4769-a68a-6b01ce1e868e"},"period":{"start":"2025-11-18T09:00:00+00:00","end":"2025-11-18T10:01:00+00:00"}},"request":{"method":"PUT","url":"Encounter/874815a0-9ac5-4e77-9035-ee50ba7c291d"}},{"fullUrl":"https://madie.cms.gov/Encounter/5fb57d9eefbf1a000085c896","resource":{"resourceType":"Encounter","id":"23f0debf-4b82-41bb-8d6d-70269f17cd1e","meta":{"profile":["http://hl7.org/fhir/us/qicore/StructureDefinition/qicore-encounter"]},"status":"finished","class":{"system":"http://terminology.hl7.org/CodeSystem/v3-ActCode","code":"IMP","display":"inpatient encounter","userSelected":true},"type":[{"coding":[{"system":"http://snomed.info/sct","code":"183452005"}]}],"subject":{"reference":"Patient/0ccb9c3c-d834-4769-a68a-6b01ce1e868e"},"period":{"start":"2025-11-18T11:00:00+00:00","end":"2025-11-18T20:15:00+00:00"},"diagnosis":[{"condition":{"reference":"Condition/ischemic-stroke-8aa2"},"use":{"coding":[{"system":"http://terminology.hl7.org/CodeSystem/diagnosis-role","code":"billing","display":"Billing"}]},"rank":1}]},"request":{"method":"PUT","url":"Encounter/23f0debf-4b82-41bb-8d6d-70269f17cd1e"}},{"fullUrl":"https://madie.cms.gov/Procedure/5fb57e1fefbf1a000085c97a","resource":{"resourceType":"Procedure","id":"0ba4a4e5-2144-48a3-b2e4-cdccd3d46134","meta":{"profile":["http://hl7.org/fhir/us/qicore/StructureDefinition/qicore-procedure"]},"extension":[{"url":"http://hl7.org/fhir/us/qicore/StructureDefinition/qicore-recorded","valueDateTime":"2025-11-18T11:00:00+00:00"}],"status":"completed","code":{"coding":[{"system":"http://snomed.info/sct","code":"133918004"}]},"subject":{"reference":"Patient/0ccb9c3c-d834-4769-a68a-6b01ce1e868e"},"performedPeriod":{"start":"2025-11-18T11:00:00+00:00","end":"2025-11-18T20:15:00+00:00"}},"request":{"method":"PUT","url":"Procedure/0ba4a4e5-2144-48a3-b2e4-cdccd3d46134"}},{"fullUrl":"https://madie.cms.gov/Condition/ischemic-stroke-8aa2","resource":{"resourceType":"Condition","id":"3f08ba04-69fb-4ee4-a60e-643cb4c084c4","meta":{"profile":["http://hl7.org/fhir/us/qicore/StructureDefinition/qicore-condition"]},"clinicalStatus":{"coding":[{"system":"http://terminology.hl7.org/CodeSystem/condition-clinical","code":"active"}]},"verificationStatus":{"coding":[{"system":"http://terminology.hl7.org/CodeSystem/condition-ver-status","code":"confirmed"}]},"category":[{"coding":[{"system":"http://terminology.hl7.org/CodeSystem/condition-category","code":"encounter-diagnosis","display":"Encounter Diagnosis"}]}],"code":{"coding":[{"system":"http://snomed.info/sct","version":"2020-09","code":"111297002","display":"Nonparalytic stroke (disorder)","userSelected":true}]},"subject":{"reference":"Patient/0ccb9c3c-d834-4769-a68a-6b01ce1e868e"},"recordedDate":"2025-08-13T08:00:00.000+00:00"},"request":{"method":"PUT","url":"Condition/3f08ba04-69fb-4ee4-a60e-643cb4c084c4"}},{"fullUrl":"https://madie.cms.gov/Coverage/1","resource":{"resourceType":"Coverage","id":"8159e119-3575-401a-8456-f49ad7088b5c","meta":{"profile":["http://hl7.org/fhir/us/qicore/StructureDefinition/qicore-coverage"]},"status":"active","beneficiary":{"reference":"Patient/0ccb9c3c-d834-4769-a68a-6b01ce1e868e"},"payor":[{"reference":"Organization/4b5a882f-1f43-485c-85c6-f5ad2337d5b1"}]},"request":{"method":"PUT","url":"Coverage/8159e119-3575-401a-8456-f49ad7088b5c"}},{"fullUrl":"https://madie.cms.gov/Organization/123456","resource":{"resourceType":"Organization","id":"4b5a882f-1f43-485c-85c6-f5ad2337d5b1","meta":{"profile":["http://hl7.org/fhir/us/qicore/StructureDefinition/qicore-organization"]},"identifier":[{"use":"temp","system":"urn:oid:2.16.840.1.113883.4.4","value":"21-3259825"}],"active":true,"type":[{"coding":[{"system":"http://terminology.hl7.org/CodeSystem/organization-type","code":"pay","display":"Payer"}]}],"name":"Blue Cross Blue Shield of Texas","telecom":[{"system":"phone","value":"(+1) 972-766-6900"}],"address":[{"use":"billing","type":"postal","line":["P.O. Box 660044"],"city":"Dallas","state":"TX","postalCode":"75266-0044","country":"USA"}]},"request":{"method":"PUT","url":"Organization/4b5a882f-1f43-485c-85c6-f5ad2337d5b1"}},{"fullUrl":"https://madie.cms.gov/MeasureReport/51c66f88-b6c8-4ce4-ae4b-da9e844d776a","resource":{"resourceType":"MeasureReport","id":"51c66f88-b6c8-4ce4-ae4b-da9e844d776a","meta":{"profile":["http://hl7.org/fhir/us/cqfmeasures/StructureDefinition/test-case-cqfm"]},"contained":[{"resourceType":"Parameters","id":"1e4a3a92-7035-40fa-a05f-63bfe79d6dbb-parameters","parameter":[{"name":"subject","valueString":"0ccb9c3c-d834-4769-a68a-6b01ce1e868e"}]}],"extension":[{"url":"http://hl7.org/fhir/us/cqfmeasures/StructureDefinition/cqfm-inputParameters","valueReference":{"reference":"#1e4a3a92-7035-40fa-a05f-63bfe79d6dbb-parameters"}},{"url":"http://hl7.org/fhir/us/cqfmeasures/StructureDefinition/cqfm-testCaseDescription","valueMarkdown":"Patient receives comfort measures performed on the day of hospital arrival, 1 minute after IP end. ED ends less than 1 hour before Obs Start, Obs ends less than 1 hour before IP start.\n"}],"modifierExtension":[{"url":"http://hl7.org/fhir/us/cqfmeasures/StructureDefinition/cqfm-isTestCase","valueBoolean":true}],"status":"complete","type":"individual","measure":"https://madie.cms.gov/Measure/AntithromboticTherapyByEndofHospitalDay2FHIR","period":{"start":"2025-01-01","end":"2025-12-31"},"group":[{"population":[{"code":{"coding":[{"system":"http://terminology.hl7.org/CodeSystem/measure-population","code":"initial-population","display":"Initial Population"}]},"count":1},{"code":{"coding":[{"system":"http://terminology.hl7.org/CodeSystem/measure-population","code":"denominator","display":"Denominator"}]},"count":1},{"code":{"coding":[{"system":"http://terminology.hl7.org/CodeSystem/measure-population","code":"denominator-exclusion","display":"Denominator Exclusion"}]},"count":1},{"code":{"coding":[{"system":"http://terminology.hl7.org/CodeSystem/measure-population","code":"numerator","display":"Numerator"}]},"count":0},{"code":{"coding":[{"system":"http://terminology.hl7.org/CodeSystem/measure-population","code":"denominator-exception","display":"Denominator Exception"}]},"count":0}]}]},"request":{"method":"PUT","url":"MeasureReport/51c66f88-b6c8-4ce4-ae4b-da9e844d776a"}}]}