{"resourceType":"Bundle","id":"tests-fac8c35b-89c4-4ff0-bf5b-32147a59e18f-bundle","type":"transaction","entry":[{"fullUrl":"https://madie.cms.gov/Patient/fac8c35b-89c4-4ff0-bf5b-32147a59e18f","resource":{"resourceType":"Patient","id":"fac8c35b-89c4-4ff0-bf5b-32147a59e18f","meta":{"profile":["http://hl7.org/fhir/us/qicore/StructureDefinition/qicore-patient"]},"text":{"status":"generated","div":"<div xmlns=\"http://www.w3.org/1999/xhtml\"><div class=\"hapiHeaderText\">MedTPAdurObs_ED&lt;1hrObs&lt;1hrBFEnc <b>DENEXPASS </b></div><table class=\"hapiPropertyTable\"><tbody><tr><td>Identifier</td><td>1849d3434d2b47f16c7674f9526a9103bbee1b7e9de727db2be8290bb8155111</td></tr><tr><td>Date of birth</td><td><span>26 September 1975</span></td></tr></tbody></table></div>"},"extension":[{"url":"http://hl7.org/fhir/us/core/StructureDefinition/us-core-race","extension":[{"url":"ombCategory","valueCoding":{"system":"urn:oid:2.16.840.1.113883.6.238","code":"2054-5","display":"Black or African American","userSelected":true}},{"url":"text","valueString":"Black or African American"}]},{"url":"http://hl7.org/fhir/us/core/StructureDefinition/us-core-ethnicity","extension":[{"url":"ombCategory","valueCoding":{"system":"urn:oid:2.16.840.1.113883.6.238","code":"2186-5","display":"Not Hispanic or Latino","userSelected":true}},{"url":"text","valueString":"Not Hispanic or Latino"}]}],"identifier":[{"type":{"coding":[{"system":"http://terminology.hl7.org/CodeSystem/v2-0203","code":"MR"}]},"system":"https://bonnie-fhir.healthit.gov/","value":"60f82c2f98086b570510e29d"}],"active":true,"name":[{"use":"usual","family":"DENEXPass","given":["MedTPAdurObs_ED<1hrObs<1hrBFEnc"]}],"gender":"female","birthDate":"1975-09-26"},"request":{"method":"PUT","url":"Patient/fac8c35b-89c4-4ff0-bf5b-32147a59e18f"}},{"fullUrl":"https://madie.cms.gov/Encounter/5c954894b848462de0ae62ae","resource":{"resourceType":"Encounter","id":"c5a79383-e8f0-462c-b0bc-49ccf423eefc","meta":{"profile":["http://hl7.org/fhir/us/qicore/StructureDefinition/qicore-encounter"]},"status":"finished","class":{"system":"http://terminology.hl7.org/CodeSystem/v3-ActCode","code":"EMER","display":"emergency"},"type":[{"coding":[{"system":"http://snomed.info/sct","code":"4525004"}]}],"subject":{"reference":"Patient/fac8c35b-89c4-4ff0-bf5b-32147a59e18f"},"period":{"start":"2025-10-10T06:00:00+00:00","end":"2025-10-10T06:30:00+00:00"},"length":{"value":0,"unit":"days"}},"request":{"method":"PUT","url":"Encounter/c5a79383-e8f0-462c-b0bc-49ccf423eefc"}},{"fullUrl":"https://madie.cms.gov/Encounter/5c954894b848462de0ae62af","resource":{"resourceType":"Encounter","id":"d7304531-4895-4938-8101-926b46d96a5d","meta":{"profile":["http://hl7.org/fhir/us/qicore/StructureDefinition/qicore-encounter"]},"status":"finished","class":{"system":"http://terminology.hl7.org/CodeSystem/v3-ActCode","code":"OBSENC","display":"observation encounter"},"type":[{"coding":[{"system":"http://snomed.info/sct","code":"448851000124103"}]}],"subject":{"reference":"Patient/fac8c35b-89c4-4ff0-bf5b-32147a59e18f"},"period":{"start":"2025-10-10T06:31:00+00:00","end":"2025-10-10T07:30:00+00:00"},"length":{"value":0,"unit":"days"}},"request":{"method":"PUT","url":"Encounter/d7304531-4895-4938-8101-926b46d96a5d"}},{"fullUrl":"https://madie.cms.gov/Encounter/5c954894b848462de0ae62b0","resource":{"resourceType":"Encounter","id":"187be349-a044-4677-b6e7-ecbbbea0f225","meta":{"profile":["http://hl7.org/fhir/us/qicore/StructureDefinition/qicore-encounter"]},"status":"finished","class":{"system":"http://terminology.hl7.org/CodeSystem/v3-ActCode","code":"IMP","display":"inpatient encounter"},"type":[{"coding":[{"system":"http://snomed.info/sct","code":"32485007"}]}],"subject":{"reference":"Patient/fac8c35b-89c4-4ff0-bf5b-32147a59e18f"},"period":{"start":"2025-10-10T07:31:00+00:00","end":"2025-10-12T11:15:00+00:00"},"length":{"value":2,"unit":"days"},"diagnosis":[{"condition":{"reference":"Condition/ischemic-stroke-6d61"},"use":{"coding":[{"system":"http://terminology.hl7.org/CodeSystem/diagnosis-role","code":"billing","display":"Billing"}]},"rank":1}]},"request":{"method":"PUT","url":"Encounter/187be349-a044-4677-b6e7-ecbbbea0f225"}},{"fullUrl":"https://madie.cms.gov/MedicationAdministration/5c954894b848462de0ae62b2","resource":{"resourceType":"MedicationAdministration","id":"09922a22-e2c6-4d8a-8e19-2f8545975800","meta":{"profile":["http://hl7.org/fhir/us/qicore/StructureDefinition/qicore-medicationadministration"]},"status":"completed","medicationCodeableConcept":{"coding":[{"system":"http://www.nlm.nih.gov/research/umls/rxnorm","code":"1804799"}]},"subject":{"reference":"Patient/fac8c35b-89c4-4ff0-bf5b-32147a59e18f"},"effectivePeriod":{"start":"2025-10-10T06:31:00+00:00"}},"request":{"method":"PUT","url":"MedicationAdministration/09922a22-e2c6-4d8a-8e19-2f8545975800"}},{"fullUrl":"https://madie.cms.gov/Coverage/5e20a36f1c76ba6c5896ec00","resource":{"resourceType":"Coverage","id":"dd512858-da94-45dd-8580-fbeb99379a46","status":"active","beneficiary":{"reference":"Patient/fac8c35b-89c4-4ff0-bf5b-32147a59e18f"},"period":{"start":"1975-09-26T08:00:00+00:00"},"payor":[{"reference":"Organization/4b5a882f-1f43-485c-85c6-f5ad2337d5b1"}]},"request":{"method":"PUT","url":"Coverage/dd512858-da94-45dd-8580-fbeb99379a46"}},{"fullUrl":"https://madie.cms.gov/Condition/ischemic-stroke-6d61","resource":{"resourceType":"Condition","id":"dfc72afc-e3f3-4b89-938e-57fa66a1c2ff","meta":{"profile":["http://hl7.org/fhir/us/qicore/StructureDefinition/qicore-condition"]},"clinicalStatus":{"coding":[{"system":"http://terminology.hl7.org/CodeSystem/condition-clinical","code":"active"}]},"verificationStatus":{"coding":[{"system":"http://terminology.hl7.org/CodeSystem/condition-ver-status","code":"confirmed"}]},"category":[{"coding":[{"system":"http://terminology.hl7.org/CodeSystem/condition-category","code":"encounter-diagnosis","display":"Encounter Diagnosis"}]}],"code":{"coding":[{"system":"http://snomed.info/sct","version":"2020-09","code":"111297002","display":"Nonparalytic stroke (disorder)","userSelected":true}]},"subject":{"reference":"Patient/fac8c35b-89c4-4ff0-bf5b-32147a59e18f"},"recordedDate":"2025-08-13T08:00:00.000+00:00"},"request":{"method":"PUT","url":"Condition/dfc72afc-e3f3-4b89-938e-57fa66a1c2ff"}},{"fullUrl":"https://madie.cms.gov/Organization/123456","resource":{"resourceType":"Organization","id":"4b5a882f-1f43-485c-85c6-f5ad2337d5b1","meta":{"profile":["http://hl7.org/fhir/us/qicore/StructureDefinition/qicore-organization"]},"identifier":[{"use":"temp","system":"urn:oid:2.16.840.1.113883.4.4","value":"21-3259825"}],"active":true,"type":[{"coding":[{"system":"http://terminology.hl7.org/CodeSystem/organization-type","code":"pay","display":"Payer"}]}],"name":"Blue Cross Blue Shield of Texas","telecom":[{"system":"phone","value":"(+1) 972-766-6900"}],"address":[{"use":"billing","type":"postal","line":["P.O. Box 660044"],"city":"Dallas","state":"TX","postalCode":"75266-0044","country":"USA"}]},"request":{"method":"PUT","url":"Organization/4b5a882f-1f43-485c-85c6-f5ad2337d5b1"}},{"fullUrl":"https://madie.cms.gov/MeasureReport/39c9132e-64ac-4ec0-be5a-df7755d7acd3","resource":{"resourceType":"MeasureReport","id":"39c9132e-64ac-4ec0-be5a-df7755d7acd3","meta":{"profile":["http://hl7.org/fhir/us/cqfmeasures/StructureDefinition/test-case-cqfm"]},"contained":[{"resourceType":"Parameters","id":"46d94e54-8deb-4bfa-90b2-abdf6bed3e57-parameters","parameter":[{"name":"subject","valueString":"fac8c35b-89c4-4ff0-bf5b-32147a59e18f"}]}],"extension":[{"url":"http://hl7.org/fhir/us/cqfmeasures/StructureDefinition/cqfm-inputParameters","valueReference":{"reference":"#46d94e54-8deb-4bfa-90b2-abdf6bed3e57-parameters"}},{"url":"http://hl7.org/fhir/us/cqfmeasures/StructureDefinition/cqfm-testCaseDescription","valueMarkdown":"Patient receives TPA during Obs. ED ends 1 min before Obs. Obs ends 1 min before IP start. Testing HospitalizationWithObservation function.\n"}],"modifierExtension":[{"url":"http://hl7.org/fhir/us/cqfmeasures/StructureDefinition/cqfm-isTestCase","valueBoolean":true}],"status":"complete","type":"individual","measure":"https://madie.cms.gov/Measure/AntithromboticTherapyByEndofHospitalDay2FHIR","period":{"start":"2025-01-01","end":"2025-12-31"},"group":[{"population":[{"code":{"coding":[{"system":"http://terminology.hl7.org/CodeSystem/measure-population","code":"initial-population","display":"Initial Population"}]},"count":1},{"code":{"coding":[{"system":"http://terminology.hl7.org/CodeSystem/measure-population","code":"denominator","display":"Denominator"}]},"count":1},{"code":{"coding":[{"system":"http://terminology.hl7.org/CodeSystem/measure-population","code":"denominator-exclusion","display":"Denominator Exclusion"}]},"count":1},{"code":{"coding":[{"system":"http://terminology.hl7.org/CodeSystem/measure-population","code":"numerator","display":"Numerator"}]},"count":0},{"code":{"coding":[{"system":"http://terminology.hl7.org/CodeSystem/measure-population","code":"denominator-exception","display":"Denominator Exception"}]},"count":0}]}]},"request":{"method":"PUT","url":"MeasureReport/39c9132e-64ac-4ec0-be5a-df7755d7acd3"}}]}