{"resourceType":"Bundle","id":"tests-c97d55e0-29b4-4387-b9ed-ca0647eeb376-bundle","type":"transaction","entry":[{"fullUrl":"https://madie.cms.gov/Patient/c97d55e0-29b4-4387-b9ed-ca0647eeb376","resource":{"resourceType":"Patient","id":"c97d55e0-29b4-4387-b9ed-ca0647eeb376","meta":{"profile":["http://hl7.org/fhir/us/qicore/StructureDefinition/qicore-patient"]},"text":{"status":"generated","div":"<div xmlns=\"http://www.w3.org/1999/xhtml\"><div class=\"hapiHeaderText\">CMP_DayOf_RelvDat_1minAftObsEnd_EDEndLT1hrB4Obs_ObsEndLT1hrB4IP <b>DENEXPASS </b></div><table class=\"hapiPropertyTable\"><tbody><tr><td>Date of birth</td><td><span>01 January 1980</span></td></tr></tbody></table></div>"},"extension":[{"url":"http://hl7.org/fhir/us/core/StructureDefinition/us-core-race","extension":[{"url":"ombCategory","valueCoding":{"system":"urn:oid:2.16.840.1.113883.6.238","code":"2106-3","display":"White","userSelected":true}},{"url":"text","valueString":"White"}]},{"url":"http://hl7.org/fhir/us/core/StructureDefinition/us-core-ethnicity","extension":[{"url":"ombCategory","valueCoding":{"system":"urn:oid:2.16.840.1.113883.6.238","code":"2186-5","display":"Not Hispanic or Latino","userSelected":true}},{"url":"text","valueString":"Not Hispanic or Latino"}]}],"identifier":[{"type":{"coding":[{"system":"http://terminology.hl7.org/CodeSystem/v2-0203","code":"MR"}]},"system":"https://bonnie-fhir.healthit.gov/","value":"60f82c3098086b570510e2dd"}],"active":true,"name":[{"use":"usual","family":"DENEXPass","given":["CMP_DayOf_RelvDat_1minAftObsEnd_EDEndLT1hrB4Obs_ObsEndLT1hrB4IP"]}],"gender":"female","birthDate":"1980-01-01"},"request":{"method":"PUT","url":"Patient/c97d55e0-29b4-4387-b9ed-ca0647eeb376"}},{"fullUrl":"https://madie.cms.gov/Encounter/5fb57d5aefbf1a000085c85e","resource":{"resourceType":"Encounter","id":"2dae9fe6-a183-457a-b909-05272f56ba8c","meta":{"profile":["http://hl7.org/fhir/us/qicore/StructureDefinition/qicore-encounter"]},"status":"finished","class":{"system":"http://terminology.hl7.org/CodeSystem/v3-ActCode","code":"EMER","display":"emergency","userSelected":true},"type":[{"coding":[{"system":"http://snomed.info/sct","code":"4525004"}]}],"subject":{"reference":"Patient/c97d55e0-29b4-4387-b9ed-ca0647eeb376"},"period":{"start":"2025-11-18T07:00:00+00:00","end":"2025-11-18T08:01:00+00:00"},"diagnosis":[{"condition":{"reference":"Condition/ischemic-stroke-8aa4"},"use":{"coding":[{"system":"http://terminology.hl7.org/CodeSystem/diagnosis-role","code":"billing","display":"Billing"}]},"rank":1}]},"request":{"method":"PUT","url":"Encounter/2dae9fe6-a183-457a-b909-05272f56ba8c"}},{"fullUrl":"https://madie.cms.gov/Encounter/5fb57d73efbf1a000085c870","resource":{"resourceType":"Encounter","id":"203f1378-db83-47d1-9f49-492feaa7db17","meta":{"profile":["http://hl7.org/fhir/us/qicore/StructureDefinition/qicore-encounter"]},"status":"finished","class":{"system":"http://terminology.hl7.org/CodeSystem/v3-ActCode","code":"OBSENC","display":"observation encounter","userSelected":true},"type":[{"coding":[{"system":"http://snomed.info/sct","code":"448951000124107"}]}],"subject":{"reference":"Patient/c97d55e0-29b4-4387-b9ed-ca0647eeb376"},"period":{"start":"2025-11-18T09:00:00+00:00","end":"2025-11-18T10:01:00+00:00"}},"request":{"method":"PUT","url":"Encounter/203f1378-db83-47d1-9f49-492feaa7db17"}},{"fullUrl":"https://madie.cms.gov/Encounter/5fb57d9eefbf1a000085c896","resource":{"resourceType":"Encounter","id":"7deb01cd-312b-4dd8-b6a3-a70f26a0181e","meta":{"profile":["http://hl7.org/fhir/us/qicore/StructureDefinition/qicore-encounter"]},"status":"finished","class":{"system":"http://terminology.hl7.org/CodeSystem/v3-ActCode","code":"IMP","display":"inpatient encounter","userSelected":true},"type":[{"coding":[{"system":"http://snomed.info/sct","code":"183452005"}]}],"subject":{"reference":"Patient/c97d55e0-29b4-4387-b9ed-ca0647eeb376"},"period":{"start":"2025-11-18T11:00:00+00:00","end":"2025-11-20T08:15:00+00:00"},"diagnosis":[{"condition":{"reference":"Condition/ischemic-stroke-8aa4"},"use":{"coding":[{"system":"http://terminology.hl7.org/CodeSystem/diagnosis-role","code":"billing","display":"Billing"}]},"rank":1}]},"request":{"method":"PUT","url":"Encounter/7deb01cd-312b-4dd8-b6a3-a70f26a0181e"}},{"fullUrl":"https://madie.cms.gov/Procedure/5fb57e1fefbf1a000085c97a","resource":{"resourceType":"Procedure","id":"64bd51d4-2acd-440a-a3c8-ebc9a8ec3a9e","meta":{"profile":["http://hl7.org/fhir/us/qicore/StructureDefinition/qicore-procedure"]},"extension":[{"url":"http://hl7.org/fhir/us/qicore/StructureDefinition/qicore-recorded","valueDateTime":"2025-11-18T10:02:00.000+00:00"}],"status":"completed","code":{"coding":[{"system":"http://snomed.info/sct","code":"133918004"}]},"subject":{"reference":"Patient/c97d55e0-29b4-4387-b9ed-ca0647eeb376"},"performedDateTime":"2025-11-18T10:02:00.000+00:00"},"request":{"method":"PUT","url":"Procedure/64bd51d4-2acd-440a-a3c8-ebc9a8ec3a9e"}},{"fullUrl":"https://madie.cms.gov/Condition/ischemic-stroke-8aa4","resource":{"resourceType":"Condition","id":"70799db7-734e-468a-93c4-4d28510e2823","meta":{"profile":["http://hl7.org/fhir/us/qicore/StructureDefinition/qicore-condition"]},"clinicalStatus":{"coding":[{"system":"http://terminology.hl7.org/CodeSystem/condition-clinical","code":"active"}]},"verificationStatus":{"coding":[{"system":"http://terminology.hl7.org/CodeSystem/condition-ver-status","code":"confirmed"}]},"category":[{"coding":[{"system":"http://terminology.hl7.org/CodeSystem/condition-category","code":"encounter-diagnosis","display":"Encounter Diagnosis"}]}],"code":{"coding":[{"system":"http://snomed.info/sct","version":"2020-09","code":"111297002","display":"Nonparalytic stroke (disorder)","userSelected":true}]},"subject":{"reference":"Patient/c97d55e0-29b4-4387-b9ed-ca0647eeb376"},"recordedDate":"2025-08-13T08:00:00.000+00:00"},"request":{"method":"PUT","url":"Condition/70799db7-734e-468a-93c4-4d28510e2823"}},{"fullUrl":"https://madie.cms.gov/Coverage/1","resource":{"resourceType":"Coverage","id":"f9fbffb4-9d2e-4b61-8f4e-d23dd0274262","meta":{"profile":["http://hl7.org/fhir/us/qicore/StructureDefinition/qicore-coverage"]},"status":"active","beneficiary":{"reference":"Patient/c97d55e0-29b4-4387-b9ed-ca0647eeb376"},"payor":[{"reference":"Organization/4b5a882f-1f43-485c-85c6-f5ad2337d5b1"}]},"request":{"method":"PUT","url":"Coverage/f9fbffb4-9d2e-4b61-8f4e-d23dd0274262"}},{"fullUrl":"https://madie.cms.gov/Organization/123456","resource":{"resourceType":"Organization","id":"4b5a882f-1f43-485c-85c6-f5ad2337d5b1","meta":{"profile":["http://hl7.org/fhir/us/qicore/StructureDefinition/qicore-organization"]},"identifier":[{"use":"temp","system":"urn:oid:2.16.840.1.113883.4.4","value":"21-3259825"}],"active":true,"type":[{"coding":[{"system":"http://terminology.hl7.org/CodeSystem/organization-type","code":"pay","display":"Payer"}]}],"name":"Blue Cross Blue Shield of Texas","telecom":[{"system":"phone","value":"(+1) 972-766-6900"}],"address":[{"use":"billing","type":"postal","line":["P.O. Box 660044"],"city":"Dallas","state":"TX","postalCode":"75266-0044","country":"USA"}]},"request":{"method":"PUT","url":"Organization/4b5a882f-1f43-485c-85c6-f5ad2337d5b1"}},{"fullUrl":"https://madie.cms.gov/MeasureReport/0aeff50c-48d5-448a-9faa-6d1458bbaf82","resource":{"resourceType":"MeasureReport","id":"0aeff50c-48d5-448a-9faa-6d1458bbaf82","meta":{"profile":["http://hl7.org/fhir/us/cqfmeasures/StructureDefinition/test-case-cqfm"]},"contained":[{"resourceType":"Parameters","id":"e5a64938-3e82-4a1f-b826-4a2d2b086e6d-parameters","parameter":[{"name":"subject","valueString":"c97d55e0-29b4-4387-b9ed-ca0647eeb376"}]}],"extension":[{"url":"http://hl7.org/fhir/us/cqfmeasures/StructureDefinition/cqfm-inputParameters","valueReference":{"reference":"#e5a64938-3e82-4a1f-b826-4a2d2b086e6d-parameters"}},{"url":"http://hl7.org/fhir/us/cqfmeasures/StructureDefinition/cqfm-testCaseDescription","valueMarkdown":"Patient receives comfort measures performed on the day of hospital arrival, 1 minute after Obs end. ED ends less than 1 hour before Obs Start, Obs ends less than 1 hour before IP start.\n"}],"modifierExtension":[{"url":"http://hl7.org/fhir/us/cqfmeasures/StructureDefinition/cqfm-isTestCase","valueBoolean":true}],"status":"complete","type":"individual","measure":"https://madie.cms.gov/Measure/AntithromboticTherapyByEndofHospitalDay2FHIR","period":{"start":"2025-01-01","end":"2025-12-31"},"group":[{"population":[{"code":{"coding":[{"system":"http://terminology.hl7.org/CodeSystem/measure-population","code":"initial-population","display":"Initial Population"}]},"count":1},{"code":{"coding":[{"system":"http://terminology.hl7.org/CodeSystem/measure-population","code":"denominator","display":"Denominator"}]},"count":1},{"code":{"coding":[{"system":"http://terminology.hl7.org/CodeSystem/measure-population","code":"denominator-exclusion","display":"Denominator Exclusion"}]},"count":1},{"code":{"coding":[{"system":"http://terminology.hl7.org/CodeSystem/measure-population","code":"numerator","display":"Numerator"}]},"count":0},{"code":{"coding":[{"system":"http://terminology.hl7.org/CodeSystem/measure-population","code":"denominator-exception","display":"Denominator Exception"}]},"count":0}]}]},"request":{"method":"PUT","url":"MeasureReport/0aeff50c-48d5-448a-9faa-6d1458bbaf82"}}]}