{"resourceType":"Bundle","id":"tests-9bfee327-99be-48de-ba09-5b64e4435f8d-bundle","type":"transaction","entry":[{"fullUrl":"https://madie.cms.gov/Patient/9bfee327-99be-48de-ba09-5b64e4435f8d","resource":{"resourceType":"Patient","id":"9bfee327-99be-48de-ba09-5b64e4435f8d","meta":{"profile":["http://hl7.org/fhir/us/qicore/StructureDefinition/qicore-patient"]},"text":{"status":"generated","div":"<div xmlns=\"http://www.w3.org/1999/xhtml\"><div class=\"hapiHeaderText\">LOS=1Day <b>DENEXPASS </b></div><table class=\"hapiPropertyTable\"><tbody><tr><td>Identifier</td><td>8bc608f158a1b40b295820be8e9bc30e</td></tr><tr><td>Date of birth</td><td><span>21 August 1993</span></td></tr></tbody></table></div>"},"extension":[{"url":"http://hl7.org/fhir/us/core/StructureDefinition/us-core-race","extension":[{"url":"ombCategory","valueCoding":{"system":"urn:oid:2.16.840.1.113883.6.238","code":"1002-5","display":"American Indian or Alaska Native","userSelected":true}},{"url":"text","valueString":"American Indian or Alaska Native"}]},{"url":"http://hl7.org/fhir/us/core/StructureDefinition/us-core-ethnicity","extension":[{"url":"ombCategory","valueCoding":{"system":"urn:oid:2.16.840.1.113883.6.238","code":"2186-5","display":"Not Hispanic or Latino","userSelected":true}},{"url":"text","valueString":"Not Hispanic or Latino"}]}],"identifier":[{"type":{"coding":[{"system":"http://terminology.hl7.org/CodeSystem/v2-0203","code":"MR"}]},"system":"https://bonnie-fhir.healthit.gov/","value":"60f82c2e98086b570510e26e"}],"active":true,"name":[{"use":"usual","family":"DENEXPass","given":["LOS=1Day"]}],"gender":"male","birthDate":"1993-08-21"},"request":{"method":"PUT","url":"Patient/9bfee327-99be-48de-ba09-5b64e4435f8d"}},{"fullUrl":"https://madie.cms.gov/Encounter/5c954892b848462de0ae6206","resource":{"resourceType":"Encounter","id":"ce56e0e1-1d0a-4aee-abb5-b2337e4c1c65","meta":{"profile":["http://hl7.org/fhir/us/qicore/StructureDefinition/qicore-encounter"]},"status":"finished","class":{"system":"http://terminology.hl7.org/CodeSystem/v3-ActCode","code":"EMER","display":"emergency"},"type":[{"coding":[{"system":"http://snomed.info/sct","code":"4525004"}]}],"subject":{"reference":"Patient/9bfee327-99be-48de-ba09-5b64e4435f8d"},"period":{"start":"2025-08-19T08:00:00+00:00","end":"2025-08-20T20:00:00+00:00"},"length":{"value":1,"unit":"days"}},"request":{"method":"PUT","url":"Encounter/ce56e0e1-1d0a-4aee-abb5-b2337e4c1c65"}},{"fullUrl":"https://madie.cms.gov/Encounter/5c954892b848462de0ae6207","resource":{"resourceType":"Encounter","id":"1fdc6eda-2b83-4e4d-bf5e-1cb6ea8e2e04","meta":{"profile":["http://hl7.org/fhir/us/qicore/StructureDefinition/qicore-encounter"]},"status":"finished","class":{"system":"http://terminology.hl7.org/CodeSystem/v3-ActCode","code":"IMP","display":"inpatient encounter"},"type":[{"coding":[{"system":"http://snomed.info/sct","code":"32485007"}]}],"subject":{"reference":"Patient/9bfee327-99be-48de-ba09-5b64e4435f8d"},"period":{"start":"2025-08-20T22:00:00+00:00","end":"2025-08-21T23:59:00+00:00"},"length":{"value":1,"unit":"days"},"diagnosis":[{"condition":{"reference":"Condition/ischemic-stroke-2d5e"},"use":{"coding":[{"system":"http://terminology.hl7.org/CodeSystem/diagnosis-role","code":"billing","display":"Billing"}]},"rank":1}]},"request":{"method":"PUT","url":"Encounter/1fdc6eda-2b83-4e4d-bf5e-1cb6ea8e2e04"}},{"fullUrl":"https://madie.cms.gov/Coverage/5e20a3691c76ba6c5896ebd1","resource":{"resourceType":"Coverage","id":"b6ca49f0-d688-4bc4-972e-1e33b00222a2","status":"active","beneficiary":{"reference":"Patient/9bfee327-99be-48de-ba09-5b64e4435f8d"},"period":{"start":"1993-08-21T07:00:00+00:00"},"payor":[{"reference":"Organization/4b5a882f-1f43-485c-85c6-f5ad2337d5b1"}]},"request":{"method":"PUT","url":"Coverage/b6ca49f0-d688-4bc4-972e-1e33b00222a2"}},{"fullUrl":"https://madie.cms.gov/Condition/ischemic-stroke-2d5e","resource":{"resourceType":"Condition","id":"656b9719-d907-4612-84e1-a82121191a14","meta":{"profile":["http://hl7.org/fhir/us/qicore/StructureDefinition/qicore-condition"]},"clinicalStatus":{"coding":[{"system":"http://terminology.hl7.org/CodeSystem/condition-clinical","code":"active"}]},"verificationStatus":{"coding":[{"system":"http://terminology.hl7.org/CodeSystem/condition-ver-status","code":"confirmed"}]},"category":[{"coding":[{"system":"http://terminology.hl7.org/CodeSystem/condition-category","code":"encounter-diagnosis","display":"Encounter Diagnosis"}]}],"code":{"coding":[{"system":"http://snomed.info/sct","version":"2020-09","code":"111297002","display":"Nonparalytic stroke (disorder)","userSelected":true}]},"subject":{"reference":"Patient/9bfee327-99be-48de-ba09-5b64e4435f8d"},"recordedDate":"2025-08-13T08:00:00.000+00:00"},"request":{"method":"PUT","url":"Condition/656b9719-d907-4612-84e1-a82121191a14"}},{"fullUrl":"https://madie.cms.gov/Organization/123456","resource":{"resourceType":"Organization","id":"4b5a882f-1f43-485c-85c6-f5ad2337d5b1","meta":{"profile":["http://hl7.org/fhir/us/qicore/StructureDefinition/qicore-organization"]},"identifier":[{"use":"temp","system":"urn:oid:2.16.840.1.113883.4.4","value":"21-3259825"}],"active":true,"type":[{"coding":[{"system":"http://terminology.hl7.org/CodeSystem/organization-type","code":"pay","display":"Payer"}]}],"name":"Blue Cross Blue Shield of Texas","telecom":[{"system":"phone","value":"(+1) 972-766-6900"}],"address":[{"use":"billing","type":"postal","line":["P.O. Box 660044"],"city":"Dallas","state":"TX","postalCode":"75266-0044","country":"USA"}]},"request":{"method":"PUT","url":"Organization/4b5a882f-1f43-485c-85c6-f5ad2337d5b1"}},{"fullUrl":"https://madie.cms.gov/MeasureReport/42bdf891-4b6e-4135-94ba-32c2efc9ae16","resource":{"resourceType":"MeasureReport","id":"42bdf891-4b6e-4135-94ba-32c2efc9ae16","meta":{"profile":["http://hl7.org/fhir/us/cqfmeasures/StructureDefinition/test-case-cqfm"]},"contained":[{"resourceType":"Parameters","id":"af2b261a-5171-46cd-ba9d-02a001a7da71-parameters","parameter":[{"name":"subject","valueString":"9bfee327-99be-48de-ba09-5b64e4435f8d"}]}],"extension":[{"url":"http://hl7.org/fhir/us/cqfmeasures/StructureDefinition/cqfm-inputParameters","valueReference":{"reference":"#af2b261a-5171-46cd-ba9d-02a001a7da71-parameters"}},{"url":"http://hl7.org/fhir/us/cqfmeasures/StructureDefinition/cqfm-testCaseDescription","valueMarkdown":"LOS = 1 Day, only counts IP visit since ED visit > 1 hour before IP visit\n"}],"modifierExtension":[{"url":"http://hl7.org/fhir/us/cqfmeasures/StructureDefinition/cqfm-isTestCase","valueBoolean":true}],"status":"complete","type":"individual","measure":"https://madie.cms.gov/Measure/AntithromboticTherapyByEndofHospitalDay2FHIR","period":{"start":"2025-01-01","end":"2025-12-31"},"group":[{"population":[{"code":{"coding":[{"system":"http://terminology.hl7.org/CodeSystem/measure-population","code":"initial-population","display":"Initial Population"}]},"count":1},{"code":{"coding":[{"system":"http://terminology.hl7.org/CodeSystem/measure-population","code":"denominator","display":"Denominator"}]},"count":1},{"code":{"coding":[{"system":"http://terminology.hl7.org/CodeSystem/measure-population","code":"denominator-exclusion","display":"Denominator Exclusion"}]},"count":1},{"code":{"coding":[{"system":"http://terminology.hl7.org/CodeSystem/measure-population","code":"numerator","display":"Numerator"}]},"count":0},{"code":{"coding":[{"system":"http://terminology.hl7.org/CodeSystem/measure-population","code":"denominator-exception","display":"Denominator Exception"}]},"count":0}]}]},"request":{"method":"PUT","url":"MeasureReport/42bdf891-4b6e-4135-94ba-32c2efc9ae16"}}]}