{"resourceType":"Bundle","id":"tests-0eecd949-77bf-4ded-bb95-40e11c2116c7-bundle","type":"transaction","entry":[{"fullUrl":"https://madie.cms.gov/Patient/0eecd949-77bf-4ded-bb95-40e11c2116c7","resource":{"resourceType":"Patient","id":"0eecd949-77bf-4ded-bb95-40e11c2116c7","meta":{"profile":["http://hl7.org/fhir/us/qicore/StructureDefinition/qicore-patient"]},"text":{"status":"generated","div":"<div xmlns=\"http://www.w3.org/1999/xhtml\"><div class=\"hapiHeaderText\">Age=18onDayOfAdmission <b>IPPPASS </b></div><table class=\"hapiPropertyTable\"><tbody><tr><td>Identifier</td><td>a8dee96dd5484d5021ff771f00e38f96</td></tr><tr><td>Date of birth</td><td><span>21 August 1994</span></td></tr></tbody></table></div>"},"extension":[{"url":"http://hl7.org/fhir/us/core/StructureDefinition/us-core-race","extension":[{"url":"ombCategory","valueCoding":{"system":"urn:oid:2.16.840.1.113883.6.238","code":"1002-5","display":"American Indian or Alaska Native","userSelected":true}},{"url":"text","valueString":"American Indian or Alaska Native"}]},{"url":"http://hl7.org/fhir/us/core/StructureDefinition/us-core-ethnicity","extension":[{"url":"ombCategory","valueCoding":{"system":"urn:oid:2.16.840.1.113883.6.238","code":"2186-5","display":"Not Hispanic or Latino","userSelected":true}},{"url":"text","valueString":"Not Hispanic or Latino"}]}],"identifier":[{"type":{"coding":[{"system":"http://terminology.hl7.org/CodeSystem/v2-0203","code":"MR"}]},"system":"https://bonnie-fhir.healthit.gov/","value":"60f82c2d98086b570510e24c"}],"active":true,"name":[{"use":"usual","family":"IPPPass","given":["Age=18onDayOfAdmission"]}],"gender":"male","birthDate":"1994-08-21"},"request":{"method":"PUT","url":"Patient/0eecd949-77bf-4ded-bb95-40e11c2116c7"}},{"fullUrl":"https://madie.cms.gov/Encounter/5c954892b848462de0ae61a4","resource":{"resourceType":"Encounter","id":"f8165cd9-3b13-416d-bbad-6cab91c9c649","meta":{"profile":["http://hl7.org/fhir/us/qicore/StructureDefinition/qicore-encounter"]},"status":"finished","class":{"system":"http://terminology.hl7.org/CodeSystem/v3-ActCode","code":"IMP","display":"inpatient encounter"},"type":[{"coding":[{"system":"http://snomed.info/sct","code":"32485007"}]}],"subject":{"reference":"Patient/0eecd949-77bf-4ded-bb95-40e11c2116c7"},"period":{"start":"2025-08-21T00:00:00+00:00","end":"2025-12-19T08:15:00+00:00"},"length":{"value":120,"unit":"days"},"diagnosis":[{"condition":{"reference":"Condition/ischemic-stroke-7d46"},"use":{"coding":[{"system":"http://terminology.hl7.org/CodeSystem/diagnosis-role","code":"billing","display":"Billing"}]},"rank":1}]},"request":{"method":"PUT","url":"Encounter/f8165cd9-3b13-416d-bbad-6cab91c9c649"}},{"fullUrl":"https://madie.cms.gov/Coverage/5e20a3651c76ba6c5896ebaf","resource":{"resourceType":"Coverage","id":"43c91b47-d9f2-4fde-a4bf-4589cf1a7f95","status":"active","beneficiary":{"reference":"Patient/0eecd949-77bf-4ded-bb95-40e11c2116c7"},"period":{"start":"1994-08-21T07:00:00+00:00"},"payor":[{"reference":"Organization/4b5a882f-1f43-485c-85c6-f5ad2337d5b1"}]},"request":{"method":"PUT","url":"Coverage/43c91b47-d9f2-4fde-a4bf-4589cf1a7f95"}},{"fullUrl":"https://madie.cms.gov/Condition/ischemic-stroke-7d46","resource":{"resourceType":"Condition","id":"33370c0e-3a1e-44b8-8ba6-d979b833d978","meta":{"profile":["http://hl7.org/fhir/us/qicore/StructureDefinition/qicore-condition"]},"clinicalStatus":{"coding":[{"system":"http://terminology.hl7.org/CodeSystem/condition-clinical","code":"active"}]},"verificationStatus":{"coding":[{"system":"http://terminology.hl7.org/CodeSystem/condition-ver-status","code":"confirmed"}]},"category":[{"coding":[{"system":"http://terminology.hl7.org/CodeSystem/condition-category","code":"encounter-diagnosis","display":"Encounter Diagnosis"}]}],"code":{"coding":[{"system":"http://snomed.info/sct","version":"2020-09","code":"111297002","display":"Nonparalytic stroke (disorder)","userSelected":true}]},"subject":{"reference":"Patient/0eecd949-77bf-4ded-bb95-40e11c2116c7"},"recordedDate":"2025-08-16T08:00:00.000+00:00"},"request":{"method":"PUT","url":"Condition/33370c0e-3a1e-44b8-8ba6-d979b833d978"}},{"fullUrl":"https://madie.cms.gov/Organization/123456","resource":{"resourceType":"Organization","id":"4b5a882f-1f43-485c-85c6-f5ad2337d5b1","meta":{"profile":["http://hl7.org/fhir/us/qicore/StructureDefinition/qicore-organization"]},"identifier":[{"use":"temp","system":"urn:oid:2.16.840.1.113883.4.4","value":"21-3259825"}],"active":true,"type":[{"coding":[{"system":"http://terminology.hl7.org/CodeSystem/organization-type","code":"pay","display":"Payer"}]}],"name":"Blue Cross Blue Shield of Texas","telecom":[{"system":"phone","value":"(+1) 972-766-6900"}],"address":[{"use":"billing","type":"postal","line":["P.O. Box 660044"],"city":"Dallas","state":"TX","postalCode":"75266-0044","country":"USA"}]},"request":{"method":"PUT","url":"Organization/4b5a882f-1f43-485c-85c6-f5ad2337d5b1"}},{"fullUrl":"https://madie.cms.gov/Practitioner/practitioner-123456","resource":{"resourceType":"Practitioner","id":"21ad20ed-9978-42ea-b8f9-3b2f6c5064cd","identifier":[{"system":"http://hl7.org/fhir/sid/us-npi","value":"123456"}],"name":[{"family":"Evil","prefix":["Dr"]}]},"request":{"method":"PUT","url":"Practitioner/21ad20ed-9978-42ea-b8f9-3b2f6c5064cd"}},{"fullUrl":"https://madie.cms.gov/MeasureReport/b3934a57-afea-4d77-9e93-e7430e88534e","resource":{"resourceType":"MeasureReport","id":"b3934a57-afea-4d77-9e93-e7430e88534e","meta":{"profile":["http://hl7.org/fhir/us/cqfmeasures/StructureDefinition/test-case-cqfm"]},"contained":[{"resourceType":"Parameters","id":"ee452b5c-2a4f-4d29-bffd-5737bd3007ce-parameters","parameter":[{"name":"subject","valueString":"0eecd949-77bf-4ded-bb95-40e11c2116c7"}]}],"extension":[{"url":"http://hl7.org/fhir/us/cqfmeasures/StructureDefinition/cqfm-inputParameters","valueReference":{"reference":"#ee452b5c-2a4f-4d29-bffd-5737bd3007ce-parameters"}},{"url":"http://hl7.org/fhir/us/cqfmeasures/StructureDefinition/cqfm-testCaseDescription","valueMarkdown":"Patient turns 18 day of admission , age=18\n"}],"modifierExtension":[{"url":"http://hl7.org/fhir/us/cqfmeasures/StructureDefinition/cqfm-isTestCase","valueBoolean":true}],"status":"complete","type":"individual","measure":"https://madie.cms.gov/Measure/AntithromboticTherapyByEndofHospitalDay2FHIR","period":{"start":"2025-01-01","end":"2025-12-31"},"group":[{"population":[{"code":{"coding":[{"system":"http://terminology.hl7.org/CodeSystem/measure-population","code":"initial-population","display":"Initial Population"}]},"count":1},{"code":{"coding":[{"system":"http://terminology.hl7.org/CodeSystem/measure-population","code":"denominator","display":"Denominator"}]},"count":1},{"code":{"coding":[{"system":"http://terminology.hl7.org/CodeSystem/measure-population","code":"denominator-exclusion","display":"Denominator Exclusion"}]},"count":0},{"code":{"coding":[{"system":"http://terminology.hl7.org/CodeSystem/measure-population","code":"numerator","display":"Numerator"}]},"count":0},{"code":{"coding":[{"system":"http://terminology.hl7.org/CodeSystem/measure-population","code":"denominator-exception","display":"Denominator Exception"}]},"count":0}]}]},"request":{"method":"PUT","url":"MeasureReport/b3934a57-afea-4d77-9e93-e7430e88534e"}}]}