{"resourceType":"Bundle","id":"tests-cc23329d-6635-4347-8669-a98c921f4381-bundle","type":"transaction","entry":[{"fullUrl":"https://madie.cms.gov/Patient/cc23329d-6635-4347-8669-a98c921f4381","resource":{"resourceType":"Patient","id":"cc23329d-6635-4347-8669-a98c921f4381","meta":{"profile":["http://hl7.org/fhir/us/qicore/StructureDefinition/qicore-patient"]},"text":{"status":"generated","div":"<div xmlns=\"http://www.w3.org/1999/xhtml\"><div class=\"hapiHeaderText\">INRdurED_ED=1hrNoObsBFEncDayOf_INR_Att <b>DENEXCEPASS </b></div><table class=\"hapiPropertyTable\"><tbody><tr><td>Identifier</td><td>b60c027f1b1c264b4ad909c1c0014b64a063a10a885e293b05b431fd30fe7c78</td></tr><tr><td>Date of birth</td><td><span>26 September 1975</span></td></tr></tbody></table></div>"},"extension":[{"url":"http://hl7.org/fhir/us/core/StructureDefinition/us-core-race","extension":[{"url":"ombCategory","valueCoding":{"system":"urn:oid:2.16.840.1.113883.6.238","code":"2054-5","display":"Black or African American","userSelected":true}},{"url":"text","valueString":"Black or African American"}]},{"url":"http://hl7.org/fhir/us/core/StructureDefinition/us-core-ethnicity","extension":[{"url":"ombCategory","valueCoding":{"system":"urn:oid:2.16.840.1.113883.6.238","code":"2186-5","display":"Not Hispanic or Latino","userSelected":true}},{"url":"text","valueString":"Not Hispanic or Latino"}]}],"identifier":[{"type":{"coding":[{"system":"http://terminology.hl7.org/CodeSystem/v2-0203","code":"MR"}]},"system":"https://bonnie-fhir.healthit.gov/","value":"60f82c2f98086b570510e2ca"}],"active":true,"name":[{"use":"usual","family":"DENEXCEPass","given":["INRdurED_ED=1hrNoObsBFEncDayOf_INR_Att "]}],"gender":"female","birthDate":"1975-09-26"},"request":{"method":"PUT","url":"Patient/cc23329d-6635-4347-8669-a98c921f4381"}},{"fullUrl":"https://madie.cms.gov/Encounter/5c954894b848462de0ae6306","resource":{"resourceType":"Encounter","id":"9c634b7c-d40b-4f4f-ae56-6d0dd7de3b18","meta":{"profile":["http://hl7.org/fhir/us/qicore/StructureDefinition/qicore-encounter"]},"status":"finished","class":{"system":"http://terminology.hl7.org/CodeSystem/v3-ActCode","code":"EMER","display":"emergency","userSelected":true},"type":[{"coding":[{"system":"http://snomed.info/sct","code":"4525004"}]}],"subject":{"reference":"Patient/cc23329d-6635-4347-8669-a98c921f4381"},"period":{"start":"2025-10-10T06:15:00+00:00","end":"2025-10-10T06:31:00+00:00"},"length":{"value":0,"unit":"days"}},"request":{"method":"PUT","url":"Encounter/9c634b7c-d40b-4f4f-ae56-6d0dd7de3b18"}},{"fullUrl":"https://madie.cms.gov/Encounter/5c954894b848462de0ae6307","resource":{"resourceType":"Encounter","id":"020d9754-3e9b-4dd5-908a-773a362cf44c","meta":{"profile":["http://hl7.org/fhir/us/qicore/StructureDefinition/qicore-encounter"]},"status":"finished","class":{"system":"http://terminology.hl7.org/CodeSystem/v3-ActCode","code":"IMP","display":"inpatient encounter","userSelected":true},"type":[{"coding":[{"system":"http://snomed.info/sct","code":"32485007"}]}],"subject":{"reference":"Patient/cc23329d-6635-4347-8669-a98c921f4381"},"period":{"start":"2025-10-10T07:31:00+00:00","end":"2025-10-15T11:30:00+00:00"},"length":{"value":5,"unit":"days"},"diagnosis":[{"condition":{"reference":"Condition/ischemic-stroke-9f1e"},"use":{"coding":[{"system":"http://terminology.hl7.org/CodeSystem/diagnosis-role","code":"billing","display":"Billing"}]},"rank":1}]},"request":{"method":"PUT","url":"Encounter/020d9754-3e9b-4dd5-908a-773a362cf44c"}},{"fullUrl":"https://madie.cms.gov/Observation/5c954894b848462de0ae6309","resource":{"resourceType":"Observation","id":"a7d73077-dc38-4604-8bc3-85d46138ddce","meta":{"profile":["http://hl7.org/fhir/us/qicore/StructureDefinition/qicore-observation"]},"status":"final","category":[{"coding":[{"system":"http://terminology.hl7.org/CodeSystem/observation-category","code":"laboratory","display":"Laboratory"}]}],"code":{"coding":[{"system":"http://loinc.org","code":"34714-6"}]},"subject":{"reference":"Patient/cc23329d-6635-4347-8669-a98c921f4381"},"effectivePeriod":{"start":"2025-10-10T06:15:00+00:00"},"issued":"2025-10-10T06:31:00.000+00:00","valueQuantity":{"value":3.6},"method":{"coding":[{"system":"http://loinc.org","code":"34714-6","display":"INR in Blood by Coagulation assay"}]},"referenceRange":[{"low":{"value":1,"system":"http://unitsofmeasure.org"},"high":{"value":4,"system":"http://unitsofmeasure.org"}}]},"request":{"method":"PUT","url":"Observation/a7d73077-dc38-4604-8bc3-85d46138ddce"}},{"fullUrl":"https://madie.cms.gov/Coverage/5e20a3711c76ba6c5896ec15","resource":{"resourceType":"Coverage","id":"1d0cbae7-1c52-4c7c-9363-d4b3f92a2753","status":"active","beneficiary":{"reference":"Patient/cc23329d-6635-4347-8669-a98c921f4381"},"period":{"start":"1975-09-26T08:00:00+00:00"},"payor":[{"reference":"Organization/4b5a882f-1f43-485c-85c6-f5ad2337d5b1"}]},"request":{"method":"PUT","url":"Coverage/1d0cbae7-1c52-4c7c-9363-d4b3f92a2753"}},{"fullUrl":"https://madie.cms.gov/Condition/ischemic-stroke-9f1e","resource":{"resourceType":"Condition","id":"393a2fdb-cd4f-42a6-8cbd-b60d64557956","meta":{"profile":["http://hl7.org/fhir/us/qicore/StructureDefinition/qicore-condition"]},"clinicalStatus":{"coding":[{"system":"http://terminology.hl7.org/CodeSystem/condition-clinical","code":"active"}]},"verificationStatus":{"coding":[{"system":"http://terminology.hl7.org/CodeSystem/condition-ver-status","code":"confirmed"}]},"category":[{"coding":[{"system":"http://terminology.hl7.org/CodeSystem/condition-category","code":"encounter-diagnosis","display":"Encounter Diagnosis"}]}],"code":{"coding":[{"system":"http://snomed.info/sct","version":"2020-09","code":"111297002","display":"Nonparalytic stroke (disorder)","userSelected":true}]},"subject":{"reference":"Patient/cc23329d-6635-4347-8669-a98c921f4381"},"recordedDate":"2025-08-06T08:00:00.000+00:00"},"request":{"method":"PUT","url":"Condition/393a2fdb-cd4f-42a6-8cbd-b60d64557956"}},{"fullUrl":"https://madie.cms.gov/Organization/123456","resource":{"resourceType":"Organization","id":"4b5a882f-1f43-485c-85c6-f5ad2337d5b1","meta":{"profile":["http://hl7.org/fhir/us/qicore/StructureDefinition/qicore-organization"]},"identifier":[{"use":"temp","system":"urn:oid:2.16.840.1.113883.4.4","value":"21-3259825"}],"active":true,"type":[{"coding":[{"system":"http://terminology.hl7.org/CodeSystem/organization-type","code":"pay","display":"Payer"}]}],"name":"Blue Cross Blue Shield of Texas","telecom":[{"system":"phone","value":"(+1) 972-766-6900"}],"address":[{"use":"billing","type":"postal","line":["P.O. Box 660044"],"city":"Dallas","state":"TX","postalCode":"75266-0044","country":"USA"}]},"request":{"method":"PUT","url":"Organization/4b5a882f-1f43-485c-85c6-f5ad2337d5b1"}},{"fullUrl":"https://madie.cms.gov/MeasureReport/ea267333-d161-4d6b-aee4-29717a349fd5","resource":{"resourceType":"MeasureReport","id":"ea267333-d161-4d6b-aee4-29717a349fd5","meta":{"profile":["http://hl7.org/fhir/us/cqfmeasures/StructureDefinition/test-case-cqfm"]},"contained":[{"resourceType":"Parameters","id":"28c85879-850a-4f9d-862b-875794174924-parameters","parameter":[{"name":"subject","valueString":"cc23329d-6635-4347-8669-a98c921f4381"}]}],"extension":[{"url":"http://hl7.org/fhir/us/cqfmeasures/StructureDefinition/cqfm-inputParameters","valueReference":{"reference":"#28c85879-850a-4f9d-862b-875794174924-parameters"}},{"url":"http://hl7.org/fhir/us/cqfmeasures/StructureDefinition/cqfm-testCaseDescription","valueMarkdown":"Patient receives INR of 3.6 the day of ED start. ED ends 60 minute before IP on the same day. No Obs. Testing Day of operator with HospitalizationWithObservation function.\n"}],"modifierExtension":[{"url":"http://hl7.org/fhir/us/cqfmeasures/StructureDefinition/cqfm-isTestCase","valueBoolean":true}],"status":"complete","type":"individual","measure":"https://madie.cms.gov/Measure/AntithromboticTherapyByEndofHospitalDay2FHIR","period":{"start":"2025-01-01","end":"2025-12-31"},"group":[{"population":[{"code":{"coding":[{"system":"http://terminology.hl7.org/CodeSystem/measure-population","code":"initial-population","display":"Initial Population"}]},"count":1},{"code":{"coding":[{"system":"http://terminology.hl7.org/CodeSystem/measure-population","code":"denominator","display":"Denominator"}]},"count":1},{"code":{"coding":[{"system":"http://terminology.hl7.org/CodeSystem/measure-population","code":"denominator-exclusion","display":"Denominator Exclusion"}]},"count":0},{"code":{"coding":[{"system":"http://terminology.hl7.org/CodeSystem/measure-population","code":"numerator","display":"Numerator"}]},"count":0},{"code":{"coding":[{"system":"http://terminology.hl7.org/CodeSystem/measure-population","code":"denominator-exception","display":"Denominator Exception"}]},"count":1}]}]},"request":{"method":"PUT","url":"MeasureReport/ea267333-d161-4d6b-aee4-29717a349fd5"}}]}