{"resourceType":"Bundle","id":"tests-82fd75d8-4816-4d24-b18c-0e454c430eb5-bundle","type":"transaction","entry":[{"fullUrl":"https://madie.cms.gov/Patient/82fd75d8-4816-4d24-b18c-0e454c430eb5","resource":{"resourceType":"Patient","id":"82fd75d8-4816-4d24-b18c-0e454c430eb5","meta":{"profile":["http://hl7.org/fhir/us/qicore/StructureDefinition/qicore-patient"]},"text":{"status":"generated","div":"<div xmlns=\"http://www.w3.org/1999/xhtml\"><div class=\"hapiHeaderText\">INRdurED_ED&lt;1hrNoObsBFEncDayOf <b>DENEXCEPASS </b></div><table class=\"hapiPropertyTable\"><tbody><tr><td>Identifier</td><td>44c405eb45d9fc2297eae64da0d160d3e28aefa9526a796ba05a2ea4fcc08a26</td></tr><tr><td>Date of birth</td><td><span>26 September 1975</span></td></tr></tbody></table></div>"},"extension":[{"url":"http://hl7.org/fhir/us/core/StructureDefinition/us-core-race","extension":[{"url":"ombCategory","valueCoding":{"system":"urn:oid:2.16.840.1.113883.6.238","code":"2054-5","display":"Black or African American","userSelected":true}},{"url":"text","valueString":"Black or African American"}]},{"url":"http://hl7.org/fhir/us/core/StructureDefinition/us-core-ethnicity","extension":[{"url":"ombCategory","valueCoding":{"system":"urn:oid:2.16.840.1.113883.6.238","code":"2186-5","display":"Not Hispanic or Latino","userSelected":true}},{"url":"text","valueString":"Not Hispanic or Latino"}]}],"identifier":[{"type":{"coding":[{"system":"http://terminology.hl7.org/CodeSystem/v2-0203","code":"MR"}]},"system":"https://bonnie-fhir.healthit.gov/","value":"60f82c2f98086b570510e2b0"}],"active":true,"name":[{"use":"usual","family":"DENEXCEPass","given":["INRdurED_ED<1hrNoObsBFEncDayOf"]}],"gender":"female","birthDate":"1975-09-26"},"request":{"method":"PUT","url":"Patient/82fd75d8-4816-4d24-b18c-0e454c430eb5"}},{"fullUrl":"https://madie.cms.gov/Encounter/5c954894b848462de0ae62fc","resource":{"resourceType":"Encounter","id":"ab9af74a-5648-4089-8f24-df4e0e232fb9","meta":{"profile":["http://hl7.org/fhir/us/qicore/StructureDefinition/qicore-encounter"]},"status":"finished","class":{"system":"http://terminology.hl7.org/CodeSystem/v3-ActCode","code":"EMER","display":"emergency","userSelected":true},"type":[{"coding":[{"system":"http://snomed.info/sct","code":"4525004"}]}],"subject":{"reference":"Patient/82fd75d8-4816-4d24-b18c-0e454c430eb5"},"period":{"start":"2025-10-10T06:15:00+00:00","end":"2025-10-10T06:31:00+00:00"},"length":{"value":0,"unit":"days"}},"request":{"method":"PUT","url":"Encounter/ab9af74a-5648-4089-8f24-df4e0e232fb9"}},{"fullUrl":"https://madie.cms.gov/Encounter/5c954894b848462de0ae62fd","resource":{"resourceType":"Encounter","id":"9c52a939-b09d-411d-a22e-00ef569ec615","meta":{"profile":["http://hl7.org/fhir/us/qicore/StructureDefinition/qicore-encounter"]},"status":"finished","class":{"system":"http://terminology.hl7.org/CodeSystem/v3-ActCode","code":"IMP","display":"inpatient encounter","userSelected":true},"type":[{"coding":[{"system":"http://snomed.info/sct","code":"32485007"}]}],"subject":{"reference":"Patient/82fd75d8-4816-4d24-b18c-0e454c430eb5"},"period":{"start":"2025-10-10T06:32:00+00:00","end":"2025-10-15T11:30:00+00:00"},"length":{"value":5,"unit":"days"},"diagnosis":[{"condition":{"reference":"Condition/ischemic-stroke-9f1b"},"use":{"coding":[{"system":"http://terminology.hl7.org/CodeSystem/diagnosis-role","code":"billing","display":"Billing"}]},"rank":1}]},"request":{"method":"PUT","url":"Encounter/9c52a939-b09d-411d-a22e-00ef569ec615"}},{"fullUrl":"https://madie.cms.gov/Observation/5c954894b848462de0ae62ff","resource":{"resourceType":"Observation","id":"cb390d89-6b15-4d76-b076-4c6c3ffc36a0","meta":{"profile":["http://hl7.org/fhir/us/qicore/StructureDefinition/qicore-observation"]},"status":"final","category":[{"coding":[{"system":"http://terminology.hl7.org/CodeSystem/observation-category","code":"laboratory","display":"Laboratory"}]}],"code":{"coding":[{"system":"http://loinc.org","code":"34714-6"}]},"subject":{"reference":"Patient/82fd75d8-4816-4d24-b18c-0e454c430eb5"},"effectivePeriod":{"start":"2025-10-10T06:15:00+00:00"},"issued":"2025-10-10T06:31:00.000+00:00","valueQuantity":{"value":3.6}},"request":{"method":"PUT","url":"Observation/cb390d89-6b15-4d76-b076-4c6c3ffc36a0"}},{"fullUrl":"https://madie.cms.gov/Coverage/5e20a3711c76ba6c5896ec13","resource":{"resourceType":"Coverage","id":"bf80d429-0a25-4bf5-b143-6232ebb35fbf","status":"active","beneficiary":{"reference":"Patient/82fd75d8-4816-4d24-b18c-0e454c430eb5"},"period":{"start":"1975-09-26T08:00:00+00:00"},"payor":[{"reference":"Organization/4b5a882f-1f43-485c-85c6-f5ad2337d5b1"}]},"request":{"method":"PUT","url":"Coverage/bf80d429-0a25-4bf5-b143-6232ebb35fbf"}},{"fullUrl":"https://madie.cms.gov/Condition/ischemic-stroke-9f1b","resource":{"resourceType":"Condition","id":"0e209762-b837-4f99-8065-c10f4b70ad75","meta":{"profile":["http://hl7.org/fhir/us/qicore/StructureDefinition/qicore-condition"]},"clinicalStatus":{"coding":[{"system":"http://terminology.hl7.org/CodeSystem/condition-clinical","code":"active"}]},"verificationStatus":{"coding":[{"system":"http://terminology.hl7.org/CodeSystem/condition-ver-status","code":"confirmed"}]},"category":[{"coding":[{"system":"http://terminology.hl7.org/CodeSystem/condition-category","code":"encounter-diagnosis","display":"Encounter Diagnosis"}]}],"code":{"coding":[{"system":"http://snomed.info/sct","version":"2020-09","code":"111297002","display":"Nonparalytic stroke (disorder)","userSelected":true}]},"subject":{"reference":"Patient/82fd75d8-4816-4d24-b18c-0e454c430eb5"},"recordedDate":"2025-08-06T08:00:00.000+00:00"},"request":{"method":"PUT","url":"Condition/0e209762-b837-4f99-8065-c10f4b70ad75"}},{"fullUrl":"https://madie.cms.gov/Organization/123456","resource":{"resourceType":"Organization","id":"4b5a882f-1f43-485c-85c6-f5ad2337d5b1","meta":{"profile":["http://hl7.org/fhir/us/qicore/StructureDefinition/qicore-organization"]},"identifier":[{"use":"temp","system":"urn:oid:2.16.840.1.113883.4.4","value":"21-3259825"}],"active":true,"type":[{"coding":[{"system":"http://terminology.hl7.org/CodeSystem/organization-type","code":"pay","display":"Payer"}]}],"name":"Blue Cross Blue Shield of Texas","telecom":[{"system":"phone","value":"(+1) 972-766-6900"}],"address":[{"use":"billing","type":"postal","line":["P.O. Box 660044"],"city":"Dallas","state":"TX","postalCode":"75266-0044","country":"USA"}]},"request":{"method":"PUT","url":"Organization/4b5a882f-1f43-485c-85c6-f5ad2337d5b1"}},{"fullUrl":"https://madie.cms.gov/MeasureReport/c38dd028-3017-4563-8fe5-e48328e358c5","resource":{"resourceType":"MeasureReport","id":"c38dd028-3017-4563-8fe5-e48328e358c5","meta":{"profile":["http://hl7.org/fhir/us/cqfmeasures/StructureDefinition/test-case-cqfm"]},"contained":[{"resourceType":"Parameters","id":"ca0e132f-e334-4db6-9809-e20e42ab15ee-parameters","parameter":[{"name":"subject","valueString":"82fd75d8-4816-4d24-b18c-0e454c430eb5"}]}],"extension":[{"url":"http://hl7.org/fhir/us/cqfmeasures/StructureDefinition/cqfm-inputParameters","valueReference":{"reference":"#ca0e132f-e334-4db6-9809-e20e42ab15ee-parameters"}},{"url":"http://hl7.org/fhir/us/cqfmeasures/StructureDefinition/cqfm-testCaseDescription","valueMarkdown":"Patient receives INR of 3.6 the day of ED start. ED ends 1 minute before IP on the same day. No Obs. Testing Day of operator with HospitalizationWithObservation function.\n"}],"modifierExtension":[{"url":"http://hl7.org/fhir/us/cqfmeasures/StructureDefinition/cqfm-isTestCase","valueBoolean":true}],"status":"complete","type":"individual","measure":"https://madie.cms.gov/Measure/AntithromboticTherapyByEndofHospitalDay2FHIR","period":{"start":"2025-01-01","end":"2025-12-31"},"group":[{"population":[{"code":{"coding":[{"system":"http://terminology.hl7.org/CodeSystem/measure-population","code":"initial-population","display":"Initial Population"}]},"count":1},{"code":{"coding":[{"system":"http://terminology.hl7.org/CodeSystem/measure-population","code":"denominator","display":"Denominator"}]},"count":1},{"code":{"coding":[{"system":"http://terminology.hl7.org/CodeSystem/measure-population","code":"denominator-exclusion","display":"Denominator Exclusion"}]},"count":0},{"code":{"coding":[{"system":"http://terminology.hl7.org/CodeSystem/measure-population","code":"numerator","display":"Numerator"}]},"count":0},{"code":{"coding":[{"system":"http://terminology.hl7.org/CodeSystem/measure-population","code":"denominator-exception","display":"Denominator Exception"}]},"count":1}]}]},"request":{"method":"PUT","url":"MeasureReport/c38dd028-3017-4563-8fe5-e48328e358c5"}}]}