{"resourceType":"Bundle","id":"tests-144370a9-c9cf-43db-ba18-f92f4f8cec29-bundle","type":"transaction","entry":[{"fullUrl":"https://madie.cms.gov/Patient/144370a9-c9cf-43db-ba18-f92f4f8cec29","resource":{"resourceType":"Patient","id":"144370a9-c9cf-43db-ba18-f92f4f8cec29","meta":{"profile":["http://hl7.org/fhir/us/qicore/StructureDefinition/qicore-patient"]},"text":{"status":"generated","div":"<div xmlns=\"http://www.w3.org/1999/xhtml\"><div class=\"hapiHeaderText\">INRDayAftEnc_ED&lt;1hrObs&lt;1hrBFEncDayOf <b>DENEXCEPASS </b></div><table class=\"hapiPropertyTable\"><tbody><tr><td>Identifier</td><td>eb0390ddf5cccfdde210d05452662b986f9c97b164102446c8fbef7016593c62</td></tr><tr><td>Date of birth</td><td><span>26 September 1975</span></td></tr></tbody></table></div>"},"extension":[{"url":"http://hl7.org/fhir/us/core/StructureDefinition/us-core-race","extension":[{"url":"ombCategory","valueCoding":{"system":"urn:oid:2.16.840.1.113883.6.238","code":"2054-5","display":"Black or African American","userSelected":true}},{"url":"text","valueString":"Black or African American"}]},{"url":"http://hl7.org/fhir/us/core/StructureDefinition/us-core-ethnicity","extension":[{"url":"ombCategory","valueCoding":{"system":"urn:oid:2.16.840.1.113883.6.238","code":"2186-5","display":"Not Hispanic or Latino","userSelected":true}},{"url":"text","valueString":"Not Hispanic or Latino"}]}],"identifier":[{"type":{"coding":[{"system":"http://terminology.hl7.org/CodeSystem/v2-0203","code":"MR"}]},"system":"https://bonnie-fhir.healthit.gov/","value":"60f82c2f98086b570510e2a8"}],"active":true,"name":[{"use":"usual","family":"DENEXCEPass","given":["INRDayAftEnc_ED<1hrObs<1hrBFEncDayOf"]}],"gender":"female","birthDate":"1975-09-26"},"request":{"method":"PUT","url":"Patient/144370a9-c9cf-43db-ba18-f92f4f8cec29"}},{"fullUrl":"https://madie.cms.gov/Encounter/5c954894b848462de0ae62cc","resource":{"resourceType":"Encounter","id":"81d125e9-d2e6-4edb-924f-7388bfc2b114","meta":{"profile":["http://hl7.org/fhir/us/qicore/StructureDefinition/qicore-encounter"]},"status":"finished","class":{"system":"http://terminology.hl7.org/CodeSystem/v3-ActCode","code":"EMER","display":"emergency","userSelected":true},"type":[{"coding":[{"system":"http://snomed.info/sct","code":"4525004"}]}],"subject":{"reference":"Patient/144370a9-c9cf-43db-ba18-f92f4f8cec29"},"period":{"start":"2025-10-11T06:15:00+00:00","end":"2025-10-11T06:30:00+00:00"},"length":{"value":0,"unit":"days"}},"request":{"method":"PUT","url":"Encounter/81d125e9-d2e6-4edb-924f-7388bfc2b114"}},{"fullUrl":"https://madie.cms.gov/Encounter/5c954894b848462de0ae62cd","resource":{"resourceType":"Encounter","id":"cd897cca-21ee-4643-b830-ac6e70043875","meta":{"profile":["http://hl7.org/fhir/us/qicore/StructureDefinition/qicore-encounter"]},"status":"finished","class":{"system":"http://terminology.hl7.org/CodeSystem/v3-ActCode","code":"OBSENC","display":"observation encounter","userSelected":true},"type":[{"coding":[{"system":"http://snomed.info/sct","code":"448851000124103"}]}],"subject":{"reference":"Patient/144370a9-c9cf-43db-ba18-f92f4f8cec29"},"period":{"start":"2025-10-11T06:31:00+00:00","end":"2025-10-11T07:30:00+00:00"},"length":{"value":0,"unit":"days"}},"request":{"method":"PUT","url":"Encounter/cd897cca-21ee-4643-b830-ac6e70043875"}},{"fullUrl":"https://madie.cms.gov/Encounter/5c954894b848462de0ae62ce","resource":{"resourceType":"Encounter","id":"99f43bd7-f6b3-4a67-a9fc-dcec6936b0e6","meta":{"profile":["http://hl7.org/fhir/us/qicore/StructureDefinition/qicore-encounter"]},"status":"finished","class":{"system":"http://terminology.hl7.org/CodeSystem/v3-ActCode","code":"IMP","display":"inpatient encounter","userSelected":true},"type":[{"coding":[{"system":"http://snomed.info/sct","code":"32485007"}]}],"subject":{"reference":"Patient/144370a9-c9cf-43db-ba18-f92f4f8cec29"},"period":{"start":"2025-10-11T07:31:00+00:00","end":"2025-10-15T11:30:00+00:00"},"length":{"value":4,"unit":"days"},"diagnosis":[{"condition":{"reference":"Condition/ischemic-stroke-9f14"},"use":{"coding":[{"system":"http://terminology.hl7.org/CodeSystem/diagnosis-role","code":"billing","display":"Billing"}]},"rank":1}]},"request":{"method":"PUT","url":"Encounter/99f43bd7-f6b3-4a67-a9fc-dcec6936b0e6"}},{"fullUrl":"https://madie.cms.gov/Observation/5c954894b848462de0ae62d0","resource":{"resourceType":"Observation","id":"07df7681-2ee8-4aa0-b9e7-ca86281276d9","meta":{"profile":["http://hl7.org/fhir/us/qicore/StructureDefinition/qicore-observation"]},"status":"final","category":[{"coding":[{"system":"http://terminology.hl7.org/CodeSystem/observation-category","code":"laboratory","display":"Laboratory"}]}],"code":{"coding":[{"system":"http://loinc.org","code":"34714-6"}]},"subject":{"reference":"Patient/144370a9-c9cf-43db-ba18-f92f4f8cec29"},"effectivePeriod":{"start":"2025-10-10T06:14:00+00:00"},"issued":"2025-10-12T00:00:00.000+00:00","valueQuantity":{"value":3.6}},"request":{"method":"PUT","url":"Observation/07df7681-2ee8-4aa0-b9e7-ca86281276d9"}},{"fullUrl":"https://madie.cms.gov/Coverage/5e20a3701c76ba6c5896ec0b","resource":{"resourceType":"Coverage","id":"101cc05b-5051-4739-bc33-84d02aa7df5c","status":"active","beneficiary":{"reference":"Patient/144370a9-c9cf-43db-ba18-f92f4f8cec29"},"period":{"start":"1975-09-26T08:00:00+00:00"},"payor":[{"reference":"Organization/4b5a882f-1f43-485c-85c6-f5ad2337d5b1"}]},"request":{"method":"PUT","url":"Coverage/101cc05b-5051-4739-bc33-84d02aa7df5c"}},{"fullUrl":"https://madie.cms.gov/Condition/ischemic-stroke-9f14","resource":{"resourceType":"Condition","id":"9e6af3cd-3d73-4781-bd7f-ac009ffc0e41","meta":{"profile":["http://hl7.org/fhir/us/qicore/StructureDefinition/qicore-condition"]},"clinicalStatus":{"coding":[{"system":"http://terminology.hl7.org/CodeSystem/condition-clinical","code":"active"}]},"verificationStatus":{"coding":[{"system":"http://terminology.hl7.org/CodeSystem/condition-ver-status","code":"confirmed"}]},"category":[{"coding":[{"system":"http://terminology.hl7.org/CodeSystem/condition-category","code":"encounter-diagnosis","display":"Encounter Diagnosis"}]}],"code":{"coding":[{"system":"http://snomed.info/sct","version":"2020-09","code":"111297002","display":"Nonparalytic stroke (disorder)","userSelected":true}]},"subject":{"reference":"Patient/144370a9-c9cf-43db-ba18-f92f4f8cec29"},"recordedDate":"2025-08-06T08:00:00.000+00:00"},"request":{"method":"PUT","url":"Condition/9e6af3cd-3d73-4781-bd7f-ac009ffc0e41"}},{"fullUrl":"https://madie.cms.gov/Organization/123456","resource":{"resourceType":"Organization","id":"4b5a882f-1f43-485c-85c6-f5ad2337d5b1","meta":{"profile":["http://hl7.org/fhir/us/qicore/StructureDefinition/qicore-organization"]},"identifier":[{"use":"temp","system":"urn:oid:2.16.840.1.113883.4.4","value":"21-3259825"}],"active":true,"type":[{"coding":[{"system":"http://terminology.hl7.org/CodeSystem/organization-type","code":"pay","display":"Payer"}]}],"name":"Blue Cross Blue Shield of Texas","telecom":[{"system":"phone","value":"(+1) 972-766-6900"}],"address":[{"use":"billing","type":"postal","line":["P.O. Box 660044"],"city":"Dallas","state":"TX","postalCode":"75266-0044","country":"USA"}]},"request":{"method":"PUT","url":"Organization/4b5a882f-1f43-485c-85c6-f5ad2337d5b1"}},{"fullUrl":"https://madie.cms.gov/MeasureReport/deab703f-602d-4f42-a4b6-cbc0c29090f2","resource":{"resourceType":"MeasureReport","id":"deab703f-602d-4f42-a4b6-cbc0c29090f2","meta":{"profile":["http://hl7.org/fhir/us/cqfmeasures/StructureDefinition/test-case-cqfm"]},"contained":[{"resourceType":"Parameters","id":"ee3ed3d2-962a-4150-94e9-d869c79576c3-parameters","parameter":[{"name":"subject","valueString":"144370a9-c9cf-43db-ba18-f92f4f8cec29"}]}],"extension":[{"url":"http://hl7.org/fhir/us/cqfmeasures/StructureDefinition/cqfm-inputParameters","valueReference":{"reference":"#ee3ed3d2-962a-4150-94e9-d869c79576c3-parameters"}},{"url":"http://hl7.org/fhir/us/cqfmeasures/StructureDefinition/cqfm-testCaseDescription","valueMarkdown":"Patient receives INR at midnight, 1 day after IP start. ED ends 1 min before observation, Obs ends 1 min before IP start on the same day. Testing Day of operator with HospitalizationWithObservation function.\n"}],"modifierExtension":[{"url":"http://hl7.org/fhir/us/cqfmeasures/StructureDefinition/cqfm-isTestCase","valueBoolean":true}],"status":"complete","type":"individual","measure":"https://madie.cms.gov/Measure/AntithromboticTherapyByEndofHospitalDay2FHIR","period":{"start":"2025-01-01","end":"2025-12-31"},"group":[{"population":[{"code":{"coding":[{"system":"http://terminology.hl7.org/CodeSystem/measure-population","code":"initial-population","display":"Initial Population"}]},"count":1},{"code":{"coding":[{"system":"http://terminology.hl7.org/CodeSystem/measure-population","code":"denominator","display":"Denominator"}]},"count":1},{"code":{"coding":[{"system":"http://terminology.hl7.org/CodeSystem/measure-population","code":"denominator-exclusion","display":"Denominator Exclusion"}]},"count":0},{"code":{"coding":[{"system":"http://terminology.hl7.org/CodeSystem/measure-population","code":"numerator","display":"Numerator"}]},"count":0},{"code":{"coding":[{"system":"http://terminology.hl7.org/CodeSystem/measure-population","code":"denominator-exception","display":"Denominator Exception"}]},"count":1}]}]},"request":{"method":"PUT","url":"MeasureReport/deab703f-602d-4f42-a4b6-cbc0c29090f2"}}]}