{"resourceType":"Bundle","id":"tests-8873f644-9b17-4ee1-9152-8c77c7374bd1-bundle","type":"transaction","entry":[{"fullUrl":"https://madie.cms.gov/Patient/8873f644-9b17-4ee1-9152-8c77c7374bd1","resource":{"resourceType":"Patient","id":"8873f644-9b17-4ee1-9152-8c77c7374bd1","meta":{"profile":["http://hl7.org/fhir/us/qicore/StructureDefinition/qicore-patient"]},"text":{"status":"generated","div":"<div xmlns=\"http://www.w3.org/1999/xhtml\"><div class=\"hapiHeaderText\">CMP=1Day_DuringEncIP <b>DENEXPASS </b></div><table class=\"hapiPropertyTable\"><tbody><tr><td>Identifier</td><td>912400d032c570bbcae9bbdbf6e22fb5</td></tr><tr><td>Date of birth</td><td><span>26 September 1975</span></td></tr></tbody></table></div>"},"extension":[{"url":"http://hl7.org/fhir/us/core/StructureDefinition/us-core-race","extension":[{"url":"ombCategory","valueCoding":{"system":"urn:oid:2.16.840.1.113883.6.238","code":"2054-5","display":"Black or African American","userSelected":true}},{"url":"text","valueString":"Black or African American"}]},{"url":"http://hl7.org/fhir/us/core/StructureDefinition/us-core-ethnicity","extension":[{"url":"ombCategory","valueCoding":{"system":"urn:oid:2.16.840.1.113883.6.238","code":"2186-5","display":"Not Hispanic or Latino","userSelected":true}},{"url":"text","valueString":"Not Hispanic or Latino"}]}],"identifier":[{"type":{"coding":[{"system":"http://terminology.hl7.org/CodeSystem/v2-0203","code":"MR"}]},"system":"https://bonnie-fhir.healthit.gov/","value":"60f82c2e98086b570510e266"}],"active":true,"name":[{"use":"usual","family":"DENEXPass","given":["CMP=1Day_DuringEncIP"]}],"gender":"female","birthDate":"1975-09-26"},"request":{"method":"PUT","url":"Patient/8873f644-9b17-4ee1-9152-8c77c7374bd1"}},{"fullUrl":"https://madie.cms.gov/Encounter/5c954892b848462de0ae61eb","resource":{"resourceType":"Encounter","id":"aeef2014-01c2-4aff-9017-1114b8339ca0","meta":{"profile":["http://hl7.org/fhir/us/qicore/StructureDefinition/qicore-encounter"]},"status":"finished","class":{"system":"http://terminology.hl7.org/CodeSystem/v3-ActCode","code":"EMER","display":"emergency","userSelected":true},"type":[{"coding":[{"system":"http://snomed.info/sct","code":"4525004"}]}],"subject":{"reference":"Patient/8873f644-9b17-4ee1-9152-8c77c7374bd1"},"period":{"start":"2025-10-10T04:00:00+00:00","end":"2025-10-10T06:15:00+00:00"},"length":{"value":0,"unit":"days"}},"request":{"method":"PUT","url":"Encounter/aeef2014-01c2-4aff-9017-1114b8339ca0"}},{"fullUrl":"https://madie.cms.gov/Encounter/5c954892b848462de0ae61ec","resource":{"resourceType":"Encounter","id":"51f05615-0c3b-4fdc-911f-a29b2309472d","meta":{"profile":["http://hl7.org/fhir/us/qicore/StructureDefinition/qicore-encounter"]},"status":"finished","class":{"system":"http://terminology.hl7.org/CodeSystem/v3-ActCode","code":"IMP","display":"inpatient encounter","userSelected":true},"type":[{"coding":[{"system":"http://snomed.info/sct","code":"32485007"}]}],"subject":{"reference":"Patient/8873f644-9b17-4ee1-9152-8c77c7374bd1"},"period":{"start":"2025-10-10T06:16:00+00:00","end":"2025-10-12T06:31:00+00:00"},"length":{"value":2,"unit":"days"},"diagnosis":[{"condition":{"reference":"Condition/ischemic-stroke-8a9d"},"use":{"coding":[{"system":"http://terminology.hl7.org/CodeSystem/diagnosis-role","code":"billing","display":"Billing"}]},"rank":1}]},"request":{"method":"PUT","url":"Encounter/51f05615-0c3b-4fdc-911f-a29b2309472d"}},{"fullUrl":"https://madie.cms.gov/Procedure/5c954892b848462de0ae61ee","resource":{"resourceType":"Procedure","id":"02aed151-d36d-4a40-abc4-19f76d030075","meta":{"profile":["http://hl7.org/fhir/us/qicore/StructureDefinition/qicore-procedure"]},"extension":[{"url":"http://hl7.org/fhir/us/qicore/StructureDefinition/qicore-recorded","valueDateTime":"2025-11-19T09:35:00-04:00"}],"status":"completed","code":{"coding":[{"system":"http://snomed.info/sct","code":"133918004"}]},"subject":{"reference":"Patient/8873f644-9b17-4ee1-9152-8c77c7374bd1"},"performedPeriod":{"start":"2025-10-11T23:59:00+00:00"}},"request":{"method":"PUT","url":"Procedure/02aed151-d36d-4a40-abc4-19f76d030075"}},{"fullUrl":"https://madie.cms.gov/Coverage/5e20a3681c76ba6c5896ebc9","resource":{"resourceType":"Coverage","id":"d8a67570-d475-4d93-ad7e-f35b75bb278c","status":"active","beneficiary":{"reference":"Patient/8873f644-9b17-4ee1-9152-8c77c7374bd1"},"period":{"start":"1975-09-26T08:00:00+00:00"},"payor":[{"reference":"Organization/4b5a882f-1f43-485c-85c6-f5ad2337d5b1"}]},"request":{"method":"PUT","url":"Coverage/d8a67570-d475-4d93-ad7e-f35b75bb278c"}},{"fullUrl":"https://madie.cms.gov/Condition/ischemic-stroke-8a9d","resource":{"resourceType":"Condition","id":"3ff20db6-7f24-47a9-83de-0c1bfd0a1684","meta":{"profile":["http://hl7.org/fhir/us/qicore/StructureDefinition/qicore-condition"]},"clinicalStatus":{"coding":[{"system":"http://terminology.hl7.org/CodeSystem/condition-clinical","code":"active"}]},"verificationStatus":{"coding":[{"system":"http://terminology.hl7.org/CodeSystem/condition-ver-status","code":"confirmed"}]},"category":[{"coding":[{"system":"http://terminology.hl7.org/CodeSystem/condition-category","code":"encounter-diagnosis","display":"Encounter Diagnosis"}]}],"code":{"coding":[{"system":"http://snomed.info/sct","version":"2020-09","code":"111297002","display":"Nonparalytic stroke (disorder)","userSelected":true}]},"subject":{"reference":"Patient/8873f644-9b17-4ee1-9152-8c77c7374bd1"},"recordedDate":"2025-08-13T08:00:00.000+00:00"},"request":{"method":"PUT","url":"Condition/3ff20db6-7f24-47a9-83de-0c1bfd0a1684"}},{"fullUrl":"https://madie.cms.gov/Organization/123456","resource":{"resourceType":"Organization","id":"4b5a882f-1f43-485c-85c6-f5ad2337d5b1","meta":{"profile":["http://hl7.org/fhir/us/qicore/StructureDefinition/qicore-organization"]},"identifier":[{"use":"temp","system":"urn:oid:2.16.840.1.113883.4.4","value":"21-3259825"}],"active":true,"type":[{"coding":[{"system":"http://terminology.hl7.org/CodeSystem/organization-type","code":"pay","display":"Payer"}]}],"name":"Blue Cross Blue Shield of Texas","telecom":[{"system":"phone","value":"(+1) 972-766-6900"}],"address":[{"use":"billing","type":"postal","line":["P.O. Box 660044"],"city":"Dallas","state":"TX","postalCode":"75266-0044","country":"USA"}]},"request":{"method":"PUT","url":"Organization/4b5a882f-1f43-485c-85c6-f5ad2337d5b1"}},{"fullUrl":"https://madie.cms.gov/MeasureReport/f3b34239-be71-4a6b-87e0-39c759926c52","resource":{"resourceType":"MeasureReport","id":"f3b34239-be71-4a6b-87e0-39c759926c52","meta":{"profile":["http://hl7.org/fhir/us/cqfmeasures/StructureDefinition/test-case-cqfm"]},"contained":[{"resourceType":"Parameters","id":"5340a164-3f26-4895-a48f-6e17dd8c9b1f-parameters","parameter":[{"name":"subject","valueString":"8873f644-9b17-4ee1-9152-8c77c7374bd1"}]}],"extension":[{"url":"http://hl7.org/fhir/us/cqfmeasures/StructureDefinition/cqfm-inputParameters","valueReference":{"reference":"#5340a164-3f26-4895-a48f-6e17dd8c9b1f-parameters"}},{"url":"http://hl7.org/fhir/us/cqfmeasures/StructureDefinition/cqfm-testCaseDescription","valueMarkdown":"Patient receives comfort measures performed <= 1 (=1 day) day during IP encounter\n"}],"modifierExtension":[{"url":"http://hl7.org/fhir/us/cqfmeasures/StructureDefinition/cqfm-isTestCase","valueBoolean":true}],"status":"complete","type":"individual","measure":"https://madie.cms.gov/Measure/AntithromboticTherapyByEndofHospitalDay2FHIR","period":{"start":"2025-01-01","end":"2025-12-31"},"group":[{"population":[{"code":{"coding":[{"system":"http://terminology.hl7.org/CodeSystem/measure-population","code":"initial-population","display":"Initial Population"}]},"count":1},{"code":{"coding":[{"system":"http://terminology.hl7.org/CodeSystem/measure-population","code":"denominator","display":"Denominator"}]},"count":1},{"code":{"coding":[{"system":"http://terminology.hl7.org/CodeSystem/measure-population","code":"denominator-exclusion","display":"Denominator Exclusion"}]},"count":1},{"code":{"coding":[{"system":"http://terminology.hl7.org/CodeSystem/measure-population","code":"numerator","display":"Numerator"}]},"count":0},{"code":{"coding":[{"system":"http://terminology.hl7.org/CodeSystem/measure-population","code":"denominator-exception","display":"Denominator Exception"}]},"count":0}]}]},"request":{"method":"PUT","url":"MeasureReport/f3b34239-be71-4a6b-87e0-39c759926c52"}}]}