{"resourceType":"Bundle","id":"tests-77a6cd7b-4322-4c29-b248-64d8af106ce7-bundle","type":"transaction","entry":[{"fullUrl":"https://madie.cms.gov/Patient/77a6cd7b-4322-4c29-b248-64d8af106ce7","resource":{"resourceType":"Patient","id":"77a6cd7b-4322-4c29-b248-64d8af106ce7","meta":{"profile":["http://hl7.org/fhir/us/qicore/StructureDefinition/qicore-patient"]},"text":{"status":"generated","div":"<div xmlns=\"http://www.w3.org/1999/xhtml\"><div class=\"hapiHeaderText\">LOS=2Days_EDB4EncIP <b>DENEXFAIL </b></div><table class=\"hapiPropertyTable\"><tbody><tr><td>Identifier</td><td>be3adb57f2e68395a45087bbc450d773</td></tr><tr><td>Date of birth</td><td><span>21 August 1993</span></td></tr></tbody></table></div>"},"extension":[{"url":"http://hl7.org/fhir/us/core/StructureDefinition/us-core-race","extension":[{"url":"ombCategory","valueCoding":{"system":"urn:oid:2.16.840.1.113883.6.238","code":"1002-5","display":"American Indian or Alaska Native","userSelected":true}},{"url":"text","valueString":"American Indian or Alaska Native"}]},{"url":"http://hl7.org/fhir/us/core/StructureDefinition/us-core-ethnicity","extension":[{"url":"ombCategory","valueCoding":{"system":"urn:oid:2.16.840.1.113883.6.238","code":"2135-2","display":"Hispanic or Latino","userSelected":true}},{"url":"text","valueString":"Hispanic or Latino"}]}],"identifier":[{"type":{"coding":[{"system":"http://terminology.hl7.org/CodeSystem/v2-0203","code":"MR"}]},"system":"https://bonnie-fhir.healthit.gov/","value":"60f82c2d98086b570510e258"}],"active":true,"name":[{"use":"usual","family":"DENEXFail","given":["LOS=2Days_EDB4EncIP"]}],"gender":"male","birthDate":"1993-08-21"},"request":{"method":"PUT","url":"Patient/77a6cd7b-4322-4c29-b248-64d8af106ce7"}},{"fullUrl":"https://madie.cms.gov/Encounter/5c954892b848462de0ae61b9","resource":{"resourceType":"Encounter","id":"3dcae3cb-17d3-4223-bd40-831380be9fa6","meta":{"profile":["http://hl7.org/fhir/us/qicore/StructureDefinition/qicore-encounter"]},"status":"finished","class":{"system":"http://terminology.hl7.org/CodeSystem/v3-ActCode","code":"EMER","display":"emergency","userSelected":true},"type":[{"coding":[{"system":"http://snomed.info/sct","code":"4525004"}]}],"subject":{"reference":"Patient/77a6cd7b-4322-4c29-b248-64d8af106ce7"},"period":{"start":"2025-08-20T08:00:00+00:00","end":"2025-08-20T21:30:00+00:00"},"length":{"value":0,"unit":"days"}},"request":{"method":"PUT","url":"Encounter/3dcae3cb-17d3-4223-bd40-831380be9fa6"}},{"fullUrl":"https://madie.cms.gov/Encounter/5c954892b848462de0ae61ba","resource":{"resourceType":"Encounter","id":"67536608-b168-4ec7-93de-8079c171a042","meta":{"profile":["http://hl7.org/fhir/us/qicore/StructureDefinition/qicore-encounter"]},"status":"finished","class":{"system":"http://terminology.hl7.org/CodeSystem/v3-ActCode","code":"IMP","display":"inpatient encounter","userSelected":true},"type":[{"coding":[{"system":"http://snomed.info/sct","code":"32485007"}]}],"subject":{"reference":"Patient/77a6cd7b-4322-4c29-b248-64d8af106ce7"},"period":{"start":"2025-08-20T22:00:00+00:00","end":"2025-08-22T12:00:00+00:00"},"length":{"value":2,"unit":"days"},"diagnosis":[{"condition":{"reference":"Condition/ischemic-stroke-8240"},"use":{"coding":[{"system":"http://terminology.hl7.org/CodeSystem/diagnosis-role","code":"billing","display":"Billing"}]},"rank":1}]},"request":{"method":"PUT","url":"Encounter/67536608-b168-4ec7-93de-8079c171a042"}},{"fullUrl":"https://madie.cms.gov/Coverage/5e20a3661c76ba6c5896ebbb","resource":{"resourceType":"Coverage","id":"23061501-47d3-4a13-a109-1f519c6a5dae","status":"active","beneficiary":{"reference":"Patient/77a6cd7b-4322-4c29-b248-64d8af106ce7"},"period":{"start":"1993-08-21T07:00:00+00:00"},"payor":[{"reference":"Organization/4b5a882f-1f43-485c-85c6-f5ad2337d5b1"}]},"request":{"method":"PUT","url":"Coverage/23061501-47d3-4a13-a109-1f519c6a5dae"}},{"fullUrl":"https://madie.cms.gov/Condition/ischemic-stroke-8240","resource":{"resourceType":"Condition","id":"cd549d6c-9c9e-4077-8261-94e90cd7767b","meta":{"profile":["http://hl7.org/fhir/us/qicore/StructureDefinition/qicore-condition"]},"clinicalStatus":{"coding":[{"system":"http://terminology.hl7.org/CodeSystem/condition-clinical","code":"active"}]},"verificationStatus":{"coding":[{"system":"http://terminology.hl7.org/CodeSystem/condition-ver-status","code":"confirmed"}]},"category":[{"coding":[{"system":"http://terminology.hl7.org/CodeSystem/condition-category","code":"encounter-diagnosis","display":"Encounter Diagnosis"}]}],"code":{"coding":[{"system":"http://snomed.info/sct","version":"2020-09","code":"111297002","display":"Nonparalytic stroke (disorder)","userSelected":true}]},"subject":{"reference":"Patient/77a6cd7b-4322-4c29-b248-64d8af106ce7"},"recordedDate":"2025-08-12T08:00:00.000+00:00"},"request":{"method":"PUT","url":"Condition/cd549d6c-9c9e-4077-8261-94e90cd7767b"}},{"fullUrl":"https://madie.cms.gov/Organization/123456","resource":{"resourceType":"Organization","id":"4b5a882f-1f43-485c-85c6-f5ad2337d5b1","meta":{"profile":["http://hl7.org/fhir/us/qicore/StructureDefinition/qicore-organization"]},"identifier":[{"use":"temp","system":"urn:oid:2.16.840.1.113883.4.4","value":"21-3259825"}],"active":true,"type":[{"coding":[{"system":"http://terminology.hl7.org/CodeSystem/organization-type","code":"pay","display":"Payer"}]}],"name":"Blue Cross Blue Shield of Texas","telecom":[{"system":"phone","value":"(+1) 972-766-6900"}],"address":[{"use":"billing","type":"postal","line":["P.O. Box 660044"],"city":"Dallas","state":"TX","postalCode":"75266-0044","country":"USA"}]},"request":{"method":"PUT","url":"Organization/4b5a882f-1f43-485c-85c6-f5ad2337d5b1"}},{"fullUrl":"https://madie.cms.gov/MeasureReport/6fe5b2ac-112d-4025-be6f-cb71fc3f3bc8","resource":{"resourceType":"MeasureReport","id":"6fe5b2ac-112d-4025-be6f-cb71fc3f3bc8","meta":{"profile":["http://hl7.org/fhir/us/cqfmeasures/StructureDefinition/test-case-cqfm"]},"contained":[{"resourceType":"Parameters","id":"1b366159-60f6-4f03-bbc4-66a4e757bfe7-parameters","parameter":[{"name":"subject","valueString":"77a6cd7b-4322-4c29-b248-64d8af106ce7"}]}],"extension":[{"url":"http://hl7.org/fhir/us/cqfmeasures/StructureDefinition/cqfm-inputParameters","valueReference":{"reference":"#1b366159-60f6-4f03-bbc4-66a4e757bfe7-parameters"}},{"url":"http://hl7.org/fhir/us/cqfmeasures/StructureDefinition/cqfm-testCaseDescription","valueMarkdown":"Patient has  ED Visit <= 1 hour ends before IP encounter and starts = 2 days before end of IP , global.Hospitalization ( = Ed +IP)\n"}],"modifierExtension":[{"url":"http://hl7.org/fhir/us/cqfmeasures/StructureDefinition/cqfm-isTestCase","valueBoolean":true}],"status":"complete","type":"individual","measure":"https://madie.cms.gov/Measure/AntithromboticTherapyByEndofHospitalDay2FHIR","period":{"start":"2025-01-01","end":"2025-12-31"},"group":[{"population":[{"code":{"coding":[{"system":"http://terminology.hl7.org/CodeSystem/measure-population","code":"initial-population","display":"Initial Population"}]},"count":1},{"code":{"coding":[{"system":"http://terminology.hl7.org/CodeSystem/measure-population","code":"denominator","display":"Denominator"}]},"count":1},{"code":{"coding":[{"system":"http://terminology.hl7.org/CodeSystem/measure-population","code":"denominator-exclusion","display":"Denominator Exclusion"}]},"count":0},{"code":{"coding":[{"system":"http://terminology.hl7.org/CodeSystem/measure-population","code":"numerator","display":"Numerator"}]},"count":0},{"code":{"coding":[{"system":"http://terminology.hl7.org/CodeSystem/measure-population","code":"denominator-exception","display":"Denominator Exception"}]},"count":0}]}]},"request":{"method":"PUT","url":"MeasureReport/6fe5b2ac-112d-4025-be6f-cb71fc3f3bc8"}}]}