{"resourceType":"Bundle","id":"tests-bbc87231-2ae5-495d-a99d-61c4f6d8a7dd-bundle","type":"transaction","entry":[{"fullUrl":"https://madie.cms.gov/Patient/bbc87231-2ae5-495d-a99d-61c4f6d8a7dd","resource":{"resourceType":"Patient","id":"bbc87231-2ae5-495d-a99d-61c4f6d8a7dd","meta":{"profile":["http://hl7.org/fhir/us/qicore/StructureDefinition/qicore-patient"]},"text":{"status":"generated","div":"<div xmlns=\"http://www.w3.org/1999/xhtml\"><div class=\"hapiHeaderText\">INR3HoursB4ED <b>DENEXCEPASS-LCG </b></div><table class=\"hapiPropertyTable\"><tbody><tr><td>Identifier</td><td>4544f9c471c2652e8cf28f7d498adb0102cf9aa43a574101f4daf3f05c2d1fab</td></tr><tr><td>Date of birth</td><td><span>26 September 1975</span></td></tr></tbody></table></div>"},"extension":[{"url":"http://hl7.org/fhir/us/core/StructureDefinition/us-core-race","extension":[{"url":"ombCategory","valueCoding":{"system":"urn:oid:2.16.840.1.113883.6.238","code":"2054-5","display":"Black or African American","userSelected":true}},{"url":"text","valueString":"Black or African American"}]},{"url":"http://hl7.org/fhir/us/core/StructureDefinition/us-core-ethnicity","extension":[{"url":"ombCategory","valueCoding":{"system":"urn:oid:2.16.840.1.113883.6.238","code":"2186-5","display":"Not Hispanic or Latino","userSelected":true}},{"url":"text","valueString":"Not Hispanic or Latino"}]}],"identifier":[{"type":{"coding":[{"system":"http://terminology.hl7.org/CodeSystem/v2-0203","code":"MR"}]},"system":"https://bonnie-fhir.healthit.gov/","value":"60f82c2f98086b570510e2c5"}],"active":true,"name":[{"use":"usual","family":"DENEXCEPass-LCG","given":["INR3HoursB4ED"]}],"gender":"female","birthDate":"1975-09-26"},"request":{"method":"PUT","url":"Patient/bbc87231-2ae5-495d-a99d-61c4f6d8a7dd"}},{"fullUrl":"https://madie.cms.gov/Encounter/5c954894b848462de0ae62e4","resource":{"resourceType":"Encounter","id":"ddb47776-d2e8-47ed-b9a9-6849ae2259e5","meta":{"profile":["http://hl7.org/fhir/us/qicore/StructureDefinition/qicore-encounter"]},"status":"finished","class":{"system":"http://terminology.hl7.org/CodeSystem/v3-ActCode","code":"EMER","display":"emergency","userSelected":true},"type":[{"coding":[{"system":"http://snomed.info/sct","code":"4525004"}]}],"subject":{"reference":"Patient/bbc87231-2ae5-495d-a99d-61c4f6d8a7dd"},"period":{"start":"2025-10-10T06:15:00+00:00","end":"2025-10-11T06:30:00+00:00"},"length":{"value":0,"unit":"days"}},"request":{"method":"PUT","url":"Encounter/ddb47776-d2e8-47ed-b9a9-6849ae2259e5"}},{"fullUrl":"https://madie.cms.gov/Encounter/5c954894b848462de0ae62e5","resource":{"resourceType":"Encounter","id":"e39c8c6d-c997-4e9d-b307-ff45bbf988c5","meta":{"profile":["http://hl7.org/fhir/us/qicore/StructureDefinition/qicore-encounter"]},"status":"finished","class":{"system":"http://terminology.hl7.org/CodeSystem/v3-ActCode","code":"OBSENC","display":"observation encounter","userSelected":true},"type":[{"coding":[{"system":"http://snomed.info/sct","code":"448951000124107"}]}],"subject":{"reference":"Patient/bbc87231-2ae5-495d-a99d-61c4f6d8a7dd"},"period":{"start":"2025-10-11T06:31:00+00:00","end":"2025-10-12T05:30:00+00:00"},"length":{"value":0,"unit":"days"}},"request":{"method":"PUT","url":"Encounter/e39c8c6d-c997-4e9d-b307-ff45bbf988c5"}},{"fullUrl":"https://madie.cms.gov/Encounter/5c954894b848462de0ae62e6","resource":{"resourceType":"Encounter","id":"01bcf728-685d-47fa-89ae-420d58d31626","meta":{"profile":["http://hl7.org/fhir/us/qicore/StructureDefinition/qicore-encounter"]},"status":"finished","class":{"system":"http://terminology.hl7.org/CodeSystem/v3-ActCode","code":"IMP","display":"inpatient encounter","userSelected":true},"type":[{"coding":[{"system":"http://snomed.info/sct","code":"32485007"}]}],"subject":{"reference":"Patient/bbc87231-2ae5-495d-a99d-61c4f6d8a7dd"},"period":{"start":"2025-10-12T05:31:00+00:00","end":"2025-10-15T11:30:00+00:00"},"length":{"value":3,"unit":"days"},"diagnosis":[{"condition":{"reference":"Condition/ischemic-stroke-9f22"},"use":{"coding":[{"system":"http://terminology.hl7.org/CodeSystem/diagnosis-role","code":"billing","display":"Billing"}]},"rank":1}]},"request":{"method":"PUT","url":"Encounter/01bcf728-685d-47fa-89ae-420d58d31626"}},{"fullUrl":"https://madie.cms.gov/Observation/5c954894b848462de0ae62e8","resource":{"resourceType":"Observation","id":"18faa2d6-512c-415c-97a6-8151bc29da2d","meta":{"profile":["http://hl7.org/fhir/us/qicore/StructureDefinition/qicore-observation"]},"status":"final","category":[{"coding":[{"system":"http://terminology.hl7.org/CodeSystem/observation-category","code":"laboratory","display":"Laboratory"}]}],"code":{"coding":[{"system":"http://loinc.org","code":"34714-6"}]},"subject":{"reference":"Patient/bbc87231-2ae5-495d-a99d-61c4f6d8a7dd"},"effectivePeriod":{"start":"2025-10-10T03:00:00+00:00"},"issued":"2025-10-10T03:00:00.000+00:00","valueQuantity":{"value":3.8}},"request":{"method":"PUT","url":"Observation/18faa2d6-512c-415c-97a6-8151bc29da2d"}},{"fullUrl":"https://madie.cms.gov/Condition/ischemic-stroke-9f22","resource":{"resourceType":"Condition","id":"a224a23f-18e7-4fb1-afaa-830cec704511","meta":{"profile":["http://hl7.org/fhir/us/qicore/StructureDefinition/qicore-condition"]},"clinicalStatus":{"coding":[{"system":"http://terminology.hl7.org/CodeSystem/condition-clinical","code":"active"}]},"verificationStatus":{"coding":[{"system":"http://terminology.hl7.org/CodeSystem/condition-ver-status","code":"confirmed"}]},"category":[{"coding":[{"system":"http://terminology.hl7.org/CodeSystem/condition-category","code":"encounter-diagnosis","display":"Encounter Diagnosis"}]}],"code":{"coding":[{"system":"http://snomed.info/sct","version":"2020-09","code":"111297002","display":"Nonparalytic stroke (disorder)","userSelected":true}]},"subject":{"reference":"Patient/bbc87231-2ae5-495d-a99d-61c4f6d8a7dd"},"recordedDate":"2025-08-06T08:00:00.000+00:00"},"request":{"method":"PUT","url":"Condition/a224a23f-18e7-4fb1-afaa-830cec704511"}},{"fullUrl":"https://madie.cms.gov/Coverage/1","resource":{"resourceType":"Coverage","id":"34046a1e-8620-474e-82d7-40159ed850e0","meta":{"profile":["http://hl7.org/fhir/us/qicore/StructureDefinition/qicore-coverage"]},"status":"active","beneficiary":{"reference":"Patient/bbc87231-2ae5-495d-a99d-61c4f6d8a7dd"},"payor":[{"reference":"Organization/4b5a882f-1f43-485c-85c6-f5ad2337d5b1"}]},"request":{"method":"PUT","url":"Coverage/34046a1e-8620-474e-82d7-40159ed850e0"}},{"fullUrl":"https://madie.cms.gov/Organization/123456","resource":{"resourceType":"Organization","id":"4b5a882f-1f43-485c-85c6-f5ad2337d5b1","meta":{"profile":["http://hl7.org/fhir/us/qicore/StructureDefinition/qicore-organization"]},"identifier":[{"use":"temp","system":"urn:oid:2.16.840.1.113883.4.4","value":"21-3259825"}],"active":true,"type":[{"coding":[{"system":"http://terminology.hl7.org/CodeSystem/organization-type","code":"pay","display":"Payer"}]}],"name":"Blue Cross Blue Shield of Texas","telecom":[{"system":"phone","value":"(+1) 972-766-6900"}],"address":[{"use":"billing","type":"postal","line":["P.O. Box 660044"],"city":"Dallas","state":"TX","postalCode":"75266-0044","country":"USA"}]},"request":{"method":"PUT","url":"Organization/4b5a882f-1f43-485c-85c6-f5ad2337d5b1"}},{"fullUrl":"https://madie.cms.gov/MeasureReport/017bd1d7-dee2-4c99-b7b3-c3770aadda8a","resource":{"resourceType":"MeasureReport","id":"017bd1d7-dee2-4c99-b7b3-c3770aadda8a","meta":{"profile":["http://hl7.org/fhir/us/cqfmeasures/StructureDefinition/test-case-cqfm"]},"contained":[{"resourceType":"Parameters","id":"47286f39-7b61-41a6-8452-7c9f02e48e0e-parameters","parameter":[{"name":"subject","valueString":"bbc87231-2ae5-495d-a99d-61c4f6d8a7dd"}]}],"extension":[{"url":"http://hl7.org/fhir/us/cqfmeasures/StructureDefinition/cqfm-inputParameters","valueReference":{"reference":"#47286f39-7b61-41a6-8452-7c9f02e48e0e-parameters"}},{"url":"http://hl7.org/fhir/us/cqfmeasures/StructureDefinition/cqfm-testCaseDescription","valueMarkdown":"INR 3 hours before ED Encounter. \n"}],"modifierExtension":[{"url":"http://hl7.org/fhir/us/cqfmeasures/StructureDefinition/cqfm-isTestCase","valueBoolean":true}],"status":"complete","type":"individual","measure":"https://madie.cms.gov/Measure/AntithromboticTherapyByEndofHospitalDay2FHIR","period":{"start":"2025-01-01","end":"2025-12-31"},"group":[{"population":[{"code":{"coding":[{"system":"http://terminology.hl7.org/CodeSystem/measure-population","code":"initial-population","display":"Initial Population"}]},"count":1},{"code":{"coding":[{"system":"http://terminology.hl7.org/CodeSystem/measure-population","code":"denominator","display":"Denominator"}]},"count":1},{"code":{"coding":[{"system":"http://terminology.hl7.org/CodeSystem/measure-population","code":"denominator-exclusion","display":"Denominator Exclusion"}]},"count":0},{"code":{"coding":[{"system":"http://terminology.hl7.org/CodeSystem/measure-population","code":"numerator","display":"Numerator"}]},"count":0},{"code":{"coding":[{"system":"http://terminology.hl7.org/CodeSystem/measure-population","code":"denominator-exception","display":"Denominator Exception"}]},"count":1}]}]},"request":{"method":"PUT","url":"MeasureReport/017bd1d7-dee2-4c99-b7b3-c3770aadda8a"}}]}