{"resourceType":"Bundle","id":"tests-64a75df8-8bed-49ea-9c90-ee3569d233df-bundle","type":"transaction","entry":[{"fullUrl":"https://madie.cms.gov/Patient/64a75df8-8bed-49ea-9c90-ee3569d233df","resource":{"resourceType":"Patient","id":"64a75df8-8bed-49ea-9c90-ee3569d233df","meta":{"profile":["http://hl7.org/fhir/us/qicore/StructureDefinition/qicore-patient"]},"text":{"status":"generated","div":"<div xmlns=\"http://www.w3.org/1999/xhtml\"><div class=\"hapiHeaderText\">NUMPass_MedAntithromboticStart_eq0dayDuringEd <b>NUMERPASS </b></div><table class=\"hapiPropertyTable\"><tbody><tr><td>Identifier</td><td>c83f9793e1392fa468cc0a3c0c4bf7d9</td></tr><tr><td>Date of birth</td><td><span>26 September 1975</span></td></tr></tbody></table></div>"},"extension":[{"url":"http://hl7.org/fhir/us/core/StructureDefinition/us-core-race","extension":[{"url":"ombCategory","valueCoding":{"system":"urn:oid:2.16.840.1.113883.6.238","code":"2054-5","display":"Black or African American","userSelected":true}},{"url":"text","valueString":"Black or African American"}]},{"url":"http://hl7.org/fhir/us/core/StructureDefinition/us-core-ethnicity","extension":[{"url":"ombCategory","valueCoding":{"system":"urn:oid:2.16.840.1.113883.6.238","code":"2186-5","display":"Not Hispanic or Latino","userSelected":true}},{"url":"text","valueString":"Not Hispanic or Latino"}]}],"identifier":[{"type":{"coding":[{"system":"http://terminology.hl7.org/CodeSystem/v2-0203","code":"MR"}]},"system":"https://bonnie-fhir.healthit.gov/","value":"60f82c2d98086b570510e246"}],"active":true,"name":[{"use":"usual","family":"NUMERPass","given":["NUMPass_MedAntithromboticStart_eq0dayDuringEd"]}],"gender":"female","birthDate":"1975-09-26"},"request":{"method":"PUT","url":"Patient/64a75df8-8bed-49ea-9c90-ee3569d233df"}},{"fullUrl":"https://madie.cms.gov/Encounter/5c954891b848462de0ae6193","resource":{"resourceType":"Encounter","id":"43c924bd-da6a-45ff-8f85-7b9594855996","meta":{"profile":["http://hl7.org/fhir/us/qicore/StructureDefinition/qicore-encounter"]},"status":"finished","class":{"system":"http://terminology.hl7.org/CodeSystem/v3-ActCode","code":"EMER","display":"emergency"},"type":[{"coding":[{"system":"http://snomed.info/sct","code":"4525004"}]}],"subject":{"reference":"Patient/64a75df8-8bed-49ea-9c90-ee3569d233df"},"period":{"start":"2025-10-10T08:00:00+00:00","end":"2025-10-10T08:15:00+00:00"},"length":{"value":0,"unit":"days"}},"request":{"method":"PUT","url":"Encounter/43c924bd-da6a-45ff-8f85-7b9594855996"}},{"fullUrl":"https://madie.cms.gov/Encounter/5c954891b848462de0ae6194","resource":{"resourceType":"Encounter","id":"a79335fd-708d-4ee0-8934-727966a38082","meta":{"profile":["http://hl7.org/fhir/us/qicore/StructureDefinition/qicore-encounter"]},"status":"finished","class":{"system":"http://terminology.hl7.org/CodeSystem/v3-ActCode","code":"IMP","display":"inpatient encounter"},"type":[{"coding":[{"system":"http://snomed.info/sct","code":"32485007"}]}],"subject":{"reference":"Patient/64a75df8-8bed-49ea-9c90-ee3569d233df"},"period":{"start":"2025-10-10T09:00:00+00:00","end":"2025-10-12T11:15:00+00:00"},"length":{"value":2,"unit":"days"},"diagnosis":[{"condition":{"reference":"Condition/ischemic-stroke-7d66"},"use":{"coding":[{"system":"http://terminology.hl7.org/CodeSystem/diagnosis-role","code":"billing","display":"Billing"}]},"rank":1}]},"request":{"method":"PUT","url":"Encounter/a79335fd-708d-4ee0-8934-727966a38082"}},{"fullUrl":"https://madie.cms.gov/MedicationAdministration/5c954891b848462de0ae6196","resource":{"resourceType":"MedicationAdministration","id":"98d9abc3-636c-47f3-9417-f9a2d145e3b4","meta":{"profile":["http://hl7.org/fhir/us/qicore/StructureDefinition/qicore-medicationadministration"]},"status":"completed","medicationCodeableConcept":{"coding":[{"system":"http://www.nlm.nih.gov/research/umls/rxnorm","code":"1037045"}]},"subject":{"reference":"Patient/64a75df8-8bed-49ea-9c90-ee3569d233df"},"effectivePeriod":{"start":"2025-10-10T08:01:00+00:00","end":"2025-10-10T08:45:00+00:00"}},"request":{"method":"PUT","url":"MedicationAdministration/98d9abc3-636c-47f3-9417-f9a2d145e3b4"}},{"fullUrl":"https://madie.cms.gov/Coverage/5e20a3641c76ba6c5896eba9","resource":{"resourceType":"Coverage","id":"32248c64-70d6-4a72-8bb4-30927c9e691a","status":"active","beneficiary":{"reference":"Patient/64a75df8-8bed-49ea-9c90-ee3569d233df"},"period":{"start":"1975-09-26T08:00:00+00:00"},"payor":[{"reference":"Organization/4b5a882f-1f43-485c-85c6-f5ad2337d5b1"}]},"request":{"method":"PUT","url":"Coverage/32248c64-70d6-4a72-8bb4-30927c9e691a"}},{"fullUrl":"https://madie.cms.gov/Condition/ischemic-stroke-7d66","resource":{"resourceType":"Condition","id":"2645ee67-0e4a-48ef-8fed-7d7dfcae648e","meta":{"profile":["http://hl7.org/fhir/us/qicore/StructureDefinition/qicore-condition"]},"clinicalStatus":{"coding":[{"system":"http://terminology.hl7.org/CodeSystem/condition-clinical","code":"active"}]},"verificationStatus":{"coding":[{"system":"http://terminology.hl7.org/CodeSystem/condition-ver-status","code":"confirmed"}]},"category":[{"coding":[{"system":"http://terminology.hl7.org/CodeSystem/condition-category","code":"encounter-diagnosis","display":"Encounter Diagnosis"}]}],"code":{"coding":[{"system":"http://snomed.info/sct","version":"2020-09","code":"111297002","display":"Nonparalytic stroke (disorder)","userSelected":true}]},"subject":{"reference":"Patient/64a75df8-8bed-49ea-9c90-ee3569d233df"},"recordedDate":"2025-08-16T08:00:00.000+00:00"},"request":{"method":"PUT","url":"Condition/2645ee67-0e4a-48ef-8fed-7d7dfcae648e"}},{"fullUrl":"https://madie.cms.gov/Organization/123456","resource":{"resourceType":"Organization","id":"4b5a882f-1f43-485c-85c6-f5ad2337d5b1","meta":{"profile":["http://hl7.org/fhir/us/qicore/StructureDefinition/qicore-organization"]},"identifier":[{"use":"temp","system":"urn:oid:2.16.840.1.113883.4.4","value":"21-3259825"}],"active":true,"type":[{"coding":[{"system":"http://terminology.hl7.org/CodeSystem/organization-type","code":"pay","display":"Payer"}]}],"name":"Blue Cross Blue Shield of Texas","telecom":[{"system":"phone","value":"(+1) 972-766-6900"}],"address":[{"use":"billing","type":"postal","line":["P.O. Box 660044"],"city":"Dallas","state":"TX","postalCode":"75266-0044","country":"USA"}]},"request":{"method":"PUT","url":"Organization/4b5a882f-1f43-485c-85c6-f5ad2337d5b1"}},{"fullUrl":"https://madie.cms.gov/Practitioner/practitioner-123456","resource":{"resourceType":"Practitioner","id":"0146533c-5914-4d64-9004-664ec75f5d17","identifier":[{"system":"http://hl7.org/fhir/sid/us-npi","value":"123456"}],"name":[{"family":"Evil","prefix":["Dr"]}]},"request":{"method":"PUT","url":"Practitioner/0146533c-5914-4d64-9004-664ec75f5d17"}},{"fullUrl":"https://madie.cms.gov/MeasureReport/1839459e-4785-4a93-87c5-e4f9dc25c354","resource":{"resourceType":"MeasureReport","id":"1839459e-4785-4a93-87c5-e4f9dc25c354","meta":{"profile":["http://hl7.org/fhir/us/cqfmeasures/StructureDefinition/test-case-cqfm"]},"contained":[{"resourceType":"Parameters","id":"78eda5d8-cc74-4dc3-a4ee-8319e5803eee-parameters","parameter":[{"name":"subject","valueString":"64a75df8-8bed-49ea-9c90-ee3569d233df"}]}],"extension":[{"url":"http://hl7.org/fhir/us/cqfmeasures/StructureDefinition/cqfm-inputParameters","valueReference":{"reference":"#78eda5d8-cc74-4dc3-a4ee-8319e5803eee-parameters"}},{"url":"http://hl7.org/fhir/us/cqfmeasures/StructureDefinition/cqfm-testCaseDescription","valueMarkdown":"\"Patient receives antithrombotic in the ED.MedAntithromboticStart EQ 0day DuringEd\nglobal.\"\"Hospitalization\"\" =(Ed+IP)\"\n"}],"modifierExtension":[{"url":"http://hl7.org/fhir/us/cqfmeasures/StructureDefinition/cqfm-isTestCase","valueBoolean":true}],"status":"complete","type":"individual","measure":"https://madie.cms.gov/Measure/AntithromboticTherapyByEndofHospitalDay2FHIR","period":{"start":"2025-01-01","end":"2025-12-31"},"group":[{"population":[{"code":{"coding":[{"system":"http://terminology.hl7.org/CodeSystem/measure-population","code":"initial-population","display":"Initial Population"}]},"count":1},{"code":{"coding":[{"system":"http://terminology.hl7.org/CodeSystem/measure-population","code":"denominator","display":"Denominator"}]},"count":1},{"code":{"coding":[{"system":"http://terminology.hl7.org/CodeSystem/measure-population","code":"denominator-exclusion","display":"Denominator Exclusion"}]},"count":0},{"code":{"coding":[{"system":"http://terminology.hl7.org/CodeSystem/measure-population","code":"numerator","display":"Numerator"}]},"count":1},{"code":{"coding":[{"system":"http://terminology.hl7.org/CodeSystem/measure-population","code":"denominator-exception","display":"Denominator Exception"}]},"count":0}]}]},"request":{"method":"PUT","url":"MeasureReport/1839459e-4785-4a93-87c5-e4f9dc25c354"}}]}