{"resourceType":"Bundle","id":"tests-e0286677-4610-4138-b9fe-3ed648ed45f8-bundle","type":"transaction","entry":[{"fullUrl":"https://madie.cms.gov/Patient/e0286677-4610-4138-b9fe-3ed648ed45f8","resource":{"resourceType":"Patient","id":"e0286677-4610-4138-b9fe-3ed648ed45f8","meta":{"profile":["http://hl7.org/fhir/us/qicore/StructureDefinition/qicore-patient"]},"text":{"status":"generated","div":"<div xmlns=\"http://www.w3.org/1999/xhtml\"><div class=\"hapiHeaderText\">CustomCode <b>NUMERFAIL </b></div><table class=\"hapiPropertyTable\"><tbody><tr><td>Identifier</td><td>b369a681d6ea0d0e36f55c4f2fb13e64</td></tr><tr><td>Date of birth</td><td><span>21 August 1994</span></td></tr></tbody></table></div>"},"extension":[{"url":"http://hl7.org/fhir/us/core/StructureDefinition/us-core-race","extension":[{"url":"ombCategory","valueCoding":{"system":"urn:oid:2.16.840.1.113883.6.238","code":"1002-5","display":"American Indian or Alaska Native","userSelected":true}},{"url":"text","valueString":"American Indian or Alaska Native"}]},{"url":"http://hl7.org/fhir/us/core/StructureDefinition/us-core-ethnicity","extension":[{"url":"ombCategory","valueCoding":{"system":"urn:oid:2.16.840.1.113883.6.238","code":"2186-5","display":"Not Hispanic or Latino","userSelected":true}},{"url":"text","valueString":"Not Hispanic or Latino"}]}],"identifier":[{"type":{"coding":[{"system":"http://terminology.hl7.org/CodeSystem/v2-0203","code":"MR"}]},"system":"https://bonnie-fhir.healthit.gov/","value":"60f82c2e98086b570510e28c"}],"active":true,"name":[{"use":"usual","family":"NUMERFail","given":["CustomCode"]}],"gender":"male","birthDate":"1994-08-21"},"request":{"method":"PUT","url":"Patient/e0286677-4610-4138-b9fe-3ed648ed45f8"}},{"fullUrl":"https://madie.cms.gov/Encounter/5c954893b848462de0ae6268","resource":{"resourceType":"Encounter","id":"7b5b5faf-2eca-4a29-b8b9-be756d0238a7","meta":{"profile":["http://hl7.org/fhir/us/qicore/StructureDefinition/qicore-encounter"]},"status":"finished","class":{"system":"http://terminology.hl7.org/CodeSystem/v3-ActCode","code":"IMP","display":"inpatient encounter"},"type":[{"coding":[{"system":"http://snomed.info/sct","code":"32485007"}]}],"subject":{"reference":"Patient/e0286677-4610-4138-b9fe-3ed648ed45f8"},"period":{"start":"2025-10-10T09:30:00+00:00","end":"2025-10-12T10:30:00+00:00"},"length":{"value":2,"unit":"days"},"diagnosis":[{"condition":{"reference":"Condition/ischemic-stroke-7d5b"},"use":{"coding":[{"system":"http://terminology.hl7.org/CodeSystem/diagnosis-role","code":"billing","display":"Billing"}]},"rank":1}]},"request":{"method":"PUT","url":"Encounter/7b5b5faf-2eca-4a29-b8b9-be756d0238a7"}},{"fullUrl":"https://madie.cms.gov/MedicationAdministration/5c954893b848462de0ae626a","resource":{"resourceType":"MedicationAdministration","id":"7538ceed-b93a-4f13-a7b8-9f4c6c38d5b1","meta":{"profile":["http://hl7.org/fhir/us/qicore/StructureDefinition/qicore-medicationadministration"]},"status":"completed","medicationCodeableConcept":{"coding":[{"system":"http://www.nlm.nih.gov/research/umls/rxnorm","code":"1006608"}]},"subject":{"reference":"Patient/e0286677-4610-4138-b9fe-3ed648ed45f8"},"effectivePeriod":{"start":"2025-10-10T10:00:00+00:00","end":"2025-10-10T11:15:00+00:00"}},"request":{"method":"PUT","url":"MedicationAdministration/7538ceed-b93a-4f13-a7b8-9f4c6c38d5b1"}},{"fullUrl":"https://madie.cms.gov/Coverage/5e20a36d1c76ba6c5896ebef","resource":{"resourceType":"Coverage","id":"726d36e3-5b72-4481-a044-e6546883c8d8","status":"active","beneficiary":{"reference":"Patient/e0286677-4610-4138-b9fe-3ed648ed45f8"},"period":{"start":"1994-08-21T08:00:00+00:00"},"payor":[{"reference":"Organization/4b5a882f-1f43-485c-85c6-f5ad2337d5b1"}]},"request":{"method":"PUT","url":"Coverage/726d36e3-5b72-4481-a044-e6546883c8d8"}},{"fullUrl":"https://madie.cms.gov/Condition/ischemic-stroke-7d5b","resource":{"resourceType":"Condition","id":"e1f68272-25a1-4dbe-9501-8b4479ec9212","meta":{"profile":["http://hl7.org/fhir/us/qicore/StructureDefinition/qicore-condition"]},"clinicalStatus":{"coding":[{"system":"http://terminology.hl7.org/CodeSystem/condition-clinical","code":"active"}]},"verificationStatus":{"coding":[{"system":"http://terminology.hl7.org/CodeSystem/condition-ver-status","code":"confirmed"}]},"category":[{"coding":[{"system":"http://terminology.hl7.org/CodeSystem/condition-category","code":"encounter-diagnosis","display":"Encounter Diagnosis"}]}],"code":{"coding":[{"system":"http://snomed.info/sct","version":"2020-09","code":"111297002","display":"Nonparalytic stroke (disorder)","userSelected":true}]},"subject":{"reference":"Patient/e0286677-4610-4138-b9fe-3ed648ed45f8"},"recordedDate":"2025-08-16T08:00:00.000+00:00"},"request":{"method":"PUT","url":"Condition/e1f68272-25a1-4dbe-9501-8b4479ec9212"}},{"fullUrl":"https://madie.cms.gov/Organization/123456","resource":{"resourceType":"Organization","id":"4b5a882f-1f43-485c-85c6-f5ad2337d5b1","meta":{"profile":["http://hl7.org/fhir/us/qicore/StructureDefinition/qicore-organization"]},"identifier":[{"use":"temp","system":"urn:oid:2.16.840.1.113883.4.4","value":"21-3259825"}],"active":true,"type":[{"coding":[{"system":"http://terminology.hl7.org/CodeSystem/organization-type","code":"pay","display":"Payer"}]}],"name":"Blue Cross Blue Shield of Texas","telecom":[{"system":"phone","value":"(+1) 972-766-6900"}],"address":[{"use":"billing","type":"postal","line":["P.O. Box 660044"],"city":"Dallas","state":"TX","postalCode":"75266-0044","country":"USA"}]},"request":{"method":"PUT","url":"Organization/4b5a882f-1f43-485c-85c6-f5ad2337d5b1"}},{"fullUrl":"https://madie.cms.gov/Practitioner/practitioner-123456","resource":{"resourceType":"Practitioner","id":"b59d6c7b-4fd6-4857-8597-129b702adb5c","identifier":[{"system":"http://hl7.org/fhir/sid/us-npi","value":"123456"}],"name":[{"family":"Evil","prefix":["Dr"]}]},"request":{"method":"PUT","url":"Practitioner/b59d6c7b-4fd6-4857-8597-129b702adb5c"}},{"fullUrl":"https://madie.cms.gov/MeasureReport/eabc8359-a933-425c-b2b6-5b95e011a22a","resource":{"resourceType":"MeasureReport","id":"eabc8359-a933-425c-b2b6-5b95e011a22a","meta":{"profile":["http://hl7.org/fhir/us/cqfmeasures/StructureDefinition/test-case-cqfm"]},"contained":[{"resourceType":"Parameters","id":"12c264f0-d3b9-400b-821d-8c913db70b7b-parameters","parameter":[{"name":"subject","valueString":"e0286677-4610-4138-b9fe-3ed648ed45f8"}]}],"extension":[{"url":"http://hl7.org/fhir/us/cqfmeasures/StructureDefinition/cqfm-inputParameters","valueReference":{"reference":"#12c264f0-d3b9-400b-821d-8c913db70b7b-parameters"}},{"url":"http://hl7.org/fhir/us/cqfmeasures/StructureDefinition/cqfm-testCaseDescription","valueMarkdown":"Patient is 18 with Non-Elective Inpatient Encounter (LOS 120 days) with principal diagnosis of ischemic stroke ends during MP received medication not found in antithrombotic value set during IP encounter\n"}],"modifierExtension":[{"url":"http://hl7.org/fhir/us/cqfmeasures/StructureDefinition/cqfm-isTestCase","valueBoolean":true}],"status":"complete","type":"individual","measure":"https://madie.cms.gov/Measure/AntithromboticTherapyByEndofHospitalDay2FHIR","period":{"start":"2025-01-01","end":"2025-12-31"},"group":[{"population":[{"code":{"coding":[{"system":"http://terminology.hl7.org/CodeSystem/measure-population","code":"initial-population","display":"Initial Population"}]},"count":1},{"code":{"coding":[{"system":"http://terminology.hl7.org/CodeSystem/measure-population","code":"denominator","display":"Denominator"}]},"count":1},{"code":{"coding":[{"system":"http://terminology.hl7.org/CodeSystem/measure-population","code":"denominator-exclusion","display":"Denominator Exclusion"}]},"count":0},{"code":{"coding":[{"system":"http://terminology.hl7.org/CodeSystem/measure-population","code":"numerator","display":"Numerator"}]},"count":0},{"code":{"coding":[{"system":"http://terminology.hl7.org/CodeSystem/measure-population","code":"denominator-exception","display":"Denominator Exception"}]},"count":0}]}]},"request":{"method":"PUT","url":"MeasureReport/eabc8359-a933-425c-b2b6-5b95e011a22a"}}]}