{"resourceType":"Bundle","id":"tests-03ab1b9c-4476-4981-bd4c-6e444086f54f-bundle","type":"transaction","entry":[{"fullUrl":"https://madie.cms.gov/Patient/03ab1b9c-4476-4981-bd4c-6e444086f54f","resource":{"resourceType":"Patient","id":"03ab1b9c-4476-4981-bd4c-6e444086f54f","meta":{"profile":["http://hl7.org/fhir/us/qicore/StructureDefinition/qicore-patient"]},"text":{"status":"generated","div":"<div xmlns=\"http://www.w3.org/1999/xhtml\"><div class=\"hapiHeaderText\">XDayOfEnc_ED&lt;1hrObs&lt;1hrDayOfBFEncDayAft <b>DENEXCEPASS </b></div><table class=\"hapiPropertyTable\"><tbody><tr><td>Identifier</td><td>72b9bc20a0b1c4612a32f8ee7007ccbe128f0b6ceb904dbb635194780fcb7cb4</td></tr><tr><td>Date of birth</td><td><span>26 September 1975</span></td></tr></tbody></table></div>"},"extension":[{"url":"http://hl7.org/fhir/us/core/StructureDefinition/us-core-race","extension":[{"url":"ombCategory","valueCoding":{"system":"urn:oid:2.16.840.1.113883.6.238","code":"1002-5","display":"American Indian or Alaska Native","userSelected":true}},{"url":"text","valueString":"American Indian or Alaska Native"}]},{"url":"http://hl7.org/fhir/us/core/StructureDefinition/us-core-ethnicity","extension":[{"url":"ombCategory","valueCoding":{"system":"urn:oid:2.16.840.1.113883.6.238","code":"2135-2","display":"Hispanic or Latino","userSelected":true}},{"url":"text","valueString":"Hispanic or Latino"}]}],"identifier":[{"type":{"coding":[{"system":"http://terminology.hl7.org/CodeSystem/v2-0203","code":"MR"}]},"system":"https://bonnie-fhir.healthit.gov/","value":"60f82c2f98086b570510e2a9"}],"active":true,"name":[{"use":"usual","family":"DENEXCEPass","given":["XDayOfEnc_ED<1hrObs<1hrDayOfBFEncDayAft"]}],"gender":"female","birthDate":"1975-09-26"},"request":{"method":"PUT","url":"Patient/03ab1b9c-4476-4981-bd4c-6e444086f54f"}},{"fullUrl":"https://madie.cms.gov/Encounter/5c954894b848462de0ae62d2","resource":{"resourceType":"Encounter","id":"0ad711ea-df0c-4062-8631-b9bb128631de","meta":{"profile":["http://hl7.org/fhir/us/qicore/StructureDefinition/qicore-encounter"]},"status":"finished","class":{"system":"http://terminology.hl7.org/CodeSystem/v3-ActCode","code":"EMER","display":"emergency","userSelected":true},"type":[{"coding":[{"system":"http://snomed.info/sct","code":"4525004"}]}],"subject":{"reference":"Patient/03ab1b9c-4476-4981-bd4c-6e444086f54f"},"period":{"start":"2025-10-11T06:15:00+00:00","end":"2025-10-11T06:30:00+00:00"},"length":{"value":0,"unit":"days"}},"request":{"method":"PUT","url":"Encounter/0ad711ea-df0c-4062-8631-b9bb128631de"}},{"fullUrl":"https://madie.cms.gov/Encounter/5c954894b848462de0ae62d3","resource":{"resourceType":"Encounter","id":"e21575f6-fccf-4999-b4f6-02ff8ad13015","meta":{"profile":["http://hl7.org/fhir/us/qicore/StructureDefinition/qicore-encounter"]},"status":"finished","class":{"system":"http://terminology.hl7.org/CodeSystem/v3-ActCode","code":"OBSENC","display":"observation encounter","userSelected":true},"type":[{"coding":[{"system":"http://snomed.info/sct","code":"448851000124103"}]}],"subject":{"reference":"Patient/03ab1b9c-4476-4981-bd4c-6e444086f54f"},"period":{"start":"2025-10-11T06:31:00+00:00","end":"2025-10-11T23:59:00+00:00"},"length":{"value":0,"unit":"days"}},"request":{"method":"PUT","url":"Encounter/e21575f6-fccf-4999-b4f6-02ff8ad13015"}},{"fullUrl":"https://madie.cms.gov/Encounter/5c954894b848462de0ae62d4","resource":{"resourceType":"Encounter","id":"55023378-5bfc-454e-9f80-e694962c7136","meta":{"profile":["http://hl7.org/fhir/us/qicore/StructureDefinition/qicore-encounter"]},"status":"finished","class":{"system":"http://terminology.hl7.org/CodeSystem/v3-ActCode","code":"IMP","display":"inpatient encounter","userSelected":true},"type":[{"coding":[{"system":"http://snomed.info/sct","code":"32485007"}]}],"subject":{"reference":"Patient/03ab1b9c-4476-4981-bd4c-6e444086f54f"},"period":{"start":"2025-10-12T00:00:00+00:00","end":"2025-10-15T11:30:00+00:00"},"length":{"value":3,"unit":"days"},"diagnosis":[{"condition":{"reference":"Condition/ischemic-stroke-9f21"},"use":{"coding":[{"system":"http://terminology.hl7.org/CodeSystem/diagnosis-role","code":"billing","display":"Billing"}]},"rank":1}]},"request":{"method":"PUT","url":"Encounter/55023378-5bfc-454e-9f80-e694962c7136"}},{"fullUrl":"https://madie.cms.gov/Observation/5c954894b848462de0ae62d6","resource":{"resourceType":"Observation","id":"eeb5e1c8-a7b1-453c-a855-684deb08d684","meta":{"profile":["http://hl7.org/fhir/us/qicore/StructureDefinition/qicore-observation"]},"status":"final","category":[{"coding":[{"system":"http://terminology.hl7.org/CodeSystem/observation-category","code":"laboratory","display":"Laboratory"}]}],"code":{"coding":[{"system":"http://loinc.org","code":"34714-6"}]},"subject":{"reference":"Patient/03ab1b9c-4476-4981-bd4c-6e444086f54f"},"effectivePeriod":{"start":"2025-10-10T06:14:00+00:00"},"issued":"2025-10-12T00:00:00.000+00:00","valueQuantity":{"value":3.6}},"request":{"method":"PUT","url":"Observation/eeb5e1c8-a7b1-453c-a855-684deb08d684"}},{"fullUrl":"https://madie.cms.gov/Coverage/5e20a3701c76ba6c5896ec0c","resource":{"resourceType":"Coverage","id":"3f87f07c-19ff-40fc-9785-deaede2a3e68","status":"active","beneficiary":{"reference":"Patient/03ab1b9c-4476-4981-bd4c-6e444086f54f"},"period":{"start":"1975-09-26T08:00:00+00:00"},"payor":[{"reference":"Organization/4b5a882f-1f43-485c-85c6-f5ad2337d5b1"}]},"request":{"method":"PUT","url":"Coverage/3f87f07c-19ff-40fc-9785-deaede2a3e68"}},{"fullUrl":"https://madie.cms.gov/Condition/ischemic-stroke-9f21","resource":{"resourceType":"Condition","id":"2cb308a6-84cd-437c-990c-3301511fee90","meta":{"profile":["http://hl7.org/fhir/us/qicore/StructureDefinition/qicore-condition"]},"clinicalStatus":{"coding":[{"system":"http://terminology.hl7.org/CodeSystem/condition-clinical","code":"active"}]},"verificationStatus":{"coding":[{"system":"http://terminology.hl7.org/CodeSystem/condition-ver-status","code":"confirmed"}]},"category":[{"coding":[{"system":"http://terminology.hl7.org/CodeSystem/condition-category","code":"encounter-diagnosis","display":"Encounter Diagnosis"}]}],"code":{"coding":[{"system":"http://snomed.info/sct","version":"2020-09","code":"111297002","display":"Nonparalytic stroke (disorder)","userSelected":true}]},"subject":{"reference":"Patient/03ab1b9c-4476-4981-bd4c-6e444086f54f"},"recordedDate":"2025-08-06T08:00:00.000+00:00"},"request":{"method":"PUT","url":"Condition/2cb308a6-84cd-437c-990c-3301511fee90"}},{"fullUrl":"https://madie.cms.gov/Organization/123456","resource":{"resourceType":"Organization","id":"4b5a882f-1f43-485c-85c6-f5ad2337d5b1","meta":{"profile":["http://hl7.org/fhir/us/qicore/StructureDefinition/qicore-organization"]},"identifier":[{"use":"temp","system":"urn:oid:2.16.840.1.113883.4.4","value":"21-3259825"}],"active":true,"type":[{"coding":[{"system":"http://terminology.hl7.org/CodeSystem/organization-type","code":"pay","display":"Payer"}]}],"name":"Blue Cross Blue Shield of Texas","telecom":[{"system":"phone","value":"(+1) 972-766-6900"}],"address":[{"use":"billing","type":"postal","line":["P.O. Box 660044"],"city":"Dallas","state":"TX","postalCode":"75266-0044","country":"USA"}]},"request":{"method":"PUT","url":"Organization/4b5a882f-1f43-485c-85c6-f5ad2337d5b1"}},{"fullUrl":"https://madie.cms.gov/MeasureReport/c1e6934d-67df-4d26-a7a1-2af16f8fcc62","resource":{"resourceType":"MeasureReport","id":"c1e6934d-67df-4d26-a7a1-2af16f8fcc62","meta":{"profile":["http://hl7.org/fhir/us/cqfmeasures/StructureDefinition/test-case-cqfm"]},"contained":[{"resourceType":"Parameters","id":"d19054a8-eca5-445d-9fbc-b72535f3d954-parameters","parameter":[{"name":"subject","valueString":"03ab1b9c-4476-4981-bd4c-6e444086f54f"}]}],"extension":[{"url":"http://hl7.org/fhir/us/cqfmeasures/StructureDefinition/cqfm-inputParameters","valueReference":{"reference":"#d19054a8-eca5-445d-9fbc-b72535f3d954-parameters"}},{"url":"http://hl7.org/fhir/us/cqfmeasures/StructureDefinition/cqfm-testCaseDescription","valueMarkdown":"Patient receives INR after midnight, 1 day after IP start. ED ends 1 min before observation, Obs ends 1 min before IP start. IP starts at midnight the next day Testing Day of operator with HospitalizationWithObservation function.\n"}],"modifierExtension":[{"url":"http://hl7.org/fhir/us/cqfmeasures/StructureDefinition/cqfm-isTestCase","valueBoolean":true}],"status":"complete","type":"individual","measure":"https://madie.cms.gov/Measure/AntithromboticTherapyByEndofHospitalDay2FHIR","period":{"start":"2025-01-01","end":"2025-12-31"},"group":[{"population":[{"code":{"coding":[{"system":"http://terminology.hl7.org/CodeSystem/measure-population","code":"initial-population","display":"Initial Population"}]},"count":1},{"code":{"coding":[{"system":"http://terminology.hl7.org/CodeSystem/measure-population","code":"denominator","display":"Denominator"}]},"count":1},{"code":{"coding":[{"system":"http://terminology.hl7.org/CodeSystem/measure-population","code":"denominator-exclusion","display":"Denominator Exclusion"}]},"count":0},{"code":{"coding":[{"system":"http://terminology.hl7.org/CodeSystem/measure-population","code":"numerator","display":"Numerator"}]},"count":0},{"code":{"coding":[{"system":"http://terminology.hl7.org/CodeSystem/measure-population","code":"denominator-exception","display":"Denominator Exception"}]},"count":1}]}]},"request":{"method":"PUT","url":"MeasureReport/c1e6934d-67df-4d26-a7a1-2af16f8fcc62"}}]}