{"resourceType":"Bundle","id":"tests-f0d37c4e-7377-4876-8533-f955963f96f9-bundle","type":"transaction","entry":[{"fullUrl":"https://madie.cms.gov/Patient/f0d37c4e-7377-4876-8533-f955963f96f9","resource":{"resourceType":"Patient","id":"f0d37c4e-7377-4876-8533-f955963f96f9","meta":{"profile":["http://hl7.org/fhir/us/qicore/StructureDefinition/qicore-patient"]},"text":{"status":"generated","div":"<div xmlns=\"http://www.w3.org/1999/xhtml\"><div class=\"hapiHeaderText\">MedTPA&gt;24HrB4IPEnc <b>DENEXFAIL </b></div><table class=\"hapiPropertyTable\"><tbody><tr><td>Identifier</td><td>0e329fbdb05cfc7063fe18633b359f69</td></tr><tr><td>Date of birth</td><td><span>26 September 1975</span></td></tr></tbody></table></div>"},"extension":[{"url":"http://hl7.org/fhir/us/core/StructureDefinition/us-core-race","extension":[{"url":"ombCategory","valueCoding":{"system":"urn:oid:2.16.840.1.113883.6.238","code":"2054-5","display":"Black or African American","userSelected":true}},{"url":"text","valueString":"Black or African American"}]},{"url":"http://hl7.org/fhir/us/core/StructureDefinition/us-core-ethnicity","extension":[{"url":"ombCategory","valueCoding":{"system":"urn:oid:2.16.840.1.113883.6.238","code":"2186-5","display":"Not Hispanic or Latino","userSelected":true}},{"url":"text","valueString":"Not Hispanic or Latino"}]}],"identifier":[{"type":{"coding":[{"system":"http://terminology.hl7.org/CodeSystem/v2-0203","code":"MR"}]},"system":"https://bonnie-fhir.healthit.gov/","value":"60f82c2e98086b570510e260"}],"active":true,"name":[{"use":"usual","family":"DENEXFail","given":["MedTPA>24HrB4IPEnc "]}],"gender":"female","birthDate":"1975-09-26"},"request":{"method":"PUT","url":"Patient/f0d37c4e-7377-4876-8533-f955963f96f9"}},{"fullUrl":"https://madie.cms.gov/Encounter/5c954892b848462de0ae61da","resource":{"resourceType":"Encounter","id":"804daf9e-d89c-4b0f-a426-9e80b83b9674","meta":{"profile":["http://hl7.org/fhir/us/qicore/StructureDefinition/qicore-encounter"]},"status":"finished","class":{"system":"http://terminology.hl7.org/CodeSystem/v3-ActCode","code":"IMP","display":"inpatient encounter","userSelected":true},"type":[{"coding":[{"system":"http://snomed.info/sct","code":"32485007"}]}],"subject":{"reference":"Patient/f0d37c4e-7377-4876-8533-f955963f96f9"},"period":{"start":"2025-10-10T09:00:00+00:00","end":"2025-10-12T11:15:00+00:00"},"length":{"value":2,"unit":"days"},"diagnosis":[{"condition":{"reference":"Condition/ischemic-stroke-8248"},"use":{"coding":[{"system":"http://terminology.hl7.org/CodeSystem/diagnosis-role","code":"billing","display":"Billing"}]},"rank":1}]},"request":{"method":"PUT","url":"Encounter/804daf9e-d89c-4b0f-a426-9e80b83b9674"}},{"fullUrl":"https://madie.cms.gov/MedicationAdministration/5c954892b848462de0ae61dc","resource":{"resourceType":"MedicationAdministration","id":"bf2a639a-d0e4-4d9c-bfd7-fad4457fa83d","meta":{"profile":["http://hl7.org/fhir/us/qicore/StructureDefinition/qicore-medicationadministration"]},"status":"completed","medicationCodeableConcept":{"coding":[{"system":"http://www.nlm.nih.gov/research/umls/rxnorm","code":"1804799"}]},"subject":{"reference":"Patient/f0d37c4e-7377-4876-8533-f955963f96f9"},"effectivePeriod":{"start":"2025-10-09T08:59:00+00:00"}},"request":{"method":"PUT","url":"MedicationAdministration/bf2a639a-d0e4-4d9c-bfd7-fad4457fa83d"}},{"fullUrl":"https://madie.cms.gov/Coverage/5e20a3671c76ba6c5896ebc3","resource":{"resourceType":"Coverage","id":"833b5bd8-b676-4da4-aed1-95521e246d5a","status":"active","beneficiary":{"reference":"Patient/f0d37c4e-7377-4876-8533-f955963f96f9"},"period":{"start":"1975-09-26T08:00:00+00:00"},"payor":[{"reference":"Organization/4b5a882f-1f43-485c-85c6-f5ad2337d5b1"}]},"request":{"method":"PUT","url":"Coverage/833b5bd8-b676-4da4-aed1-95521e246d5a"}},{"fullUrl":"https://madie.cms.gov/Condition/ischemic-stroke-8248","resource":{"resourceType":"Condition","id":"a8b945f8-5be2-48a3-b3f5-c0ff919692ae","meta":{"profile":["http://hl7.org/fhir/us/qicore/StructureDefinition/qicore-condition"]},"clinicalStatus":{"coding":[{"system":"http://terminology.hl7.org/CodeSystem/condition-clinical","code":"active"}]},"verificationStatus":{"coding":[{"system":"http://terminology.hl7.org/CodeSystem/condition-ver-status","code":"confirmed"}]},"category":[{"coding":[{"system":"http://terminology.hl7.org/CodeSystem/condition-category","code":"encounter-diagnosis","display":"Encounter Diagnosis"}]}],"code":{"coding":[{"system":"http://snomed.info/sct","version":"2020-09","code":"111297002","display":"Nonparalytic stroke (disorder)","userSelected":true}]},"subject":{"reference":"Patient/f0d37c4e-7377-4876-8533-f955963f96f9"},"recordedDate":"2025-08-12T08:00:00.000+00:00"},"request":{"method":"PUT","url":"Condition/a8b945f8-5be2-48a3-b3f5-c0ff919692ae"}},{"fullUrl":"https://madie.cms.gov/Organization/123456","resource":{"resourceType":"Organization","id":"4b5a882f-1f43-485c-85c6-f5ad2337d5b1","meta":{"profile":["http://hl7.org/fhir/us/qicore/StructureDefinition/qicore-organization"]},"identifier":[{"use":"temp","system":"urn:oid:2.16.840.1.113883.4.4","value":"21-3259825"}],"active":true,"type":[{"coding":[{"system":"http://terminology.hl7.org/CodeSystem/organization-type","code":"pay","display":"Payer"}]}],"name":"Blue Cross Blue Shield of Texas","telecom":[{"system":"phone","value":"(+1) 972-766-6900"}],"address":[{"use":"billing","type":"postal","line":["P.O. Box 660044"],"city":"Dallas","state":"TX","postalCode":"75266-0044","country":"USA"}]},"request":{"method":"PUT","url":"Organization/4b5a882f-1f43-485c-85c6-f5ad2337d5b1"}},{"fullUrl":"https://madie.cms.gov/MeasureReport/f9a7d97d-2612-4d60-b5ae-63f8ed384744","resource":{"resourceType":"MeasureReport","id":"f9a7d97d-2612-4d60-b5ae-63f8ed384744","meta":{"profile":["http://hl7.org/fhir/us/cqfmeasures/StructureDefinition/test-case-cqfm"]},"contained":[{"resourceType":"Parameters","id":"1a2542a5-dded-445d-aedb-435a89a5e633-parameters","parameter":[{"name":"subject","valueString":"f0d37c4e-7377-4876-8533-f955963f96f9"}]}],"extension":[{"url":"http://hl7.org/fhir/us/cqfmeasures/StructureDefinition/cqfm-inputParameters","valueReference":{"reference":"#1a2542a5-dded-445d-aedb-435a89a5e633-parameters"}},{"url":"http://hl7.org/fhir/us/cqfmeasures/StructureDefinition/cqfm-testCaseDescription","valueMarkdown":"Patient receives Med TPA > 24 hours before IP encounter starts. global.\"Hospitalization\" =(IP)\n"}],"modifierExtension":[{"url":"http://hl7.org/fhir/us/cqfmeasures/StructureDefinition/cqfm-isTestCase","valueBoolean":true}],"status":"complete","type":"individual","measure":"https://madie.cms.gov/Measure/AntithromboticTherapyByEndofHospitalDay2FHIR","period":{"start":"2025-01-01","end":"2025-12-31"},"group":[{"population":[{"code":{"coding":[{"system":"http://terminology.hl7.org/CodeSystem/measure-population","code":"initial-population","display":"Initial Population"}]},"count":1},{"code":{"coding":[{"system":"http://terminology.hl7.org/CodeSystem/measure-population","code":"denominator","display":"Denominator"}]},"count":1},{"code":{"coding":[{"system":"http://terminology.hl7.org/CodeSystem/measure-population","code":"denominator-exclusion","display":"Denominator Exclusion"}]},"count":0},{"code":{"coding":[{"system":"http://terminology.hl7.org/CodeSystem/measure-population","code":"numerator","display":"Numerator"}]},"count":0},{"code":{"coding":[{"system":"http://terminology.hl7.org/CodeSystem/measure-population","code":"denominator-exception","display":"Denominator Exception"}]},"count":0}]}]},"request":{"method":"PUT","url":"MeasureReport/f9a7d97d-2612-4d60-b5ae-63f8ed384744"}}]}