{"resourceType":"Bundle","id":"tests-205bc592-1309-48f1-a8f7-5d4dc03d8430-bundle","type":"transaction","entry":[{"fullUrl":"https://madie.cms.gov/Patient/205bc592-1309-48f1-a8f7-5d4dc03d8430","resource":{"resourceType":"Patient","id":"205bc592-1309-48f1-a8f7-5d4dc03d8430","meta":{"profile":["http://hl7.org/fhir/us/qicore/StructureDefinition/qicore-patient"]},"text":{"status":"generated","div":"<div xmlns=\"http://www.w3.org/1999/xhtml\"><div class=\"hapiHeaderText\">Age=18DayB4Admission <b>IPPPASS </b></div><table class=\"hapiPropertyTable\"><tbody><tr><td>Identifier</td><td>d5a0c954ca768b9b347de0914f6191a5</td></tr><tr><td>Date of birth</td><td><span>20 August 1994</span></td></tr></tbody></table></div>"},"extension":[{"url":"http://hl7.org/fhir/us/core/StructureDefinition/us-core-race","extension":[{"url":"ombCategory","valueCoding":{"system":"urn:oid:2.16.840.1.113883.6.238","code":"1002-5","display":"American Indian or Alaska Native","userSelected":true}},{"url":"text","valueString":"American Indian or Alaska Native"}]},{"url":"http://hl7.org/fhir/us/core/StructureDefinition/us-core-ethnicity","extension":[{"url":"ombCategory","valueCoding":{"system":"urn:oid:2.16.840.1.113883.6.238","code":"2186-5","display":"Not Hispanic or Latino","userSelected":true}},{"url":"text","valueString":"Not Hispanic or Latino"}]}],"identifier":[{"type":{"coding":[{"system":"http://terminology.hl7.org/CodeSystem/v2-0203","code":"MR"}]},"system":"https://bonnie-fhir.healthit.gov/","value":"60f82c2d98086b570510e253"}],"active":true,"name":[{"use":"usual","family":"IPPPass","given":["Age=18DayB4Admission"]}],"gender":"male","birthDate":"2006-08-20"},"request":{"method":"PUT","url":"Patient/205bc592-1309-48f1-a8f7-5d4dc03d8430"}},{"fullUrl":"https://madie.cms.gov/Encounter/5c954892b848462de0ae61ae","resource":{"resourceType":"Encounter","id":"5fb8274e-1abe-4f5e-a9b5-05f45bcdad1f","meta":{"profile":["http://hl7.org/fhir/us/qicore/StructureDefinition/qicore-encounter"]},"status":"finished","class":{"system":"http://terminology.hl7.org/CodeSystem/v3-ActCode","code":"IMP","display":"inpatient encounter"},"type":[{"coding":[{"system":"http://snomed.info/sct","code":"32485007"}]}],"subject":{"reference":"Patient/205bc592-1309-48f1-a8f7-5d4dc03d8430"},"period":{"start":"2025-08-21T00:00:00+00:00","end":"2025-12-19T08:15:00+00:00"},"length":{"value":120,"unit":"days"},"diagnosis":[{"condition":{"reference":"Condition/ischemic-stroke-7d45"},"use":{"coding":[{"system":"http://terminology.hl7.org/CodeSystem/diagnosis-role","code":"billing","display":"Billing"}]},"rank":1}]},"request":{"method":"PUT","url":"Encounter/5fb8274e-1abe-4f5e-a9b5-05f45bcdad1f"}},{"fullUrl":"https://madie.cms.gov/Coverage/5e20a3661c76ba6c5896ebb6","resource":{"resourceType":"Coverage","id":"db53a542-c254-4980-bafe-525b8a828443","status":"active","beneficiary":{"reference":"Patient/205bc592-1309-48f1-a8f7-5d4dc03d8430"},"period":{"start":"1994-08-20T08:00:00+00:00"},"payor":[{"reference":"Organization/4b5a882f-1f43-485c-85c6-f5ad2337d5b1"}]},"request":{"method":"PUT","url":"Coverage/db53a542-c254-4980-bafe-525b8a828443"}},{"fullUrl":"https://madie.cms.gov/Condition/ischemic-stroke-7d45","resource":{"resourceType":"Condition","id":"87013c56-cef7-4f55-8dd8-729e0a1cec8c","meta":{"profile":["http://hl7.org/fhir/us/qicore/StructureDefinition/qicore-condition"]},"clinicalStatus":{"coding":[{"system":"http://terminology.hl7.org/CodeSystem/condition-clinical","code":"active"}]},"verificationStatus":{"coding":[{"system":"http://terminology.hl7.org/CodeSystem/condition-ver-status","code":"confirmed"}]},"category":[{"coding":[{"system":"http://terminology.hl7.org/CodeSystem/condition-category","code":"encounter-diagnosis","display":"Encounter Diagnosis"}]}],"code":{"coding":[{"system":"http://snomed.info/sct","version":"2020-09","code":"111297002","display":"Nonparalytic stroke (disorder)","userSelected":true}]},"subject":{"reference":"Patient/205bc592-1309-48f1-a8f7-5d4dc03d8430"},"recordedDate":"2025-08-16T08:00:00.000+00:00"},"request":{"method":"PUT","url":"Condition/87013c56-cef7-4f55-8dd8-729e0a1cec8c"}},{"fullUrl":"https://madie.cms.gov/Organization/123456","resource":{"resourceType":"Organization","id":"4b5a882f-1f43-485c-85c6-f5ad2337d5b1","meta":{"profile":["http://hl7.org/fhir/us/qicore/StructureDefinition/qicore-organization"]},"identifier":[{"use":"temp","system":"urn:oid:2.16.840.1.113883.4.4","value":"21-3259825"}],"active":true,"type":[{"coding":[{"system":"http://terminology.hl7.org/CodeSystem/organization-type","code":"pay","display":"Payer"}]}],"name":"Blue Cross Blue Shield of Texas","telecom":[{"system":"phone","value":"(+1) 972-766-6900"}],"address":[{"use":"billing","type":"postal","line":["P.O. Box 660044"],"city":"Dallas","state":"TX","postalCode":"75266-0044","country":"USA"}]},"request":{"method":"PUT","url":"Organization/4b5a882f-1f43-485c-85c6-f5ad2337d5b1"}},{"fullUrl":"https://madie.cms.gov/Practitioner/practitioner-123456","resource":{"resourceType":"Practitioner","id":"23fa3e2e-1cc6-4d32-a95d-cedf4538da52","identifier":[{"system":"http://hl7.org/fhir/sid/us-npi","value":"123456"}],"name":[{"family":"Evil","prefix":["Dr"]}]},"request":{"method":"PUT","url":"Practitioner/23fa3e2e-1cc6-4d32-a95d-cedf4538da52"}},{"fullUrl":"https://madie.cms.gov/MeasureReport/436001f3-1815-4fc7-ac84-34d9b8ddee52","resource":{"resourceType":"MeasureReport","id":"436001f3-1815-4fc7-ac84-34d9b8ddee52","meta":{"profile":["http://hl7.org/fhir/us/cqfmeasures/StructureDefinition/test-case-cqfm"]},"contained":[{"resourceType":"Parameters","id":"b331b24f-ea86-49dc-a3fc-49c26113523c-parameters","parameter":[{"name":"subject","valueString":"205bc592-1309-48f1-a8f7-5d4dc03d8430"}]}],"extension":[{"url":"http://hl7.org/fhir/us/cqfmeasures/StructureDefinition/cqfm-inputParameters","valueReference":{"reference":"#b331b24f-ea86-49dc-a3fc-49c26113523c-parameters"}},{"url":"http://hl7.org/fhir/us/cqfmeasures/StructureDefinition/cqfm-testCaseDescription","valueMarkdown":"Patient turns 18 day before admission  18DayB4Admission\n"}],"modifierExtension":[{"url":"http://hl7.org/fhir/us/cqfmeasures/StructureDefinition/cqfm-isTestCase","valueBoolean":true}],"status":"complete","type":"individual","measure":"https://madie.cms.gov/Measure/AntithromboticTherapyByEndofHospitalDay2FHIR","period":{"start":"2025-01-01","end":"2025-12-31"},"group":[{"population":[{"code":{"coding":[{"system":"http://terminology.hl7.org/CodeSystem/measure-population","code":"initial-population","display":"Initial Population"}]},"count":1},{"code":{"coding":[{"system":"http://terminology.hl7.org/CodeSystem/measure-population","code":"denominator","display":"Denominator"}]},"count":1},{"code":{"coding":[{"system":"http://terminology.hl7.org/CodeSystem/measure-population","code":"denominator-exclusion","display":"Denominator Exclusion"}]},"count":0},{"code":{"coding":[{"system":"http://terminology.hl7.org/CodeSystem/measure-population","code":"numerator","display":"Numerator"}]},"count":0},{"code":{"coding":[{"system":"http://terminology.hl7.org/CodeSystem/measure-population","code":"denominator-exception","display":"Denominator Exception"}]},"count":0}]}]},"request":{"method":"PUT","url":"MeasureReport/436001f3-1815-4fc7-ac84-34d9b8ddee52"}}]}