{
  "resourceType": "Bundle",
  "id": "61168b8798086b77ef9c5ecc",
  "type": "transaction",
  "entry": [ {
    "fullUrl": "https://madie.cms.gov/Patient/28492651-41c3-4e9e-a68f-9b7836e3eca9",
    "resource": {
      "resourceType": "Patient",
      "id": "28492651-41c3-4e9e-a68f-9b7836e3eca9",
      "meta": {
        "profile": [ "http://hl7.org/fhir/us/qicore/StructureDefinition/qicore-patient" ]
      },
      "extension": [ {
        "url": "http://hl7.org/fhir/us/core/StructureDefinition/us-core-race",
        "extension": [ {
          "url": "ombCategory",
          "valueCoding": {
            "system": "urn:oid:2.16.840.1.113883.6.238",
            "code": "2106-3",
            "display": "White",
            "userSelected": true
          }
        }, {
          "url": "text",
          "valueString": "White"
        } ]
      }, {
        "url": "http://hl7.org/fhir/us/core/StructureDefinition/us-core-ethnicity",
        "extension": [ {
          "url": "ombCategory",
          "valueCoding": {
            "system": "urn:oid:2.16.840.1.113883.6.238",
            "code": "2186-5",
            "display": "Not Hispanic or Latino",
            "userSelected": true
          }
        }, {
          "url": "text",
          "valueString": "Not Hispanic or Latino"
        } ]
      } ],
      "identifier": [ {
        "type": {
          "coding": [ {
            "system": "http://terminology.hl7.org/CodeSystem/v2-0203",
            "code": "MR"
          } ]
        },
        "system": "https://myGoodHealthCare.com/",
        "value": "61168b8798086b77ef9c5ecc"
      } ],
      "active": true,
      "name": [ {
        "use": "usual",
        "family": "DENEXCEPPass",
        "given": [ "CommEdemaAbsentNotDoneMR" ]
      } ],
      "gender": "male",
      "birthDate": "1971-08-29"
    },
    "request": {
      "method": "POST",
      "url": "Patient/28492651-41c3-4e9e-a68f-9b7836e3eca9"
    }
  }, {
    "fullUrl": "https://madie.cms.gov/Communication/5c9a42e9b8484623838500a0",
    "resource": {
      "resourceType": "Communication",
      "id": "5c9a42e9b8484623838500a0",
      "meta": {
        "profile": [ "http://hl7.org/fhir/us/qicore/StructureDefinition/qicore-communication" ]
      },
      "extension": [ {
        "url": "http://hl7.org/fhir/us/qicore/StructureDefinition/qicore-recorded",
        "valueDateTime": "2012-07-02T15:00:00+00:00"
      } ],
      "modifierExtension": [ {
        "url": "http://hl7.org/fhir/us/qicore/StructureDefinition/qicore-notDone",
        "valueBoolean": true
      }, {
        "url": "http://hl7.org/fhir/us/qicore/StructureDefinition/qicore-notDone",
        "valueBoolean": true
      } ],
      "status": "completed",
      "statusReason": {
        "coding": [ {
          "system": "http://snomed.info/sct",
          "version": "http://snomed.info/sct/731000124108/version/202303",
          "code": "183932001",
          "display": "Procedure contraindicated (situation)",
          "userSelected": true
        } ]
      },
      "subject": {
        "reference": "Patient/28492651-41c3-4e9e-a68f-9b7836e3eca9"
      },
      "sent": "2025-07-09T08:00:00.000+00:00",
      "reasonCode": [ {
        "coding": [ {
          "system": "http://snomed.info/sct",
          "version": "http://snomed.info/sct/731000124108/version/202303",
          "code": "428341000124108"
        } ]
      } ]
    },
    "request": {
      "method": "POST",
      "url": "Communication/5c9a42e9b8484623838500a0"
    }
  }, {
    "fullUrl": "https://madie.cms.gov/Condition/5c9a42e9b84846238385009c",
    "resource": {
      "resourceType": "Condition",
      "id": "5c9a42e9b84846238385009c",
      "meta": {
        "profile": [ "http://hl7.org/fhir/us/qicore/StructureDefinition/qicore-condition" ]
      },
      "clinicalStatus": {
        "coding": [ {
          "system": "http://terminology.hl7.org/CodeSystem/condition-clinical",
          "code": "active",
          "display": "active",
          "userSelected": true
        } ]
      },
      "category": [ {
        "coding": [ {
          "system": "http://terminology.hl7.org/CodeSystem/condition-category",
          "code": "problem-list-item",
          "display": "Problem List Item"
        } ]
      } ],
      "code": {
        "coding": [ {
          "system": "http://snomed.info/sct",
          "version": "http://snomed.info/sct/731000124108/version/202303",
          "code": "193349004"
        }, {
          "system": "http://hl7.org/fhir/sid/icd-10-cm",
          "code": "E08.311"
        } ]
      },
      "subject": {
        "reference": "Patient/28492651-41c3-4e9e-a68f-9b7836e3eca9"
      },
      "onsetDateTime": "2012-07-01T15:00:00+00:00"
    },
    "request": {
      "method": "POST",
      "url": "Condition/5c9a42e9b84846238385009c"
    }
  }, {
    "fullUrl": "https://madie.cms.gov/Observation/5c9a42e9b84846238385009e",
    "resource": {
      "resourceType": "Observation",
      "id": "5c9a42e9b84846238385009e",
      "meta": {
        "profile": [ "http://hl7.org/fhir/us/qicore/StructureDefinition/qicore-observation" ]
      },
      "status": "final",
      "category": [ {
        "coding": [ {
          "system": "http://terminology.hl7.org/CodeSystem/observation-category",
          "code": "vital-signs",
          "display": "Vital Signs"
        } ]
      } ],
      "code": {
        "coding": [ {
          "system": "http://loinc.org",
          "version": "2.73",
          "code": "32451-7"
        } ]
      },
      "subject": {
        "reference": "Patient/28492651-41c3-4e9e-a68f-9b7836e3eca9"
      },
      "effectiveDateTime": "2025-07-09T08:00:00.000+00:00",
      "valueBoolean": true
    },
    "request": {
      "method": "POST",
      "url": "Observation/5c9a42e9b84846238385009e"
    }
  }, {
    "fullUrl": "https://madie.cms.gov/Encounter/5c9a42e9b84846238385009d",
    "resource": {
      "resourceType": "Encounter",
      "id": "5c9a42e9b84846238385009d",
      "meta": {
        "profile": [ "http://hl7.org/fhir/us/qicore/StructureDefinition/qicore-encounter" ]
      },
      "status": "finished",
      "class": {
        "system": "http://terminology.hl7.org/CodeSystem/v3-ActCode",
        "code": "AMB"
      },
      "type": [ {
        "coding": [ {
          "system": "http://www.ama-assn.org/go/cpt",
          "version": "2023",
          "code": "99205"
        } ]
      } ],
      "subject": {
        "reference": "Patient/28492651-41c3-4e9e-a68f-9b7836e3eca9"
      },
      "period": {
        "start": "2025-07-02T15:00:00.000+00:00",
        "end": "2025-08-02T16:00:00.000+00:00"
      }
    },
    "request": {
      "method": "POST",
      "url": "Encounter/5c9a42e9b84846238385009d"
    }
  }, {
    "fullUrl": "https://madie.cms.gov/Communication/1230600024",
    "resource": {
      "resourceType": "Communication",
      "id": "1230600024",
      "meta": {
        "profile": [ "http://hl7.org/fhir/us/qicore/StructureDefinition/qicore-communication" ]
      },
      "status": "not-done",
      "statusReason": {
        "coding": [ {
          "system": "http://snomed.info/sct",
          "version": "http://snomed.info/sct/731000124108/version/202303",
          "code": "183932001",
          "display": "Procedure contraindicated (situation)",
          "userSelected": true
        } ]
      },
      "category": [ {
        "coding": [ {
          "system": "http://snomed.info/sct",
          "version": "http://snomed.info/sct/731000124108/version/202303",
          "code": "428341000124108",
          "display": "Macular edema absent (situation)",
          "userSelected": true
        } ]
      } ],
      "sent": "2025-07-09T08:00:00.000+00:00"
    },
    "request": {
      "method": "POST",
      "url": "Communication/1230600024"
    }
  }, {
    "fullUrl": "https://madie.cms.gov/MeasureReport/18568e5a-6b81-4b04-96d5-fa95b410e1c1",
    "resource": {
      "resourceType": "MeasureReport",
      "id": "18568e5a-6b81-4b04-96d5-fa95b410e1c1",
      "meta": {
        "profile": [ "http://hl7.org/fhir/us/cqfmeasures/StructureDefinition/test-case-cqfm" ]
      },
      "contained": [ {
        "resourceType": "Parameters",
        "id": "5e5ccb79-e33d-448e-b3f3-1ea57390da51-parameters",
        "parameter": [ {
          "name": "subject",
          "valueString": "28492651-41c3-4e9e-a68f-9b7836e3eca9"
        } ]
      } ],
      "extension": [ {
        "url": "http://hl7.org/fhir/us/cqfmeasures/StructureDefinition/cqfm-inputParameters",
        "valueReference": {
          "reference": "#5e5ccb79-e33d-448e-b3f3-1ea57390da51-parameters"
        }
      }, {
        "url": "http://hl7.org/fhir/us/cqfmeasures/StructureDefinition/cqfm-testCaseDescription",
        "valueMarkdown": "Communication status complete"
      } ],
      "modifierExtension": [ {
        "url": "http://hl7.org/fhir/us/cqfmeasures/StructureDefinition/cqfm-isTestCase",
        "valueBoolean": true
      } ],
      "status": "complete",
      "type": "individual",
      "measure": "https://madie.cms.gov/Measure/DRCommunicationWithPhysicianManagingDiabetesFHIR",
      "period": {
        "start": "2025-01-01",
        "end": "2025-12-31"
      },
      "group": [ {
        "population": [ {
          "code": {
            "coding": [ {
              "system": "http://terminology.hl7.org/CodeSystem/measure-population",
              "code": "initial-population",
              "display": "Initial Population"
            } ]
          },
          "count": 1
        }, {
          "code": {
            "coding": [ {
              "system": "http://terminology.hl7.org/CodeSystem/measure-population",
              "code": "denominator",
              "display": "Denominator"
            } ]
          },
          "count": 1
        }, {
          "code": {
            "coding": [ {
              "system": "http://terminology.hl7.org/CodeSystem/measure-population",
              "code": "numerator",
              "display": "Numerator"
            } ]
          },
          "count": 0
        }, {
          "code": {
            "coding": [ {
              "system": "http://terminology.hl7.org/CodeSystem/measure-population",
              "code": "denominator-exception",
              "display": "Denominator Exception"
            } ]
          },
          "count": 0
        } ]
      } ],
      "evaluatedResource": [ {
        "reference": "Patient/28492651-41c3-4e9e-a68f-9b7836e3eca9"
      }, {
        "reference": "Communication/5c9a42e9b8484623838500a0"
      }, {
        "reference": "Condition/5c9a42e9b84846238385009c"
      }, {
        "reference": "Observation/5c9a42e9b84846238385009e"
      }, {
        "reference": "Encounter/5c9a42e9b84846238385009d"
      }, {
        "reference": "Communication/1230600024"
      } ]
    },
    "request": {
      "method": "POST",
      "url": "MeasureReport/18568e5a-6b81-4b04-96d5-fa95b410e1c1"
    }
  } ]
}