{
  "resourceType": "Bundle",
  "id": "NUMERFail-KCCQDomain181Days",
  "type": "transaction",
  "entry": [ {
    "fullUrl": "https://madie.cms.gov/Patient/1df58f4a-37fb-46e6-b20d-fc4a8b57d77e",
    "resource": {
      "resourceType": "Patient",
      "id": "1df58f4a-37fb-46e6-b20d-fc4a8b57d77e",
      "meta": {
        "profile": [ "http://hl7.org/fhir/us/qicore/StructureDefinition/qicore-patient" ]
      },
      "extension": [ {
        "url": "http://hl7.org/fhir/us/core/StructureDefinition/us-core-race",
        "extension": [ {
          "url": "ombCategory",
          "valueCoding": {
            "system": "urn:oid:2.16.840.1.113883.6.238",
            "code": "2028-9",
            "display": "Asian"
          }
        }, {
          "url": "text",
          "valueString": "Asian"
        } ]
      }, {
        "url": "http://hl7.org/fhir/us/core/StructureDefinition/us-core-ethnicity",
        "extension": [ {
          "url": "ombCategory",
          "valueCoding": {
            "system": "urn:oid:2.16.840.1.113883.6.238",
            "code": "2135-2",
            "display": "Hispanic or Latino"
          }
        }, {
          "url": "text",
          "valueString": "Hispanic or Latino"
        } ]
      } ],
      "identifier": [ {
        "system": "http://hospital.smarthealthit.org",
        "value": "999999995"
      } ],
      "name": [ {
        "family": "Bertha",
        "given": [ "Betty" ]
      } ],
      "gender": "female",
      "birthDate": "2007-01-01"
    },
    "request": {
      "method": "POST",
      "url": "Patient/1df58f4a-37fb-46e6-b20d-fc4a8b57d77e"
    }
  }, {
    "fullUrl": "https://madie.cms.gov/Encounter/Encounter-47",
    "resource": {
      "resourceType": "Encounter",
      "id": "Encounter-47",
      "meta": {
        "profile": [ "http://hl7.org/fhir/us/qicore/StructureDefinition/qicore-encounter" ]
      },
      "status": "finished",
      "class": {
        "system": "http://terminology.hl7.org/CodeSystem/v3-ActCode",
        "code": "AMB",
        "display": "ambulatory"
      },
      "type": [ {
        "coding": [ {
          "system": "http://snomed.info/sct",
          "code": "185317003",
          "display": "Telephone encounter (procedure)"
        } ]
      } ],
      "subject": {
        "reference": "Patient/1df58f4a-37fb-46e6-b20d-fc4a8b57d77e"
      },
      "period": {
        "start": "2025-01-01T01:00:00.000Z",
        "end": "2025-01-01T01:15:00.000Z"
      }
    },
    "request": {
      "method": "POST",
      "url": "Encounter/Encounter-47"
    }
  }, {
    "fullUrl": "https://madie.cms.gov/Encounter/Encounter-48",
    "resource": {
      "resourceType": "Encounter",
      "id": "Encounter-48",
      "meta": {
        "profile": [ "http://hl7.org/fhir/us/qicore/StructureDefinition/qicore-encounter" ]
      },
      "status": "finished",
      "class": {
        "system": "http://terminology.hl7.org/CodeSystem/v3-ActCode",
        "code": "AMB",
        "display": "ambulatory"
      },
      "type": [ {
        "coding": [ {
          "system": "http://snomed.info/sct",
          "code": "185317003",
          "display": "Telephone encounter (procedure)"
        } ]
      } ],
      "subject": {
        "reference": "Patient/1df58f4a-37fb-46e6-b20d-fc4a8b57d77e"
      },
      "period": {
        "start": "2025-01-02T01:00:00.000Z",
        "end": "2025-01-02T01:15:00.000Z"
      }
    },
    "request": {
      "method": "POST",
      "url": "Encounter/Encounter-48"
    }
  }, {
    "fullUrl": "https://madie.cms.gov/Condition/Condition-21",
    "resource": {
      "resourceType": "Condition",
      "id": "Condition-21",
      "meta": {
        "profile": [ "http://hl7.org/fhir/us/qicore/StructureDefinition/qicore-condition" ]
      },
      "clinicalStatus": {
        "coding": [ {
          "system": "http://terminology.hl7.org/CodeSystem/condition-clinical",
          "code": "active"
        } ]
      },
      "category": [ {
        "coding": [ {
          "system": "http://terminology.hl7.org/CodeSystem/condition-category",
          "code": "problem-list-item",
          "display": "Problem List Item"
        } ]
      } ],
      "code": {
        "coding": [ {
          "system": "http://snomed.info/sct",
          "code": "10091002",
          "display": "High output heart failure (disorder)"
        } ]
      },
      "subject": {
        "reference": "Patient/1df58f4a-37fb-46e6-b20d-fc4a8b57d77e"
      },
      "onsetDateTime": "2024-12-31T23:59:00.000Z"
    },
    "request": {
      "method": "POST",
      "url": "Condition/Condition-21"
    }
  }, {
    "fullUrl": "https://madie.cms.gov/Observation/Observation-65",
    "resource": {
      "resourceType": "Observation",
      "id": "Observation-65",
      "meta": {
        "profile": [ "http://hl7.org/fhir/us/qicore/StructureDefinition/qicore-observation" ]
      },
      "status": "final",
      "category": [ {
        "coding": [ {
          "system": "http://terminology.hl7.org/CodeSystem/observation-category",
          "code": "survey",
          "display": "survey"
        } ],
        "text": "survey"
      } ],
      "code": {
        "coding": [ {
          "system": "http://loinc.org",
          "code": "72189-4",
          "display": "Quality of life score [KCCQ]"
        } ]
      },
      "subject": {
        "reference": "Patient/1df58f4a-37fb-46e6-b20d-fc4a8b57d77e"
      },
      "effectivePeriod": {
        "start": "2025-01-01T23:00:00.000Z",
        "end": "2025-01-01T23:59:00.000Z"
      },
      "valueInteger": 4
    },
    "request": {
      "method": "POST",
      "url": "Observation/Observation-65"
    }
  }, {
    "fullUrl": "https://madie.cms.gov/Observation/Observation-66",
    "resource": {
      "resourceType": "Observation",
      "id": "Observation-66",
      "meta": {
        "profile": [ "http://hl7.org/fhir/us/qicore/StructureDefinition/qicore-observation" ]
      },
      "status": "final",
      "category": [ {
        "coding": [ {
          "system": "http://terminology.hl7.org/CodeSystem/observation-category",
          "code": "survey",
          "display": "survey"
        } ],
        "text": "survey"
      } ],
      "code": {
        "coding": [ {
          "system": "http://loinc.org",
          "code": "72189-4",
          "display": "Quality of life score [KCCQ]"
        } ]
      },
      "subject": {
        "reference": "Patient/1df58f4a-37fb-46e6-b20d-fc4a8b57d77e"
      },
      "effectivePeriod": {
        "start": "2025-07-03T23:00:00.000Z",
        "end": "2025-07-03T23:59:00.000Z"
      },
      "valueInteger": 4
    },
    "request": {
      "method": "POST",
      "url": "Observation/Observation-66"
    }
  }, {
    "fullUrl": "https://madie.cms.gov/Observation/Observation-67",
    "resource": {
      "resourceType": "Observation",
      "id": "Observation-67",
      "meta": {
        "profile": [ "http://hl7.org/fhir/us/qicore/StructureDefinition/qicore-observation" ]
      },
      "status": "final",
      "category": [ {
        "coding": [ {
          "system": "http://terminology.hl7.org/CodeSystem/observation-category",
          "code": "survey",
          "display": "survey"
        } ],
        "text": "survey"
      } ],
      "code": {
        "coding": [ {
          "system": "http://loinc.org",
          "code": "72194-4",
          "display": "Symptom stability score [KCCQ]"
        } ]
      },
      "subject": {
        "reference": "Patient/1df58f4a-37fb-46e6-b20d-fc4a8b57d77e"
      },
      "effectivePeriod": {
        "start": "2025-01-01T23:00:00.000Z",
        "end": "2025-01-01T23:59:00.000Z"
      },
      "valueInteger": 4
    },
    "request": {
      "method": "POST",
      "url": "Observation/Observation-67"
    }
  }, {
    "fullUrl": "https://madie.cms.gov/Observation/Observation-68",
    "resource": {
      "resourceType": "Observation",
      "id": "Observation-68",
      "meta": {
        "profile": [ "http://hl7.org/fhir/us/qicore/StructureDefinition/qicore-observation" ]
      },
      "status": "final",
      "category": [ {
        "coding": [ {
          "system": "http://terminology.hl7.org/CodeSystem/observation-category",
          "code": "survey",
          "display": "survey"
        } ],
        "text": "survey"
      } ],
      "code": {
        "coding": [ {
          "system": "http://loinc.org",
          "code": "72194-4",
          "display": "Symptom stability score [KCCQ]"
        } ]
      },
      "subject": {
        "reference": "Patient/1df58f4a-37fb-46e6-b20d-fc4a8b57d77e"
      },
      "effectivePeriod": {
        "start": "2025-06-30T23:00:00.000Z",
        "end": "2025-06-30T23:59:00.000Z"
      },
      "valueInteger": 4
    },
    "request": {
      "method": "POST",
      "url": "Observation/Observation-68"
    }
  }, {
    "fullUrl": "https://madie.cms.gov/Observation/Observation-69",
    "resource": {
      "resourceType": "Observation",
      "id": "Observation-69",
      "meta": {
        "profile": [ "http://hl7.org/fhir/us/qicore/StructureDefinition/qicore-observation" ]
      },
      "status": "final",
      "category": [ {
        "coding": [ {
          "system": "http://terminology.hl7.org/CodeSystem/observation-category",
          "code": "survey",
          "display": "survey"
        } ],
        "text": "survey"
      } ],
      "code": {
        "coding": [ {
          "system": "http://loinc.org",
          "code": "72190-2",
          "display": "Self-efficacy score [KCCQ]"
        } ]
      },
      "subject": {
        "reference": "Patient/1df58f4a-37fb-46e6-b20d-fc4a8b57d77e"
      },
      "effectivePeriod": {
        "start": "2025-01-01T23:00:00.000Z",
        "end": "2025-01-01T23:59:00.000Z"
      },
      "valueInteger": 4
    },
    "request": {
      "method": "POST",
      "url": "Observation/Observation-69"
    }
  }, {
    "fullUrl": "https://madie.cms.gov/Observation/Observation-70",
    "resource": {
      "resourceType": "Observation",
      "id": "Observation-70",
      "meta": {
        "profile": [ "http://hl7.org/fhir/us/qicore/StructureDefinition/qicore-observation" ]
      },
      "status": "final",
      "category": [ {
        "coding": [ {
          "system": "http://terminology.hl7.org/CodeSystem/observation-category",
          "code": "survey",
          "display": "survey"
        } ],
        "text": "survey"
      } ],
      "code": {
        "coding": [ {
          "system": "http://loinc.org",
          "code": "72190-2",
          "display": "Self-efficacy score [KCCQ]"
        } ]
      },
      "subject": {
        "reference": "Patient/1df58f4a-37fb-46e6-b20d-fc4a8b57d77e"
      },
      "effectivePeriod": {
        "start": "2025-06-30T23:00:00.000Z",
        "end": "2025-06-30T23:59:00.000Z"
      },
      "valueInteger": 4
    },
    "request": {
      "method": "POST",
      "url": "Observation/Observation-70"
    }
  }, {
    "fullUrl": "https://madie.cms.gov/Observation/Observation-71",
    "resource": {
      "resourceType": "Observation",
      "id": "Observation-71",
      "meta": {
        "profile": [ "http://hl7.org/fhir/us/qicore/StructureDefinition/qicore-observation" ]
      },
      "status": "final",
      "category": [ {
        "coding": [ {
          "system": "http://terminology.hl7.org/CodeSystem/observation-category",
          "code": "survey",
          "display": "survey"
        } ],
        "text": "survey"
      } ],
      "code": {
        "coding": [ {
          "system": "http://loinc.org",
          "code": "72191-0",
          "display": "Total symptom score [KCCQ]"
        } ]
      },
      "subject": {
        "reference": "Patient/1df58f4a-37fb-46e6-b20d-fc4a8b57d77e"
      },
      "effectivePeriod": {
        "start": "2025-01-01T23:00:00.000Z",
        "end": "2025-01-01T23:59:00.000Z"
      },
      "valueInteger": 4
    },
    "request": {
      "method": "POST",
      "url": "Observation/Observation-71"
    }
  }, {
    "fullUrl": "https://madie.cms.gov/Observation/Observation-72",
    "resource": {
      "resourceType": "Observation",
      "id": "Observation-72",
      "meta": {
        "profile": [ "http://hl7.org/fhir/us/qicore/StructureDefinition/qicore-observation" ]
      },
      "status": "final",
      "category": [ {
        "coding": [ {
          "system": "http://terminology.hl7.org/CodeSystem/observation-category",
          "code": "survey",
          "display": "survey"
        } ],
        "text": "survey"
      } ],
      "code": {
        "coding": [ {
          "system": "http://loinc.org",
          "code": "72191-0",
          "display": "Total symptom score [KCCQ]"
        } ]
      },
      "subject": {
        "reference": "Patient/1df58f4a-37fb-46e6-b20d-fc4a8b57d77e"
      },
      "effectivePeriod": {
        "start": "2025-06-30T23:00:00.000Z",
        "end": "2025-06-30T23:59:00.000Z"
      },
      "valueInteger": 4
    },
    "request": {
      "method": "POST",
      "url": "Observation/Observation-72"
    }
  }, {
    "fullUrl": "https://madie.cms.gov/Observation/Observation-73",
    "resource": {
      "resourceType": "Observation",
      "id": "Observation-73",
      "meta": {
        "profile": [ "http://hl7.org/fhir/us/qicore/StructureDefinition/qicore-observation" ]
      },
      "status": "final",
      "category": [ {
        "coding": [ {
          "system": "http://terminology.hl7.org/CodeSystem/observation-category",
          "code": "survey",
          "display": "survey"
        } ],
        "text": "survey"
      } ],
      "code": {
        "coding": [ {
          "system": "http://loinc.org",
          "code": "72195-1",
          "display": "Physical limitation score [KCCQ]"
        } ]
      },
      "subject": {
        "reference": "Patient/1df58f4a-37fb-46e6-b20d-fc4a8b57d77e"
      },
      "effectivePeriod": {
        "start": "2025-01-01T23:00:00.000Z",
        "end": "2025-01-01T23:59:00.000Z"
      },
      "valueInteger": 4
    },
    "request": {
      "method": "POST",
      "url": "Observation/Observation-73"
    }
  }, {
    "fullUrl": "https://madie.cms.gov/Observation/Observation-74",
    "resource": {
      "resourceType": "Observation",
      "id": "Observation-74",
      "meta": {
        "profile": [ "http://hl7.org/fhir/us/qicore/StructureDefinition/qicore-observation" ]
      },
      "status": "final",
      "category": [ {
        "coding": [ {
          "system": "http://terminology.hl7.org/CodeSystem/observation-category",
          "code": "survey",
          "display": "survey"
        } ],
        "text": "survey"
      } ],
      "code": {
        "coding": [ {
          "system": "http://loinc.org",
          "code": "72195-1",
          "display": "Physical limitation score [KCCQ]"
        } ]
      },
      "subject": {
        "reference": "Patient/1df58f4a-37fb-46e6-b20d-fc4a8b57d77e"
      },
      "effectivePeriod": {
        "start": "2025-06-30T23:00:00.000Z",
        "end": "2025-06-30T23:59:00.000Z"
      },
      "valueInteger": 4
    },
    "request": {
      "method": "POST",
      "url": "Observation/Observation-74"
    }
  }, {
    "fullUrl": "https://madie.cms.gov/Observation/Observation-75",
    "resource": {
      "resourceType": "Observation",
      "id": "Observation-75",
      "meta": {
        "profile": [ "http://hl7.org/fhir/us/qicore/StructureDefinition/qicore-observation" ]
      },
      "status": "final",
      "category": [ {
        "coding": [ {
          "system": "http://terminology.hl7.org/CodeSystem/observation-category",
          "code": "survey",
          "display": "survey"
        } ],
        "text": "survey"
      } ],
      "code": {
        "coding": [ {
          "system": "http://loinc.org",
          "code": "72196-9",
          "display": "Social limitation score [KCCQ]"
        } ]
      },
      "subject": {
        "reference": "Patient/1df58f4a-37fb-46e6-b20d-fc4a8b57d77e"
      },
      "effectivePeriod": {
        "start": "2025-01-01T23:00:00.000Z",
        "end": "2025-01-01T23:59:00.000Z"
      },
      "valueInteger": 4
    },
    "request": {
      "method": "POST",
      "url": "Observation/Observation-75"
    }
  }, {
    "fullUrl": "https://madie.cms.gov/Observation/Observation-76",
    "resource": {
      "resourceType": "Observation",
      "id": "Observation-76",
      "meta": {
        "profile": [ "http://hl7.org/fhir/us/qicore/StructureDefinition/qicore-observation" ]
      },
      "status": "final",
      "category": [ {
        "coding": [ {
          "system": "http://terminology.hl7.org/CodeSystem/observation-category",
          "code": "survey",
          "display": "survey"
        } ],
        "text": "survey"
      } ],
      "code": {
        "coding": [ {
          "system": "http://loinc.org",
          "code": "72196-9",
          "display": "Social limitation score [KCCQ]"
        } ]
      },
      "subject": {
        "reference": "Patient/1df58f4a-37fb-46e6-b20d-fc4a8b57d77e"
      },
      "effectivePeriod": {
        "start": "2025-06-30T23:00:00.000Z",
        "end": "2025-06-30T23:59:00.000Z"
      },
      "valueInteger": 4
    },
    "request": {
      "method": "POST",
      "url": "Observation/Observation-76"
    }
  }, {
    "fullUrl": "https://madie.cms.gov/MeasureReport/7db0611d-1ec7-44fe-8d26-d263b3a62076",
    "resource": {
      "resourceType": "MeasureReport",
      "id": "7db0611d-1ec7-44fe-8d26-d263b3a62076",
      "meta": {
        "profile": [ "http://hl7.org/fhir/us/cqfmeasures/StructureDefinition/test-case-cqfm" ]
      },
      "contained": [ {
        "resourceType": "Parameters",
        "id": "4dfa22bb-3243-4239-a4b6-a8d6408a7ae7-parameters",
        "parameter": [ {
          "name": "subject",
          "valueString": "1df58f4a-37fb-46e6-b20d-fc4a8b57d77e"
        } ]
      } ],
      "extension": [ {
        "url": "http://hl7.org/fhir/us/cqfmeasures/StructureDefinition/cqfm-inputParameters",
        "valueReference": {
          "reference": "#4dfa22bb-3243-4239-a4b6-a8d6408a7ae7-parameters"
        }
      }, {
        "url": "http://hl7.org/fhir/us/cqfmeasures/StructureDefinition/cqfm-testCaseDescription",
        "valueMarkdown": "Patient has one KCCQ Domain assessments that is 181 days after their initial FSA."
      } ],
      "modifierExtension": [ {
        "url": "http://hl7.org/fhir/us/cqfmeasures/StructureDefinition/cqfm-isTestCase",
        "valueBoolean": true
      } ],
      "status": "complete",
      "type": "individual",
      "measure": "https://madie.cms.gov/Measure/FunctionalStatusAssessmentsforHeartFailureFHIR",
      "period": {
        "start": "2025-01-01",
        "end": "2025-12-31"
      },
      "group": [ {
        "population": [ {
          "code": {
            "coding": [ {
              "system": "http://terminology.hl7.org/CodeSystem/measure-population",
              "code": "initial-population",
              "display": "Initial Population"
            } ]
          },
          "count": 1
        }, {
          "code": {
            "coding": [ {
              "system": "http://terminology.hl7.org/CodeSystem/measure-population",
              "code": "denominator",
              "display": "Denominator"
            } ]
          },
          "count": 1
        }, {
          "code": {
            "coding": [ {
              "system": "http://terminology.hl7.org/CodeSystem/measure-population",
              "code": "denominator-exclusion",
              "display": "Denominator Exclusion"
            } ]
          },
          "count": 0
        }, {
          "code": {
            "coding": [ {
              "system": "http://terminology.hl7.org/CodeSystem/measure-population",
              "code": "numerator",
              "display": "Numerator"
            } ]
          },
          "count": 0
        } ]
      } ],
      "evaluatedResource": [ {
        "reference": "https://madie.cms.gov/Patient/1df58f4a-37fb-46e6-b20d-fc4a8b57d77e"
      }, {
        "reference": "https://madie.cms.gov/Encounter/Encounter-47"
      }, {
        "reference": "https://madie.cms.gov/Encounter/Encounter-48"
      }, {
        "reference": "https://madie.cms.gov/Condition/Condition-21"
      }, {
        "reference": "https://madie.cms.gov/Observation/Observation-65"
      }, {
        "reference": "https://madie.cms.gov/Observation/Observation-66"
      }, {
        "reference": "https://madie.cms.gov/Observation/Observation-67"
      }, {
        "reference": "https://madie.cms.gov/Observation/Observation-68"
      }, {
        "reference": "https://madie.cms.gov/Observation/Observation-69"
      }, {
        "reference": "https://madie.cms.gov/Observation/Observation-70"
      }, {
        "reference": "https://madie.cms.gov/Observation/Observation-71"
      }, {
        "reference": "https://madie.cms.gov/Observation/Observation-72"
      }, {
        "reference": "https://madie.cms.gov/Observation/Observation-73"
      }, {
        "reference": "https://madie.cms.gov/Observation/Observation-74"
      }, {
        "reference": "https://madie.cms.gov/Observation/Observation-75"
      }, {
        "reference": "https://madie.cms.gov/Observation/Observation-76"
      } ]
    },
    "request": {
      "method": "POST",
      "url": "MeasureReport/7db0611d-1ec7-44fe-8d26-d263b3a62076"
    }
  } ]
}