{"resourceType":"Bundle","id":"tests-05afd17d-f9a0-4588-bb3a-ffefd2f6c271-bundle","type":"transaction","entry":[{"fullUrl":"https://madie.cms.gov/Patient/05afd17d-f9a0-4588-bb3a-ffefd2f6c271","resource":{"resourceType":"Patient","id":"05afd17d-f9a0-4588-bb3a-ffefd2f6c271","meta":{"profile":["http://hl7.org/fhir/us/qicore/StructureDefinition/qicore-patient"]},"extension":[{"url":"http://hl7.org/fhir/us/core/StructureDefinition/us-core-race","extension":[{"url":"ombCategory","valueCoding":{"system":"urn:oid:2.16.840.1.113883.6.238","code":"2054-5","display":"Black or African American"}},{"url":"text","valueString":"Black or African American"}]},{"url":"http://hl7.org/fhir/us/core/StructureDefinition/us-core-ethnicity","extension":[{"url":"ombCategory","valueCoding":{"system":"urn:oid:2.16.840.1.113883.6.238","code":"2186-5","display":"Not Hispanic or Latino"}},{"url":"text","valueString":"Not Hispanic or Latino"}]}],"identifier":[{"type":{"coding":[{"system":"http://terminology.hl7.org/CodeSystem/v2-0203","code":"MR"}]},"system":"https://bonnie-fhir.healthit.gov/","value":"463131313187656"}],"name":[{"family":"NUMERPass","given":["ADT3MonthsBeforeMP"]}],"gender":"male","birthDate":"1969-06-15"},"request":{"method":"PUT","url":"Patient/05afd17d-f9a0-4588-bb3a-ffefd2f6c271"}},{"fullUrl":"https://madie.cms.gov/Encounter/98965313","resource":{"resourceType":"Encounter","id":"69fbb3df-f7a4-4509-8d9c-4409dc7bcdcc","meta":{"profile":["http://hl7.org/fhir/us/qicore/StructureDefinition/qicore-encounter"]},"status":"finished","class":{"system":"http://terminology.hl7.org/CodeSystem/v3-ActCode","code":"AMB","display":"ambulatory"},"type":[{"coding":[{"system":"http://snomed.info/sct","version":"http://snomed.info/sct/731000124108/version/20240301","code":"185463005","display":"Visit out of hours (procedure)"}]}],"subject":{"reference":"Patient/05afd17d-f9a0-4588-bb3a-ffefd2f6c271"},"period":{"start":"2025-01-01T08:00:00.000+00:00","end":"2025-01-01T08:15:00.000+00:00"}},"request":{"method":"PUT","url":"Encounter/69fbb3df-f7a4-4509-8d9c-4409dc7bcdcc"}},{"fullUrl":"https://madie.cms.gov/Condition/35463463113","resource":{"resourceType":"Condition","id":"573f02cb-1f4a-41c7-97bf-423c473567a4","meta":{"profile":["http://hl7.org/fhir/us/qicore/StructureDefinition/qicore-condition"]},"clinicalStatus":{"coding":[{"system":"http://terminology.hl7.org/CodeSystem/condition-clinical","code":"active","display":"Active","userSelected":true}]},"verificationStatus":{"coding":[{"system":"http://terminology.hl7.org/CodeSystem/condition-ver-status","code":"confirmed"}]},"category":[{"coding":[{"system":"http://terminology.hl7.org/CodeSystem/condition-category","code":"problem-list-item","display":"Problem List Item"}]}],"code":{"coding":[{"system":"http://snomed.info/sct","version":"http://snomed.info/sct/731000124108/version/20240301","code":"254900004","display":"Carcinoma of prostate (disorder)"}]},"subject":{"reference":"Patient/05afd17d-f9a0-4588-bb3a-ffefd2f6c271"},"onsetDateTime":"2024-09-30T08:00:00.000+00:00"},"request":{"method":"PUT","url":"Condition/573f02cb-1f4a-41c7-97bf-423c473567a4"}},{"fullUrl":"https://madie.cms.gov/Observation/1313113","resource":{"resourceType":"Observation","id":"cf2dbae1-01da-4a32-aa2e-085b2f754722","meta":{"profile":["http://hl7.org/fhir/us/qicore/StructureDefinition/qicore-observation"]},"status":"final","category":[{"coding":[{"system":"http://terminology.hl7.org/CodeSystem/observation-category","code":"imaging","display":"Imaging"}]}],"code":{"coding":[{"system":"http://loinc.org","version":"2.76","code":"38265-5","display":"DXA Radius and Ulna [T-score] Bone density"}]},"subject":{"reference":"Patient/05afd17d-f9a0-4588-bb3a-ffefd2f6c271"},"effectivePeriod":{"start":"2025-01-01T10:00:00.000+00:00"}},"request":{"method":"PUT","url":"Observation/cf2dbae1-01da-4a32-aa2e-085b2f754722"}},{"fullUrl":"https://madie.cms.gov/Practitioner/646346","resource":{"resourceType":"Practitioner","id":"2ecd7a25-5ce9-4e24-8b28-744eda367ac9","meta":{"profile":["http://hl7.org/fhir/us/qicore/StructureDefinition/qicore-practitioner"]},"identifier":[{"use":"temp","system":"urn:oid:2.16.840.1.113883.4.336","value":"Practitioner-23"}],"active":true,"name":[{"family":"Careful","given":["Adam"],"prefix":["Dr"]}],"address":[{"use":"home","line":["534 Erewhon St"],"city":"PleasantVille","state":"UT","postalCode":"84414"}],"qualification":[{"identifier":[{"system":"http://example.org/UniversityIdentifier","value":"12345"}],"code":{"coding":[{"system":"http://terminology.hl7.org/CodeSystem/v2-0360|2.7","code":"BS","display":"Bachelor of Science"}],"text":"Bachelor of Science"},"period":{"start":"1995"},"issuer":{"display":"Example University"}}]},"request":{"method":"PUT","url":"Practitioner/2ecd7a25-5ce9-4e24-8b28-744eda367ac9"}},{"fullUrl":"https://madie.cms.gov/MedicationRequest/64564646","resource":{"resourceType":"MedicationRequest","id":"9a3d8bc0-65b0-4142-9c52-cff56c72e266","meta":{"profile":["http://hl7.org/fhir/us/qicore/StructureDefinition/qicore-medicationrequest"]},"status":"active","intent":"order","doNotPerform":false,"medicationCodeableConcept":{"coding":[{"system":"http://www.nlm.nih.gov/research/umls/rxnorm","version":"04012024","code":"1115257","display":"1.5 ML leuprolide acetate 30 MG/ML Prefilled Syringe"}]},"subject":{"reference":"Patient/05afd17d-f9a0-4588-bb3a-ffefd2f6c271"},"authoredOn":"2024-10-01T08:00:00.000+00:00","requester":{"reference":"http://myGoodHealthcare.com/fhir/Practitioner/646346"},"dosageInstruction":[{"timing":{"repeat":{"boundsPeriod":{"start":"2024-10-01T08:00:00.000+00:00","end":"2024-11-01T08:00:00.000+00:00"}}}}]},"request":{"method":"PUT","url":"MedicationRequest/9a3d8bc0-65b0-4142-9c52-cff56c72e266"}},{"fullUrl":"https://madie.cms.gov/ServiceRequest/764645645","resource":{"resourceType":"ServiceRequest","id":"c3f253df-ae80-4307-9166-d42e4948b495","meta":{"profile":["http://hl7.org/fhir/us/qicore/StructureDefinition/qicore-servicerequest"]},"status":"active","intent":"order","code":{"coding":[{"system":"http://snomed.info/sct","version":"http://snomed.info/sct/731000124108/version/20240301","code":"456381000124102","display":"Injection of leuprolide acetate for twelve month period (regime/therapy)"}]},"subject":{"reference":"Patient/05afd17d-f9a0-4588-bb3a-ffefd2f6c271"},"authoredOn":"2024-10-01T08:00:00.000+00:00"},"request":{"method":"PUT","url":"ServiceRequest/c3f253df-ae80-4307-9166-d42e4948b495"}},{"fullUrl":"https://madie.cms.gov/MeasureReport/ddae50e5-8d04-4268-a50d-8616ef7189a1","resource":{"resourceType":"MeasureReport","id":"ddae50e5-8d04-4268-a50d-8616ef7189a1","meta":{"profile":["http://hl7.org/fhir/us/cqfmeasures/StructureDefinition/test-case-cqfm"]},"contained":[{"resourceType":"Parameters","id":"81c100c8-6ef4-45f1-aa63-2673e8b1ae61-parameters","parameter":[{"name":"subject","valueString":"05afd17d-f9a0-4588-bb3a-ffefd2f6c271"}]}],"extension":[{"url":"http://hl7.org/fhir/us/cqfmeasures/StructureDefinition/cqfm-inputParameters","valueReference":{"reference":"#81c100c8-6ef4-45f1-aa63-2673e8b1ae61-parameters"}},{"url":"http://hl7.org/fhir/us/cqfmeasures/StructureDefinition/cqfm-testCaseDescription","valueMarkdown":"Dx of Prostate Cancer and qualifying encounters. ADT 3 months before MP, DEXA within 3 mo after ADT. Edge. Passes NUMER criteria as expected."}],"modifierExtension":[{"url":"http://hl7.org/fhir/us/cqfmeasures/StructureDefinition/cqfm-isTestCase","valueBoolean":true}],"status":"complete","type":"individual","measure":"https://madie.cms.gov/Measure/BoneDensityProstateCancerAndrogenDeprivationTherapyFHIR","period":{"start":"2025-01-01","end":"2025-12-31"},"group":[{"population":[{"code":{"coding":[{"system":"http://terminology.hl7.org/CodeSystem/measure-population","code":"initial-population","display":"Initial Population"}]},"count":1},{"code":{"coding":[{"system":"http://terminology.hl7.org/CodeSystem/measure-population","code":"denominator","display":"Denominator"}]},"count":1},{"code":{"coding":[{"system":"http://terminology.hl7.org/CodeSystem/measure-population","code":"numerator","display":"Numerator"}]},"count":1},{"code":{"coding":[{"system":"http://terminology.hl7.org/CodeSystem/measure-population","code":"denominator-exception","display":"Denominator Exception"}]},"count":0}]}]},"request":{"method":"PUT","url":"MeasureReport/ddae50e5-8d04-4268-a50d-8616ef7189a1"}}]}