{"resourceType":"Bundle","id":"tests-8068a81d-feca-4719-aa75-cb45df5428e7-bundle","type":"transaction","entry":[{"fullUrl":"https://madie.cms.gov/Patient/8068a81d-feca-4719-aa75-cb45df5428e7","resource":{"resourceType":"Patient","id":"8068a81d-feca-4719-aa75-cb45df5428e7","meta":{"profile":["http://hl7.org/fhir/us/qicore/StructureDefinition/qicore-patient"]},"extension":[{"url":"http://hl7.org/fhir/us/core/StructureDefinition/us-core-race","extension":[{"url":"ombCategory","valueCoding":{"system":"urn:oid:2.16.840.1.113883.6.238","code":"1002-5","display":"American Indian or Alaska Native","userSelected":true}},{"url":"text","valueString":"American Indian or Alaska Native"}]},{"url":"http://hl7.org/fhir/us/core/StructureDefinition/us-core-ethnicity","extension":[{"url":"ombCategory","valueCoding":{"system":"urn:oid:2.16.840.1.113883.6.238","code":"2135-2","display":"Hispanic or Latino","userSelected":true}},{"url":"text","valueString":"Hispanic or Latino"}]}],"identifier":[{"type":{"coding":[{"system":"http://terminology.hl7.org/CodeSystem/v2-0203","code":"MR"}]},"system":"https://bonnie-fhir.healthit.gov","value":"62bc61713e113102f8cedc8b"}],"active":true,"name":[{"family":"DENOMPass","given":["PCaDxBeforeMP"]}],"gender":"male","birthDate":"1951-10-10"},"request":{"method":"PUT","url":"Patient/8068a81d-feca-4719-aa75-cb45df5428e7"}},{"fullUrl":"https://madie.cms.gov/Encounter/3adsf13adf13","resource":{"resourceType":"Encounter","id":"97cd82d3-9ad5-4c99-b200-86407a458fbf","meta":{"profile":["http://hl7.org/fhir/us/qicore/StructureDefinition/qicore-encounter"]},"status":"finished","class":{"system":"http://terminology.hl7.org/CodeSystem/v3-ActCode","code":"AMB","display":"ambulatory"},"type":[{"coding":[{"system":"http://www.ama-assn.org/go/cpt","code":"99203"}]}],"subject":{"reference":"Patient/8068a81d-feca-4719-aa75-cb45df5428e7"},"period":{"start":"2025-02-01T08:00:00+00:00","end":"2025-02-01T08:15:00+00:00"}},"request":{"method":"PUT","url":"Encounter/97cd82d3-9ad5-4c99-b200-86407a458fbf"}},{"fullUrl":"https://madie.cms.gov/Condition/3a213543211","resource":{"resourceType":"Condition","id":"a323e450-e2ef-4ba9-9e56-859f4a985769","meta":{"profile":["http://hl7.org/fhir/us/qicore/StructureDefinition/qicore-condition"]},"clinicalStatus":{"coding":[{"system":"http://terminology.hl7.org/CodeSystem/condition-clinical","code":"active"}]},"verificationStatus":{"coding":[{"system":"http://terminology.hl7.org/CodeSystem/condition-ver-status","code":"confirmed"}]},"category":[{"coding":[{"system":"http://terminology.hl7.org/CodeSystem/condition-category","code":"problem-list-item","display":"Problem List Item"}]}],"code":{"coding":[{"system":"http://snomed.info/sct","version":"http://snomed.info/sct/731000124108/version/20240401","code":"254900004","display":"Carcinoma of prostate (disorder)"}]},"subject":{"reference":"Patient/8068a81d-feca-4719-aa75-cb45df5428e7"},"onsetPeriod":{"start":"2021-03-15T08:00:00.000+00:00"}},"request":{"method":"PUT","url":"Condition/a323e450-e2ef-4ba9-9e56-859f4a985769"}},{"fullUrl":"https://madie.cms.gov/MedicationRequest/3216351asdf3","resource":{"resourceType":"MedicationRequest","id":"ab099c15-675a-494b-90ce-cf48a14cef6b","meta":{"profile":["http://hl7.org/fhir/us/qicore/StructureDefinition/qicore-medicationrequest"]},"status":"active","intent":"order","medicationCodeableConcept":{"coding":[{"system":"http://www.nlm.nih.gov/research/umls/rxnorm","code":"1115257","display":"1.5 ML leuprolide acetate 30 MG/ML Prefilled Syringe"}]},"subject":{"reference":"Patient/8068a81d-feca-4719-aa75-cb45df5428e7"},"authoredOn":"2025-03-15T08:00:00.000+00:00","requester":{"reference":"http://myGoodHealthcare.com/fhir/Practitioner/646346"},"dosageInstruction":[{"timing":{"repeat":{"boundsPeriod":{"start":"2025-03-15T08:00:00.000+00:00","end":"2025-04-15T08:15:00.000+00:00"}}}}]},"request":{"method":"PUT","url":"MedicationRequest/ab099c15-675a-494b-90ce-cf48a14cef6b"}},{"fullUrl":"https://madie.cms.gov/ServiceRequest/13213517454","resource":{"resourceType":"ServiceRequest","id":"6873a673-5851-4fa1-9a8e-f684e517a118","meta":{"profile":["http://hl7.org/fhir/us/qicore/StructureDefinition/qicore-servicerequest"]},"status":"active","intent":"order","code":{"coding":[{"system":"http://snomed.info/sct","code":"456381000124102","display":"Injection of leuprolide acetate for twelve month period (regime/therapy)"}]},"subject":{"reference":"Patient/8068a81d-feca-4719-aa75-cb45df5428e7"},"authoredOn":"2025-03-15T08:00:00.000+00:00"},"request":{"method":"PUT","url":"ServiceRequest/6873a673-5851-4fa1-9a8e-f684e517a118"}},{"fullUrl":"https://madie.cms.gov/Practitioner/646346","resource":{"resourceType":"Practitioner","id":"ba86162a-0e2d-441c-a429-70f8b6e90e6a","meta":{"profile":["http://hl7.org/fhir/us/qicore/StructureDefinition/qicore-practitioner"]},"identifier":[{"use":"temp","system":"urn:oid:2.16.840.1.113883.4.336","value":"Practitioner-23"}],"active":true,"name":[{"family":"Careful","given":["Adam"],"prefix":["Dr"]}],"address":[{"use":"home","line":["534 Erewhon St"],"city":"PleasantVille","state":"UT","postalCode":"84414"}],"qualification":[{"identifier":[{"system":"http://example.org/UniversityIdentifier","value":"12345"}],"code":{"coding":[{"system":"http://terminology.hl7.org/CodeSystem/v2-0360|2.7","code":"BS","display":"Bachelor of Science"}],"text":"Bachelor of Science"},"period":{"start":"1995"},"issuer":{"display":"Example University"}}]},"request":{"method":"PUT","url":"Practitioner/ba86162a-0e2d-441c-a429-70f8b6e90e6a"}},{"fullUrl":"https://madie.cms.gov/MeasureReport/99e0bc73-2add-49b7-a29d-68eab46b1f03","resource":{"resourceType":"MeasureReport","id":"99e0bc73-2add-49b7-a29d-68eab46b1f03","meta":{"profile":["http://hl7.org/fhir/us/cqfmeasures/StructureDefinition/test-case-cqfm"]},"contained":[{"resourceType":"Parameters","id":"1f78a187-8f0a-4cc6-a447-ac4da13a87c5-parameters","parameter":[{"name":"subject","valueString":"8068a81d-feca-4719-aa75-cb45df5428e7"}]}],"extension":[{"url":"http://hl7.org/fhir/us/cqfmeasures/StructureDefinition/cqfm-inputParameters","valueReference":{"reference":"#1f78a187-8f0a-4cc6-a447-ac4da13a87c5-parameters"}},{"url":"http://hl7.org/fhir/us/cqfmeasures/StructureDefinition/cqfm-testCaseDescription","valueMarkdown":"Dx of Prostate Cancer 3 years before measurement period begins.  OV, ADT and procedure order in MP.  Typical situation.  Passes IPP and Denom as expected."}],"modifierExtension":[{"url":"http://hl7.org/fhir/us/cqfmeasures/StructureDefinition/cqfm-isTestCase","valueBoolean":true}],"status":"complete","type":"individual","measure":"https://madie.cms.gov/Measure/BoneDensityProstateCancerAndrogenDeprivationTherapyFHIR","period":{"start":"2025-01-01","end":"2025-12-31"},"group":[{"population":[{"code":{"coding":[{"system":"http://terminology.hl7.org/CodeSystem/measure-population","code":"initial-population","display":"Initial Population"}]},"count":1},{"code":{"coding":[{"system":"http://terminology.hl7.org/CodeSystem/measure-population","code":"denominator","display":"Denominator"}]},"count":1},{"code":{"coding":[{"system":"http://terminology.hl7.org/CodeSystem/measure-population","code":"numerator","display":"Numerator"}]},"count":0},{"code":{"coding":[{"system":"http://terminology.hl7.org/CodeSystem/measure-population","code":"denominator-exception","display":"Denominator Exception"}]},"count":0}]}]},"request":{"method":"PUT","url":"MeasureReport/99e0bc73-2add-49b7-a29d-68eab46b1f03"}}]}