{"resourceType":"Bundle","id":"tests-2a1d8b51-131f-4552-90f7-59ca5a7979ce-bundle","type":"transaction","entry":[{"fullUrl":"https://madie.cms.gov/Patient/2a1d8b51-131f-4552-90f7-59ca5a7979ce","resource":{"resourceType":"Patient","id":"2a1d8b51-131f-4552-90f7-59ca5a7979ce","meta":{"profile":["http://hl7.org/fhir/us/qicore/StructureDefinition/qicore-patient"]},"extension":[{"url":"http://hl7.org/fhir/us/core/StructureDefinition/us-core-race","extension":[{"url":"ombCategory","valueCoding":{"system":"urn:oid:2.16.840.1.113883.6.238","code":"2054-5","display":"Black or African American","userSelected":true}},{"url":"text","valueString":"Black or African American"}]},{"url":"http://hl7.org/fhir/us/core/StructureDefinition/us-core-ethnicity","extension":[{"url":"ombCategory","valueCoding":{"system":"urn:oid:2.16.840.1.113883.6.238","code":"2186-5","display":"Not Hispanic or Latino","userSelected":true}},{"url":"text","valueString":"Not Hispanic or Latino"}]}],"identifier":[{"type":{"coding":[{"system":"http://terminology.hl7.org/CodeSystem/v2-0203","code":"MR"}]},"system":"https://bonnie-fhir.healthit.gov/","value":"60abda28bf0a01003e3f76bd"}],"name":[{"family":"NUMERPass","given":["DEXA2YearsBeforeADT"]}],"gender":"male","birthDate":"1946-07-15"},"request":{"method":"PUT","url":"Patient/2a1d8b51-131f-4552-90f7-59ca5a7979ce"}},{"fullUrl":"https://madie.cms.gov/Encounter/98965313","resource":{"resourceType":"Encounter","id":"b43711f5-3e46-4167-97cc-f9e6ec967691","meta":{"profile":["http://hl7.org/fhir/us/qicore/StructureDefinition/qicore-encounter"]},"status":"finished","class":{"system":"http://terminology.hl7.org/CodeSystem/v3-ActCode","code":"AMB","display":"ambulatory"},"type":[{"coding":[{"system":"http://snomed.info/sct","version":"2021-09","code":"185463005","display":"Visit out of hours (procedure)","userSelected":true}]}],"subject":{"reference":"Patient/2a1d8b51-131f-4552-90f7-59ca5a7979ce"},"period":{"start":"2025-06-05T08:00:00.000+00:00","end":"2025-06-05T08:15:00.000+00:00"}},"request":{"method":"PUT","url":"Encounter/b43711f5-3e46-4167-97cc-f9e6ec967691"}},{"fullUrl":"https://madie.cms.gov/Condition/35463463113","resource":{"resourceType":"Condition","id":"0928265f-bdc1-4e7f-83f7-2d34fceaa8e2","meta":{"profile":["http://hl7.org/fhir/us/qicore/StructureDefinition/qicore-condition"]},"clinicalStatus":{"coding":[{"system":"http://terminology.hl7.org/CodeSystem/condition-clinical","code":"active","display":"Active","userSelected":true}]},"verificationStatus":{"coding":[{"system":"http://terminology.hl7.org/CodeSystem/condition-ver-status","code":"confirmed"}]},"category":[{"coding":[{"system":"http://terminology.hl7.org/CodeSystem/condition-category","code":"problem-list-item","display":"Problem List Item"}]}],"code":{"coding":[{"system":"http://snomed.info/sct","version":"2021-09","code":"254900004","display":"Carcinoma of prostate (disorder)","userSelected":true}]},"subject":{"reference":"Patient/2a1d8b51-131f-4552-90f7-59ca5a7979ce"},"onsetPeriod":{"start":"2025-05-30T08:00:00.000+00:00"}},"request":{"method":"PUT","url":"Condition/0928265f-bdc1-4e7f-83f7-2d34fceaa8e2"}},{"fullUrl":"https://madie.cms.gov/Observation/1313113","resource":{"resourceType":"Observation","id":"9ed65f27-ec6d-4244-ab02-ffc837b32743","meta":{"profile":["http://hl7.org/fhir/us/qicore/StructureDefinition/qicore-observation"]},"status":"final","category":[{"coding":[{"system":"http://terminology.hl7.org/CodeSystem/observation-category","code":"imaging","display":"Imaging"}]}],"code":{"coding":[{"system":"http://loinc.org","version":"2.69","code":"38265-5","display":"DXA Radius and Ulna [T-score] Bone density","userSelected":true}]},"subject":{"reference":"Patient/2a1d8b51-131f-4552-90f7-59ca5a7979ce"},"effectiveDateTime":"2023-06-05T10:00:00.000+00:00"},"request":{"method":"PUT","url":"Observation/9ed65f27-ec6d-4244-ab02-ffc837b32743"}},{"fullUrl":"https://madie.cms.gov/Practitioner/646346","resource":{"resourceType":"Practitioner","id":"29db657b-e9d9-4250-bc70-5363aff395bb","meta":{"profile":["http://hl7.org/fhir/us/qicore/StructureDefinition/qicore-practitioner"]},"identifier":[{"use":"temp","system":"urn:oid:2.16.840.1.113883.4.336","value":"Practitioner-23"}],"active":true,"name":[{"family":"Careful","given":["Adam"],"prefix":["Dr"]}],"address":[{"use":"home","line":["534 Erewhon St"],"city":"PleasantVille","state":"UT","postalCode":"84414"}],"qualification":[{"identifier":[{"system":"http://example.org/UniversityIdentifier","value":"12345"}],"code":{"coding":[{"system":"http://terminology.hl7.org/CodeSystem/v2-0360|2.7","code":"BS","display":"Bachelor of Science"}],"text":"Bachelor of Science"},"period":{"start":"1995"},"issuer":{"display":"Example University"}}]},"request":{"method":"PUT","url":"Practitioner/29db657b-e9d9-4250-bc70-5363aff395bb"}},{"fullUrl":"https://madie.cms.gov/MedicationRequest/64564646","resource":{"resourceType":"MedicationRequest","id":"a023e232-d484-4d79-a28d-21a1a2119d54","meta":{"profile":["http://hl7.org/fhir/us/qicore/StructureDefinition/qicore-medicationrequest"]},"status":"active","intent":"order","medicationCodeableConcept":{"coding":[{"system":"http://www.nlm.nih.gov/research/umls/rxnorm","code":"1115257","display":"1.5 ML leuprolide acetate 30 MG/ML Prefilled Syringe","userSelected":true}]},"subject":{"reference":"Patient/2a1d8b51-131f-4552-90f7-59ca5a7979ce"},"authoredOn":"2025-06-05T08:00:00.000+00:00","requester":{"reference":"http://myGoodHealthcare.com/fhir/Practitioner/646346"},"dosageInstruction":[{"timing":{"repeat":{"boundsPeriod":{"start":"2025-06-05T08:00:00.000+00:00","end":"2025-07-05T08:00:00.000+00:00"}}}}]},"request":{"method":"PUT","url":"MedicationRequest/a023e232-d484-4d79-a28d-21a1a2119d54"}},{"fullUrl":"https://madie.cms.gov/ServiceRequest/764645645","resource":{"resourceType":"ServiceRequest","id":"9631f736-650e-4ac0-bd0a-804d9a5f52c3","meta":{"profile":["http://hl7.org/fhir/us/qicore/StructureDefinition/qicore-servicerequest"]},"status":"active","intent":"order","code":{"coding":[{"system":"http://snomed.info/sct","code":"456381000124102","display":"Injection of leuprolide acetate for twelve month period (regime/therapy)","userSelected":true}]},"subject":{"reference":"Patient/2a1d8b51-131f-4552-90f7-59ca5a7979ce"},"authoredOn":"2025-06-05T08:00:00.000+00:00"},"request":{"method":"PUT","url":"ServiceRequest/9631f736-650e-4ac0-bd0a-804d9a5f52c3"}},{"fullUrl":"https://madie.cms.gov/MeasureReport/1927d310-f547-43f0-838d-ab20ee07f64b","resource":{"resourceType":"MeasureReport","id":"1927d310-f547-43f0-838d-ab20ee07f64b","meta":{"profile":["http://hl7.org/fhir/us/cqfmeasures/StructureDefinition/test-case-cqfm"]},"contained":[{"resourceType":"Parameters","id":"c4cba0ee-954c-40c6-bf74-b8890067c17d-parameters","parameter":[{"name":"subject","valueString":"2a1d8b51-131f-4552-90f7-59ca5a7979ce"}]}],"extension":[{"url":"http://hl7.org/fhir/us/cqfmeasures/StructureDefinition/cqfm-inputParameters","valueReference":{"reference":"#c4cba0ee-954c-40c6-bf74-b8890067c17d-parameters"}},{"url":"http://hl7.org/fhir/us/cqfmeasures/StructureDefinition/cqfm-testCaseDescription","valueMarkdown":"Encounter Office Visit in MP.  Dx Prostate Cancer in MP. Procedure \nOrdered. DEXA 2 years before start of ADR. Edge. NUMER Criteria Pass"}],"modifierExtension":[{"url":"http://hl7.org/fhir/us/cqfmeasures/StructureDefinition/cqfm-isTestCase","valueBoolean":true}],"status":"complete","type":"individual","measure":"https://madie.cms.gov/Measure/BoneDensityProstateCancerAndrogenDeprivationTherapyFHIR","period":{"start":"2025-01-01","end":"2025-12-31"},"group":[{"population":[{"code":{"coding":[{"system":"http://terminology.hl7.org/CodeSystem/measure-population","code":"initial-population","display":"Initial Population"}]},"count":1},{"code":{"coding":[{"system":"http://terminology.hl7.org/CodeSystem/measure-population","code":"denominator","display":"Denominator"}]},"count":1},{"code":{"coding":[{"system":"http://terminology.hl7.org/CodeSystem/measure-population","code":"numerator","display":"Numerator"}]},"count":1},{"code":{"coding":[{"system":"http://terminology.hl7.org/CodeSystem/measure-population","code":"denominator-exception","display":"Denominator Exception"}]},"count":0}]}]},"request":{"method":"PUT","url":"MeasureReport/1927d310-f547-43f0-838d-ab20ee07f64b"}}]}