{"resourceType":"Bundle","id":"tests-959743cc-af58-48ff-afa3-68428e69f0f5-bundle","type":"transaction","entry":[{"fullUrl":"https://madie.cms.gov/Patient/959743cc-af58-48ff-afa3-68428e69f0f5","resource":{"resourceType":"Patient","id":"959743cc-af58-48ff-afa3-68428e69f0f5","meta":{"profile":["http://hl7.org/fhir/us/qicore/StructureDefinition/qicore-patient"]},"extension":[{"url":"http://hl7.org/fhir/us/core/StructureDefinition/us-core-race","extension":[{"url":"ombCategory","valueCoding":{"system":"urn:oid:2.16.840.1.113883.6.238","code":"2054-5","display":"Black or African American"}},{"url":"text","valueString":"Black or African American"}]},{"url":"http://hl7.org/fhir/us/core/StructureDefinition/us-core-ethnicity","extension":[{"url":"ombCategory","valueCoding":{"system":"urn:oid:2.16.840.1.113883.6.238","code":"2186-5","display":"Not Hispanic or Latino"}},{"url":"text","valueString":"Not Hispanic or Latino"}]}],"identifier":[{"type":{"coding":[{"system":"http://terminology.hl7.org/CodeSystem/v2-0203","code":"MR"}]},"system":"https://bonnie-fhir.healthit.gov/","value":"4616351646135312"}],"name":[{"family":"NUMERFail","given":["DexaDoNotPerformTrue"]}],"gender":"male","birthDate":"1953-06-15"},"request":{"method":"PUT","url":"Patient/959743cc-af58-48ff-afa3-68428e69f0f5"}},{"fullUrl":"https://madie.cms.gov/Encounter/98965313","resource":{"resourceType":"Encounter","id":"2dc9c681-091c-478c-bd15-47e3cdab77bb","meta":{"profile":["http://hl7.org/fhir/us/qicore/StructureDefinition/qicore-encounter"]},"status":"finished","class":{"system":"http://terminology.hl7.org/CodeSystem/v3-ActCode","code":"AMB","display":"ambulatory"},"type":[{"coding":[{"system":"http://snomed.info/sct","version":"http://snomed.info/sct/731000124108/version/20240301","code":"185463005","display":"Visit out of hours (procedure)"}]}],"subject":{"reference":"Patient/959743cc-af58-48ff-afa3-68428e69f0f5"},"period":{"start":"2025-02-04T08:00:00.000+00:00","end":"2025-02-04T08:15:00.000+00:00"}},"request":{"method":"PUT","url":"Encounter/2dc9c681-091c-478c-bd15-47e3cdab77bb"}},{"fullUrl":"https://madie.cms.gov/Condition/35463463113","resource":{"resourceType":"Condition","id":"30200884-e7a6-44a1-bf99-6e02c85fcede","meta":{"profile":["http://hl7.org/fhir/us/qicore/StructureDefinition/qicore-condition"]},"clinicalStatus":{"coding":[{"system":"http://terminology.hl7.org/CodeSystem/condition-clinical","code":"active","display":"Active"}]},"verificationStatus":{"coding":[{"system":"http://terminology.hl7.org/CodeSystem/condition-ver-status","code":"confirmed"}]},"category":[{"coding":[{"system":"http://terminology.hl7.org/CodeSystem/condition-category","code":"problem-list-item","display":"Problem List Item"}]}],"code":{"coding":[{"system":"http://snomed.info/sct","version":"http://snomed.info/sct/731000124108/version/20240301","code":"254900004","display":"Carcinoma of prostate (disorder)"}]},"subject":{"reference":"Patient/959743cc-af58-48ff-afa3-68428e69f0f5"},"onsetPeriod":{"start":"2024-10-04T08:00:00.000+00:00"}},"request":{"method":"PUT","url":"Condition/30200884-e7a6-44a1-bf99-6e02c85fcede"}},{"fullUrl":"https://madie.cms.gov/ServiceRequest/1313113","resource":{"resourceType":"ServiceRequest","id":"2e5ec86f-4ec5-456b-8b1a-3bfc63609d0f","meta":{"profile":["http://hl7.org/fhir/us/qicore/StructureDefinition/qicore-servicerequest"]},"status":"completed","intent":"order","doNotPerform":true,"code":{"coding":[{"system":"http://loinc.org","version":"2.76","code":"38265-5","display":"DXA Radius and Ulna [T-score] Bone density"}]},"subject":{"reference":"Patient/959743cc-af58-48ff-afa3-68428e69f0f5"},"authoredOn":"2024-05-04T10:00:00.000+00:00"},"request":{"method":"PUT","url":"ServiceRequest/2e5ec86f-4ec5-456b-8b1a-3bfc63609d0f"}},{"fullUrl":"https://madie.cms.gov/Practitioner/646346","resource":{"resourceType":"Practitioner","id":"4ca7afe3-fa3a-423b-81ad-4344b272965b","meta":{"profile":["http://hl7.org/fhir/us/qicore/StructureDefinition/qicore-practitioner"]},"identifier":[{"use":"temp","system":"urn:oid:2.16.840.1.113883.4.336","value":"Practitioner-23"}],"active":true,"name":[{"family":"Careful","given":["Adam"],"prefix":["Dr"]}],"address":[{"use":"home","line":["534 Erewhon St"],"city":"PleasantVille","state":"UT","postalCode":"84414"}],"qualification":[{"identifier":[{"system":"http://example.org/UniversityIdentifier","value":"12345"}],"code":{"coding":[{"system":"http://terminology.hl7.org/CodeSystem/v2-0360|2.7","code":"BS","display":"Bachelor of Science"}],"text":"Bachelor of Science"},"period":{"start":"1995"},"issuer":{"display":"Example University"}}]},"request":{"method":"PUT","url":"Practitioner/4ca7afe3-fa3a-423b-81ad-4344b272965b"}},{"fullUrl":"https://madie.cms.gov/MedicationRequest/64564646","resource":{"resourceType":"MedicationRequest","id":"52ff9ac9-0954-42ae-9a08-1414599e13c2","meta":{"profile":["http://hl7.org/fhir/us/qicore/StructureDefinition/qicore-medicationrequest"]},"status":"active","intent":"order","medicationCodeableConcept":{"coding":[{"system":"http://www.nlm.nih.gov/research/umls/rxnorm","version":"04012024","code":"1115257","display":"1.5 ML leuprolide acetate 30 MG/ML Prefilled Syringe"}]},"subject":{"reference":"Patient/959743cc-af58-48ff-afa3-68428e69f0f5"},"authoredOn":"2024-12-03T08:00:00.000+00:00","requester":{"reference":"http://myGoodHealthcare.com/fhir/Practitioner/646346"},"dosageInstruction":[{"timing":{"repeat":{"boundsPeriod":{"start":"2024-12-03T08:00:00.000+00:00","end":"2025-03-04T08:00:00.000+00:00"}}}}]},"request":{"method":"PUT","url":"MedicationRequest/52ff9ac9-0954-42ae-9a08-1414599e13c2"}},{"fullUrl":"https://madie.cms.gov/ServiceRequest/764645645","resource":{"resourceType":"ServiceRequest","id":"3cff4b69-c1b5-4c7b-884d-b2a7796aa876","meta":{"profile":["http://hl7.org/fhir/us/qicore/StructureDefinition/qicore-servicerequest"]},"status":"active","intent":"order","code":{"coding":[{"system":"http://snomed.info/sct","version":"http://snomed.info/sct/731000124108/version/20240301","code":"456381000124102","display":"Injection of leuprolide acetate for twelve month period (regime/therapy)"}]},"subject":{"reference":"Patient/959743cc-af58-48ff-afa3-68428e69f0f5"},"authoredOn":"2024-12-04T08:00:00.000+00:00"},"request":{"method":"PUT","url":"ServiceRequest/3cff4b69-c1b5-4c7b-884d-b2a7796aa876"}},{"fullUrl":"https://madie.cms.gov/MeasureReport/46c5c0a3-8bad-406b-b8fd-b58fd8a7a161","resource":{"resourceType":"MeasureReport","id":"46c5c0a3-8bad-406b-b8fd-b58fd8a7a161","meta":{"profile":["http://hl7.org/fhir/us/cqfmeasures/StructureDefinition/test-case-cqfm"]},"contained":[{"resourceType":"Parameters","id":"0ddaab52-f3a0-4807-bda4-e919edecdf13-parameters","parameter":[{"name":"subject","valueString":"959743cc-af58-48ff-afa3-68428e69f0f5"}]}],"extension":[{"url":"http://hl7.org/fhir/us/cqfmeasures/StructureDefinition/cqfm-inputParameters","valueReference":{"reference":"#0ddaab52-f3a0-4807-bda4-e919edecdf13-parameters"}},{"url":"http://hl7.org/fhir/us/cqfmeasures/StructureDefinition/cqfm-testCaseDescription","valueMarkdown":"Case to cover QI-Core issue with doNotPerform for DEXA Service Request"}],"modifierExtension":[{"url":"http://hl7.org/fhir/us/cqfmeasures/StructureDefinition/cqfm-isTestCase","valueBoolean":true}],"status":"complete","type":"individual","measure":"https://madie.cms.gov/Measure/BoneDensityProstateCancerAndrogenDeprivationTherapyFHIR","period":{"start":"2025-01-01","end":"2025-12-31"},"group":[{"population":[{"code":{"coding":[{"system":"http://terminology.hl7.org/CodeSystem/measure-population","code":"initial-population","display":"Initial Population"}]},"count":1},{"code":{"coding":[{"system":"http://terminology.hl7.org/CodeSystem/measure-population","code":"denominator","display":"Denominator"}]},"count":1},{"code":{"coding":[{"system":"http://terminology.hl7.org/CodeSystem/measure-population","code":"numerator","display":"Numerator"}]},"count":0},{"code":{"coding":[{"system":"http://terminology.hl7.org/CodeSystem/measure-population","code":"denominator-exception","display":"Denominator Exception"}]},"count":0}]}]},"request":{"method":"PUT","url":"MeasureReport/46c5c0a3-8bad-406b-b8fd-b58fd8a7a161"}}]}