{"resourceType":"Bundle","id":"tests-c547ef66-e305-41b1-af22-721950fb2911-bundle","type":"transaction","entry":[{"fullUrl":"https://madie.cms.gov/Patient/c547ef66-e305-41b1-af22-721950fb2911","resource":{"resourceType":"Patient","id":"c547ef66-e305-41b1-af22-721950fb2911","meta":{"profile":["http://hl7.org/fhir/us/qicore/StructureDefinition/qicore-patient"]},"extension":[{"url":"http://hl7.org/fhir/us/core/StructureDefinition/us-core-race","extension":[{"url":"ombCategory","valueCoding":{"system":"urn:oid:2.16.840.1.113883.6.238","code":"2028-9","display":"Asian","userSelected":true}},{"url":"text","valueString":"Asian"}]},{"url":"http://hl7.org/fhir/us/core/StructureDefinition/us-core-ethnicity","extension":[{"url":"ombCategory","valueCoding":{"system":"urn:oid:2.16.840.1.113883.6.238","code":"2186-5","display":"Not Hispanic or Latino","userSelected":true}},{"url":"text","valueString":"Not Hispanic or Latino"}]}],"identifier":[{"type":{"coding":[{"system":"http://terminology.hl7.org/CodeSystem/v2-0203","code":"MR"}]},"system":"https://bonnie-fhir.healthit.gov/","value":"610d3a53be3d5dcbc43d6777"}],"name":[{"family":"IPPass","given":["QualEncountersWithDementia"]}],"gender":"female","birthDate":"1968-03-02"},"request":{"method":"PUT","url":"Patient/c547ef66-e305-41b1-af22-721950fb2911"}},{"fullUrl":"https://madie.cms.gov/Encounter/300320001","resource":{"resourceType":"Encounter","id":"be0c7ba1-04af-4b64-84cf-89295e7f5303","meta":{"profile":["http://hl7.org/fhir/us/qicore/StructureDefinition/qicore-encounter"]},"status":"finished","class":{"system":"http://terminology.hl7.org/CodeSystem/v3-ActCode","code":"AMB","display":"ambulatory","userSelected":true},"type":[{"coding":[{"system":"http://snomed.info/sct","version":"http://snomed.info/sct/731000124108/version/202303","code":"185460008","display":"Home visit request by patient (procedure)","userSelected":true}]}],"subject":{"reference":"Patient/c547ef66-e305-41b1-af22-721950fb2911"},"period":{"start":"2025-08-06T08:00:00.000+00:00","end":"2025-08-10T08:15:00.000+00:00"}},"request":{"method":"PUT","url":"Encounter/be0c7ba1-04af-4b64-84cf-89295e7f5303"}},{"fullUrl":"https://madie.cms.gov/Condition/300320002","resource":{"resourceType":"Condition","id":"faec2332-f173-49f4-bd72-fd792216922d","meta":{"profile":["http://hl7.org/fhir/us/qicore/StructureDefinition/qicore-condition"]},"clinicalStatus":{"coding":[{"system":"http://terminology.hl7.org/CodeSystem/condition-clinical","code":"active","display":"active","userSelected":true}]},"category":[{"coding":[{"system":"http://terminology.hl7.org/CodeSystem/condition-category","code":"problem-list-item","display":"Problem List Item"}]}],"code":{"coding":[{"system":"http://snomed.info/sct","version":"http://snomed.info/sct/731000124108/version/202303","code":"10349009","display":"Multi-infarct dementia with delirium (disorder)","userSelected":true}]},"subject":{"reference":"Patient/c547ef66-e305-41b1-af22-721950fb2911"},"onsetDateTime":"2025-08-06T08:00:00.000+00:00"},"request":{"method":"PUT","url":"Condition/faec2332-f173-49f4-bd72-fd792216922d"}},{"fullUrl":"https://madie.cms.gov/Encounter/300320003","resource":{"resourceType":"Encounter","id":"7fb5edc9-d968-40b4-9332-5115539825c2","meta":{"profile":["http://hl7.org/fhir/us/qicore/StructureDefinition/qicore-encounter"]},"status":"finished","class":{"system":"http://terminology.hl7.org/CodeSystem/v3-ActCode","code":"AMB","display":"ambulatory","userSelected":true},"type":[{"coding":[{"system":"http://snomed.info/sct","version":"http://snomed.info/sct/731000124108/version/202303","code":"185316007","display":"Indirect encounter (procedure)","userSelected":true}]}],"subject":{"reference":"Patient/c547ef66-e305-41b1-af22-721950fb2911"},"period":{"start":"2025-08-06T08:00:00.000+00:00","end":"2025-08-10T08:15:00.000+00:00"},"diagnosis":[{"condition":{"reference":"Condition/dementia-mental-degenerations-5d61"}}]},"request":{"method":"PUT","url":"Encounter/7fb5edc9-d968-40b4-9332-5115539825c2"}},{"fullUrl":"https://madie.cms.gov/Condition/300320004","resource":{"resourceType":"Condition","id":"f6f1c111-358a-4d4d-ab2f-cfd61ce5417a","category":[{"coding":[{"system":"http://terminology.hl7.org/CodeSystem/condition-category","code":"encounter-diagnosis","display":"Encounter Diagnosis"}]}],"code":{"coding":[{"system":"http://snomed.info/sct","version":"http://snomed.info/sct/731000124108/version/202303","code":"10349009","display":"Multi-infarct dementia with delirium (disorder)","userSelected":true}]},"subject":{"reference":"Patient/c547ef66-e305-41b1-af22-721950fb2911"},"onsetPeriod":{"start":"2023-08-05T08:00:00.000+00:00","end":"2023-08-11T08:15:00.000+00:00"}},"request":{"method":"PUT","url":"Condition/f6f1c111-358a-4d4d-ab2f-cfd61ce5417a"}},{"fullUrl":"https://madie.cms.gov/Coverage/300320005","resource":{"resourceType":"Coverage","id":"3c80a139-5dfa-4e7f-993f-529ea31b0c4a","meta":{"profile":["http://hl7.org/fhir/us/qicore/StructureDefinition/qicore-coverage"]},"status":"active","beneficiary":{"reference":"Patient/c547ef66-e305-41b1-af22-721950fb2911"},"relationship":{"coding":[{"system":"http://terminology.hl7.org/CodeSystem/subscriber-relationship","code":"self"}]},"period":{"start":"2015-05-23","end":"2025-05-23"},"payor":[{"reference":"Organization/4b5a882f-1f43-485c-85c6-f5ad2337d5b1"}]},"request":{"method":"PUT","url":"Coverage/3c80a139-5dfa-4e7f-993f-529ea31b0c4a"}},{"fullUrl":"https://madie.cms.gov/Organization/123456","resource":{"resourceType":"Organization","id":"4b5a882f-1f43-485c-85c6-f5ad2337d5b1","meta":{"profile":["http://hl7.org/fhir/us/qicore/StructureDefinition/qicore-organization"]},"identifier":[{"use":"temp","system":"urn:oid:2.16.840.1.113883.4.4","value":"21-3259825"}],"active":true,"type":[{"coding":[{"system":"http://terminology.hl7.org/CodeSystem/organization-type","code":"pay","display":"Payer"}]}],"name":"Blue Cross Blue Shield of Texas","telecom":[{"system":"phone","value":"(+1) 972-766-6900"}],"address":[{"use":"billing","type":"postal","line":["P.O. Box 660044"],"city":"Dallas","state":"TX","postalCode":"75266-0044","country":"USA"}]},"request":{"method":"PUT","url":"Organization/4b5a882f-1f43-485c-85c6-f5ad2337d5b1"}},{"fullUrl":"https://madie.cms.gov/Practitioner/practitioner-123456","resource":{"resourceType":"Practitioner","id":"83946bc1-d6f4-4593-936d-abba7ecd2597","identifier":[{"system":"http://hl7.org/fhir/sid/us-npi","value":"123456"}],"name":[{"family":"Evil","prefix":["Dr"]}]},"request":{"method":"PUT","url":"Practitioner/83946bc1-d6f4-4593-936d-abba7ecd2597"}},{"fullUrl":"https://madie.cms.gov/MeasureReport/980bb66c-782f-425b-b4f0-3b317ec418dd","resource":{"resourceType":"MeasureReport","id":"980bb66c-782f-425b-b4f0-3b317ec418dd","meta":{"profile":["http://hl7.org/fhir/us/cqfmeasures/StructureDefinition/test-case-cqfm"]},"contained":[{"resourceType":"Parameters","id":"ae1e506f-4b53-46e3-89f1-a44b74c18ed7-parameters","parameter":[{"name":"subject","valueString":"c547ef66-e305-41b1-af22-721950fb2911"}]}],"extension":[{"url":"http://hl7.org/fhir/us/cqfmeasures/StructureDefinition/cqfm-inputParameters","valueReference":{"reference":"#ae1e506f-4b53-46e3-89f1-a44b74c18ed7-parameters"}},{"url":"http://hl7.org/fhir/us/cqfmeasures/StructureDefinition/cqfm-testCaseDescription","valueMarkdown":"Patient has two qualifying encounters and dementia diagnosis"}],"modifierExtension":[{"url":"http://hl7.org/fhir/us/cqfmeasures/StructureDefinition/cqfm-isTestCase","valueBoolean":true}],"status":"complete","type":"individual","measure":"https://madie.cms.gov/Measure/DementiaCognitiveAssessmentFHIR","period":{"start":"2025-01-01","end":"2025-12-31"},"group":[{"population":[{"code":{"coding":[{"system":"http://terminology.hl7.org/CodeSystem/measure-population","code":"initial-population","display":"Initial Population"}]},"count":1},{"code":{"coding":[{"system":"http://terminology.hl7.org/CodeSystem/measure-population","code":"denominator","display":"Denominator"}]},"count":1},{"code":{"coding":[{"system":"http://terminology.hl7.org/CodeSystem/measure-population","code":"numerator","display":"Numerator"}]},"count":0},{"code":{"coding":[{"system":"http://terminology.hl7.org/CodeSystem/measure-population","code":"denominator-exception","display":"Denominator Exception"}]},"count":0}]}]},"request":{"method":"PUT","url":"MeasureReport/980bb66c-782f-425b-b4f0-3b317ec418dd"}}]}