{"resourceType":"Bundle","id":"tests-6dd24fe9-8443-498a-9230-12392119b41d-bundle","type":"transaction","entry":[{"fullUrl":"https://madie.cms.gov/Patient/6dd24fe9-8443-498a-9230-12392119b41d","resource":{"resourceType":"Patient","id":"6dd24fe9-8443-498a-9230-12392119b41d","meta":{"profile":["http://hl7.org/fhir/us/qicore/StructureDefinition/qicore-patient"]},"extension":[{"url":"http://hl7.org/fhir/us/core/StructureDefinition/us-core-race","extension":[{"url":"ombCategory","valueCoding":{"system":"urn:oid:2.16.840.1.113883.6.238","code":"2106-3","display":"White","userSelected":true}},{"url":"text","valueString":"White"}]},{"url":"http://hl7.org/fhir/us/core/StructureDefinition/us-core-ethnicity","extension":[{"url":"ombCategory","valueCoding":{"system":"urn:oid:2.16.840.1.113883.6.238","code":"2135-2","display":"Hispanic or Latino","userSelected":true}},{"url":"text","valueString":"Hispanic or Latino"}]}],"identifier":[{"type":{"coding":[{"system":"http://terminology.hl7.org/CodeSystem/v2-0203","code":"MR"}]},"system":"https://goodhealth.healthit.gov/","value":"64270cbea7ffa60ebe02488f"}],"name":[{"family":"IPPass","given":["EncClassInpatient"]}],"gender":"male","birthDate":"1968-03-02"},"request":{"method":"PUT","url":"Patient/6dd24fe9-8443-498a-9230-12392119b41d"}},{"fullUrl":"https://madie.cms.gov/Condition/2300003203","resource":{"resourceType":"Condition","id":"6704276c-72b6-406f-ad36-b5d85e9a1096","meta":{"profile":["http://hl7.org/fhir/us/qicore/StructureDefinition/qicore-condition"]},"clinicalStatus":{"coding":[{"system":"http://terminology.hl7.org/CodeSystem/condition-clinical","code":"active","display":"Active","userSelected":true}]},"verificationStatus":{"coding":[{"system":"http://terminology.hl7.org/CodeSystem/condition-ver-status","code":"confirmed","display":"Confirmed","userSelected":true}]},"category":[{"coding":[{"system":"http://terminology.hl7.org/CodeSystem/condition-category","code":"encounter-diagnosis","display":"Encounter Diagnosis","userSelected":true}]}],"code":{"coding":[{"system":"http://snomed.info/sct","version":"http://snomed.info/sct/731000124108/version/20230301","code":"10532003","display":"Primary degenerative dementia of the Alzheimer type, presenile onset, with depression (disorder)"}]},"subject":{"reference":"Patient/6dd24fe9-8443-498a-9230-12392119b41d"},"onsetPeriod":{"start":"2025-07-15T08:34:00.000+00:00"}},"request":{"method":"PUT","url":"Condition/6704276c-72b6-406f-ad36-b5d85e9a1096"}},{"fullUrl":"https://madie.cms.gov/Encounter/2300003204","resource":{"resourceType":"Encounter","id":"26f90d02-4f19-4d40-b456-c3c934590839","meta":{"profile":["http://hl7.org/fhir/us/qicore/StructureDefinition/qicore-encounter"]},"status":"finished","class":{"system":"http://terminology.hl7.org/CodeSystem/v3-ActCode","code":"IMP","display":"inpatient encounter","userSelected":true},"type":[{"coding":[{"system":"http://www.ama-assn.org/go/cpt","version":"2023","code":"99221","userSelected":true}]}],"subject":{"reference":"Patient/6dd24fe9-8443-498a-9230-12392119b41d"},"period":{"start":"2025-03-02T08:00:00.000+00:00","end":"2025-03-02T08:35:00.000+00:00"}},"request":{"method":"PUT","url":"Encounter/26f90d02-4f19-4d40-b456-c3c934590839"}},{"fullUrl":"https://madie.cms.gov/Encounter/23000032017","resource":{"resourceType":"Encounter","id":"e2d637ef-eb51-4e22-9be1-1812d2c5af66","meta":{"profile":["http://hl7.org/fhir/us/qicore/StructureDefinition/qicore-encounter"]},"status":"finished","class":{"system":"http://terminology.hl7.org/CodeSystem/v3-ActCode","code":"AMB","display":"ambulatory","userSelected":true},"type":[{"coding":[{"system":"http://snomed.info/sct","version":"http://snomed.info/sct/731000124108/version/20230301","code":"210098006","display":"Domiciliary or rest home patient evaluation and management (procedure)"}]}],"subject":{"reference":"Patient/6dd24fe9-8443-498a-9230-12392119b41d"},"period":{"start":"2025-07-15T08:00:00.000+00:00","end":"2025-07-15T08:35:00.000+00:00"}},"request":{"method":"PUT","url":"Encounter/e2d637ef-eb51-4e22-9be1-1812d2c5af66"}},{"fullUrl":"https://madie.cms.gov/MeasureReport/90142b33-ae06-466f-b566-77202eaffa22","resource":{"resourceType":"MeasureReport","id":"90142b33-ae06-466f-b566-77202eaffa22","meta":{"profile":["http://hl7.org/fhir/us/cqfmeasures/StructureDefinition/test-case-cqfm"]},"contained":[{"resourceType":"Parameters","id":"a1545abb-3a6f-457f-a973-9bf6c7ca2e10-parameters","parameter":[{"name":"subject","valueString":"6dd24fe9-8443-498a-9230-12392119b41d"}]}],"extension":[{"url":"http://hl7.org/fhir/us/cqfmeasures/StructureDefinition/cqfm-inputParameters","valueReference":{"reference":"#a1545abb-3a6f-457f-a973-9bf6c7ca2e10-parameters"}},{"url":"http://hl7.org/fhir/us/cqfmeasures/StructureDefinition/cqfm-testCaseDescription","valueMarkdown":"Patient has Dementia Dx and 2 encounters in MP however one encounter is of Inpatient Class and does not qualify for Initial population"}],"modifierExtension":[{"url":"http://hl7.org/fhir/us/cqfmeasures/StructureDefinition/cqfm-isTestCase","valueBoolean":true}],"status":"complete","type":"individual","measure":"https://madie.cms.gov/Measure/DementiaCognitiveAssessmentFHIR","period":{"start":"2025-01-01","end":"2025-12-31"},"group":[{"population":[{"code":{"coding":[{"system":"http://terminology.hl7.org/CodeSystem/measure-population","code":"initial-population","display":"Initial Population"}]},"count":0},{"code":{"coding":[{"system":"http://terminology.hl7.org/CodeSystem/measure-population","code":"denominator","display":"Denominator"}]},"count":0},{"code":{"coding":[{"system":"http://terminology.hl7.org/CodeSystem/measure-population","code":"numerator","display":"Numerator"}]},"count":0},{"code":{"coding":[{"system":"http://terminology.hl7.org/CodeSystem/measure-population","code":"denominator-exception","display":"Denominator Exception"}]},"count":0}]}]},"request":{"method":"PUT","url":"MeasureReport/90142b33-ae06-466f-b566-77202eaffa22"}}]}