{"resourceType":"Bundle","id":"tests-388a45ee-0e02-4758-b0c8-a78aed07a19b-bundle","type":"transaction","entry":[{"fullUrl":"https://madie.cms.gov/Patient/388a45ee-0e02-4758-b0c8-a78aed07a19b","resource":{"resourceType":"Patient","id":"388a45ee-0e02-4758-b0c8-a78aed07a19b","meta":{"profile":["http://hl7.org/fhir/us/qicore/StructureDefinition/qicore-patient"]},"extension":[{"url":"http://hl7.org/fhir/us/core/StructureDefinition/us-core-race","extension":[{"url":"ombCategory","valueCoding":{"system":"urn:oid:2.16.840.1.113883.6.238","code":"2106-3","display":"White","userSelected":true}},{"url":"text","valueString":"White"}]},{"url":"http://hl7.org/fhir/us/core/StructureDefinition/us-core-ethnicity","extension":[{"url":"ombCategory","valueCoding":{"system":"urn:oid:2.16.840.1.113883.6.238","code":"2135-2","display":"Hispanic or Latino","userSelected":true}},{"url":"text","valueString":"Hispanic or Latino"}]}],"identifier":[{"type":{"coding":[{"system":"http://terminology.hl7.org/CodeSystem/v2-0203","code":"MR"}]},"system":"https://goodhealth.healthit.gov/","value":"64270cbea7ffa60ebe02488f"}],"name":[{"family":"IPPass","given":["DementiaDxOnset1MinB4EncEdge"]}],"gender":"male","birthDate":"1968-03-02"},"request":{"method":"PUT","url":"Patient/388a45ee-0e02-4758-b0c8-a78aed07a19b"}},{"fullUrl":"https://madie.cms.gov/Condition/2300003203","resource":{"resourceType":"Condition","id":"7daf794c-e34a-4d5d-ba73-cc4969e29928","meta":{"profile":["http://hl7.org/fhir/us/qicore/StructureDefinition/qicore-condition"]},"clinicalStatus":{"coding":[{"system":"http://terminology.hl7.org/CodeSystem/condition-clinical","code":"active","display":"Active","userSelected":true}]},"verificationStatus":{"coding":[{"system":"http://terminology.hl7.org/CodeSystem/condition-ver-status","code":"confirmed","display":"Confirmed","userSelected":true}]},"category":[{"coding":[{"system":"http://terminology.hl7.org/CodeSystem/condition-category","code":"encounter-diagnosis","display":"Encounter Diagnosis","userSelected":true}]}],"code":{"coding":[{"system":"http://snomed.info/sct","version":"http://snomed.info/sct/731000124108/version/20230301","code":"10532003","display":"Primary degenerative dementia of the Alzheimer type, presenile onset, with depression (disorder)"}]},"subject":{"reference":"Patient/388a45ee-0e02-4758-b0c8-a78aed07a19b"},"onsetPeriod":{"start":"2025-07-15T23:59:00.000+00:00"}},"request":{"method":"PUT","url":"Condition/7daf794c-e34a-4d5d-ba73-cc4969e29928"}},{"fullUrl":"https://madie.cms.gov/Encounter/2300003204","resource":{"resourceType":"Encounter","id":"0f24981f-bfa6-40e8-90ed-1ccc7b65d7cb","meta":{"profile":["http://hl7.org/fhir/us/qicore/StructureDefinition/qicore-encounter"]},"status":"finished","class":{"system":"http://terminology.hl7.org/CodeSystem/v3-ActCode","code":"AMB","display":"ambulatory","userSelected":true},"type":[{"coding":[{"system":"http://www.ama-assn.org/go/cpt","version":"2023","code":"99212","userSelected":true}]}],"subject":{"reference":"Patient/388a45ee-0e02-4758-b0c8-a78aed07a19b"},"period":{"start":"2025-03-02T08:00:00.000+00:00","end":"2025-03-02T08:35:00.000+00:00"}},"request":{"method":"PUT","url":"Encounter/0f24981f-bfa6-40e8-90ed-1ccc7b65d7cb"}},{"fullUrl":"https://madie.cms.gov/Encounter/23000032017","resource":{"resourceType":"Encounter","id":"c8fdd58d-296f-415c-b976-3fec6d078c50","meta":{"profile":["http://hl7.org/fhir/us/qicore/StructureDefinition/qicore-encounter"]},"status":"finished","class":{"system":"http://terminology.hl7.org/CodeSystem/v3-ActCode","code":"AMB","display":"ambulatory","userSelected":true},"type":[{"coding":[{"system":"http://www.ama-assn.org/go/cpt","version":"2023","code":"90834","userSelected":true}]}],"subject":{"reference":"Patient/388a45ee-0e02-4758-b0c8-a78aed07a19b"},"period":{"start":"2025-07-15T08:00:00.000+00:00","end":"2025-07-15T08:35:00.000+00:00"}},"request":{"method":"PUT","url":"Encounter/c8fdd58d-296f-415c-b976-3fec6d078c50"}},{"fullUrl":"https://madie.cms.gov/MeasureReport/cda8dbf6-516d-438f-bf8f-64b7a5a05385","resource":{"resourceType":"MeasureReport","id":"cda8dbf6-516d-438f-bf8f-64b7a5a05385","meta":{"profile":["http://hl7.org/fhir/us/cqfmeasures/StructureDefinition/test-case-cqfm"]},"contained":[{"resourceType":"Parameters","id":"8868caff-cb44-4724-b2af-4df64852af1f-parameters","parameter":[{"name":"subject","valueString":"388a45ee-0e02-4758-b0c8-a78aed07a19b"}]}],"extension":[{"url":"http://hl7.org/fhir/us/cqfmeasures/StructureDefinition/cqfm-inputParameters","valueReference":{"reference":"#8868caff-cb44-4724-b2af-4df64852af1f-parameters"}},{"url":"http://hl7.org/fhir/us/cqfmeasures/StructureDefinition/cqfm-testCaseDescription","valueMarkdown":"Patient with two qualifying Encounter visits (Psych Visit Psychotherapy; Office Visit) and with Dementia Diagnosis onset 1 min before end of day of encounter"}],"modifierExtension":[{"url":"http://hl7.org/fhir/us/cqfmeasures/StructureDefinition/cqfm-isTestCase","valueBoolean":true}],"status":"complete","type":"individual","measure":"https://madie.cms.gov/Measure/DementiaCognitiveAssessmentFHIR","period":{"start":"2025-01-01","end":"2025-12-31"},"group":[{"population":[{"code":{"coding":[{"system":"http://terminology.hl7.org/CodeSystem/measure-population","code":"initial-population","display":"Initial Population"}]},"count":1},{"code":{"coding":[{"system":"http://terminology.hl7.org/CodeSystem/measure-population","code":"denominator","display":"Denominator"}]},"count":1},{"code":{"coding":[{"system":"http://terminology.hl7.org/CodeSystem/measure-population","code":"numerator","display":"Numerator"}]},"count":0},{"code":{"coding":[{"system":"http://terminology.hl7.org/CodeSystem/measure-population","code":"denominator-exception","display":"Denominator Exception"}]},"count":0}]}]},"request":{"method":"PUT","url":"MeasureReport/cda8dbf6-516d-438f-bf8f-64b7a5a05385"}}]}