{"resourceType":"Bundle","id":"tests-a1da01d1-4abb-47d1-8320-6e3a75aed241-bundle","type":"transaction","entry":[{"fullUrl":"https://madie.cms.gov/Patient/a1da01d1-4abb-47d1-8320-6e3a75aed241","resource":{"resourceType":"Patient","id":"a1da01d1-4abb-47d1-8320-6e3a75aed241","meta":{"profile":["http://hl7.org/fhir/us/qicore/StructureDefinition/qicore-patient"]},"extension":[{"url":"http://hl7.org/fhir/us/core/StructureDefinition/us-core-race","extension":[{"url":"ombCategory","valueCoding":{"system":"urn:oid:2.16.840.1.113883.6.238","code":"2106-3","display":"White","userSelected":true}},{"url":"text","valueString":"White"}]},{"url":"http://hl7.org/fhir/us/core/StructureDefinition/us-core-ethnicity","extension":[{"url":"ombCategory","valueCoding":{"system":"urn:oid:2.16.840.1.113883.6.238","code":"2135-2","display":"Hispanic or Latino","userSelected":true}},{"url":"text","valueString":"Hispanic or Latino"}]}],"identifier":[{"type":{"coding":[{"system":"http://terminology.hl7.org/CodeSystem/v2-0203","code":"MR"}]},"system":"https://bonnie-fhir.healthit.gov/","value":"2300003201"}],"name":[{"family":"IPFail","given":["NoDementiaDX"]}],"gender":"female","birthDate":"1950-02-26"},"request":{"method":"PUT","url":"Patient/a1da01d1-4abb-47d1-8320-6e3a75aed241"}},{"fullUrl":"https://madie.cms.gov/Encounter/2300003203","resource":{"resourceType":"Encounter","id":"e64badad-0fb1-4997-ac1c-ebd7607bde99","meta":{"profile":["http://hl7.org/fhir/us/qicore/StructureDefinition/qicore-encounter"]},"status":"finished","class":{"system":"http://terminology.hl7.org/CodeSystem/v3-ActCode","code":"AMB","display":"ambulatory"},"type":[{"coding":[{"system":"http://snomed.info/sct","version":"http://snomed.info/sct/731000124108/version/202303","code":"10197000","display":"Psychiatric interview and evaluation (procedure)","userSelected":true}]}],"subject":{"reference":"Patient/a1da01d1-4abb-47d1-8320-6e3a75aed241"},"period":{"start":"2025-01-02T08:00:00.000+00:00","end":"2025-01-02T08:15:00.000+00:00"}},"request":{"method":"PUT","url":"Encounter/e64badad-0fb1-4997-ac1c-ebd7607bde99"}},{"fullUrl":"https://madie.cms.gov/Encounter/2300003204","resource":{"resourceType":"Encounter","id":"1314649e-09ed-4c8e-8f90-76eaa015e816","meta":{"profile":["http://hl7.org/fhir/us/qicore/StructureDefinition/qicore-encounter"]},"status":"finished","class":{"system":"http://terminology.hl7.org/CodeSystem/v3-ActCode","code":"AMB","display":"ambulatory"},"type":[{"coding":[{"system":"http://snomed.info/sct","version":"http://snomed.info/sct/731000124108/version/202303","code":"185460008","display":"Home visit request by patient (procedure)","userSelected":true}]}],"subject":{"reference":"Patient/a1da01d1-4abb-47d1-8320-6e3a75aed241"},"period":{"start":"2025-06-06T08:00:00.000+00:00","end":"2025-06-06T08:15:00.000+00:00"}},"request":{"method":"PUT","url":"Encounter/1314649e-09ed-4c8e-8f90-76eaa015e816"}},{"fullUrl":"https://madie.cms.gov/MeasureReport/2d9c3a11-ac5a-4995-9691-f615b42c53b2","resource":{"resourceType":"MeasureReport","id":"2d9c3a11-ac5a-4995-9691-f615b42c53b2","meta":{"profile":["http://hl7.org/fhir/us/cqfmeasures/StructureDefinition/test-case-cqfm"]},"contained":[{"resourceType":"Parameters","id":"1455461d-a962-4ee8-a4cf-e3a52d63cd66-parameters","parameter":[{"name":"subject","valueString":"a1da01d1-4abb-47d1-8320-6e3a75aed241"}]}],"extension":[{"url":"http://hl7.org/fhir/us/cqfmeasures/StructureDefinition/cqfm-inputParameters","valueReference":{"reference":"#1455461d-a962-4ee8-a4cf-e3a52d63cd66-parameters"}},{"url":"http://hl7.org/fhir/us/cqfmeasures/StructureDefinition/cqfm-testCaseDescription","valueMarkdown":"Patient does not have a dementia diagnosis required for initial population"}],"modifierExtension":[{"url":"http://hl7.org/fhir/us/cqfmeasures/StructureDefinition/cqfm-isTestCase","valueBoolean":true}],"status":"complete","type":"individual","measure":"https://madie.cms.gov/Measure/DementiaCognitiveAssessmentFHIR","period":{"start":"2025-01-01","end":"2025-12-31"},"group":[{"population":[{"code":{"coding":[{"system":"http://terminology.hl7.org/CodeSystem/measure-population","code":"initial-population","display":"Initial Population"}]},"count":0},{"code":{"coding":[{"system":"http://terminology.hl7.org/CodeSystem/measure-population","code":"denominator","display":"Denominator"}]},"count":0},{"code":{"coding":[{"system":"http://terminology.hl7.org/CodeSystem/measure-population","code":"numerator","display":"Numerator"}]},"count":0},{"code":{"coding":[{"system":"http://terminology.hl7.org/CodeSystem/measure-population","code":"denominator-exception","display":"Denominator Exception"}]},"count":0}]}]},"request":{"method":"PUT","url":"MeasureReport/2d9c3a11-ac5a-4995-9691-f615b42c53b2"}}]}