{"resourceType":"Bundle","id":"tests-a2fcfa31-f537-49b0-ad66-351f29cca2d0-bundle","type":"transaction","entry":[{"fullUrl":"https://madie.cms.gov/Patient/a2fcfa31-f537-49b0-ad66-351f29cca2d0","resource":{"resourceType":"Patient","id":"a2fcfa31-f537-49b0-ad66-351f29cca2d0","meta":{"profile":["http://hl7.org/fhir/us/qicore/StructureDefinition/qicore-patient"]},"extension":[{"url":"http://hl7.org/fhir/us/core/StructureDefinition/us-core-race","extension":[{"url":"ombCategory","valueCoding":{"system":"urn:oid:2.16.840.1.113883.6.238","code":"2106-3","display":"White","userSelected":true}},{"url":"text","valueString":"White"}]},{"url":"http://hl7.org/fhir/us/core/StructureDefinition/us-core-ethnicity","extension":[{"url":"ombCategory","valueCoding":{"system":"urn:oid:2.16.840.1.113883.6.238","code":"2135-2","display":"Hispanic or Latino","userSelected":true}},{"url":"text","valueString":"Hispanic or Latino"}]}],"identifier":[{"type":{"coding":[{"system":"http://terminology.hl7.org/CodeSystem/v2-0203","code":"MR"}]},"system":"https://goodhealth.healthit.gov/","value":"64270cbea7ffa60ebe02488f"}],"name":[{"family":"IPPass","given":["EncStarts1MinAfterMPEdge"]}],"gender":"male","birthDate":"1973-01-02"},"request":{"method":"PUT","url":"Patient/a2fcfa31-f537-49b0-ad66-351f29cca2d0"}},{"fullUrl":"https://madie.cms.gov/Condition/2300003203","resource":{"resourceType":"Condition","id":"2652abad-1ba3-4d30-b3c2-f19478fc80fc","meta":{"profile":["http://hl7.org/fhir/us/qicore/StructureDefinition/qicore-condition"]},"clinicalStatus":{"coding":[{"system":"http://terminology.hl7.org/CodeSystem/condition-clinical","code":"active","display":"Active","userSelected":true}]},"verificationStatus":{"coding":[{"system":"http://terminology.hl7.org/CodeSystem/condition-ver-status","code":"confirmed","display":"Confirmed","userSelected":true}]},"category":[{"coding":[{"system":"http://terminology.hl7.org/CodeSystem/condition-category","code":"encounter-diagnosis","display":"Encounter Diagnosis","userSelected":true}]}],"code":{"coding":[{"system":"http://hl7.org/fhir/sid/icd-10-cm","version":"2023","code":"G31.83","userSelected":true}]},"subject":{"reference":"Patient/a2fcfa31-f537-49b0-ad66-351f29cca2d0"},"onsetPeriod":{"start":"2023-10-28T08:00:00.000+00:00"}},"request":{"method":"PUT","url":"Condition/2652abad-1ba3-4d30-b3c2-f19478fc80fc"}},{"fullUrl":"https://madie.cms.gov/Encounter/2300003204","resource":{"resourceType":"Encounter","id":"e2c04b84-3ee9-4323-b38e-5a55c821e262","meta":{"profile":["http://hl7.org/fhir/us/qicore/StructureDefinition/qicore-encounter"]},"status":"finished","class":{"system":"http://terminology.hl7.org/CodeSystem/v3-ActCode","code":"AMB","display":"ambulatory","userSelected":true},"type":[{"coding":[{"system":"http://www.ama-assn.org/go/cpt","version":"2023","code":"99212","userSelected":true}]}],"subject":{"reference":"Patient/a2fcfa31-f537-49b0-ad66-351f29cca2d0"},"period":{"start":"2025-03-31T08:00:00.000+00:00","end":"2025-03-31T08:35:00.000+00:00"}},"request":{"method":"PUT","url":"Encounter/e2c04b84-3ee9-4323-b38e-5a55c821e262"}},{"fullUrl":"https://madie.cms.gov/Encounter/23000032017","resource":{"resourceType":"Encounter","id":"c43b9ab9-4c3a-469e-af57-0028b294df4d","meta":{"profile":["http://hl7.org/fhir/us/qicore/StructureDefinition/qicore-encounter"]},"status":"finished","class":{"system":"http://terminology.hl7.org/CodeSystem/v3-ActCode","code":"AMB","display":"ambulatory","userSelected":true},"type":[{"coding":[{"system":"http://snomed.info/sct","version":"http://snomed.info/sct/731000124108/version/202303","code":"185463005","display":"Visit out of hours (procedure)","userSelected":true}]}],"subject":{"reference":"Patient/a2fcfa31-f537-49b0-ad66-351f29cca2d0"},"period":{"start":"2025-01-01T00:01:00.000+00:00","end":"2025-01-01T00:20:00.000+00:00"}},"request":{"method":"PUT","url":"Encounter/c43b9ab9-4c3a-469e-af57-0028b294df4d"}},{"fullUrl":"https://madie.cms.gov/MeasureReport/3deceb10-4eca-43f4-a291-e1309547324d","resource":{"resourceType":"MeasureReport","id":"3deceb10-4eca-43f4-a291-e1309547324d","meta":{"profile":["http://hl7.org/fhir/us/cqfmeasures/StructureDefinition/test-case-cqfm"]},"contained":[{"resourceType":"Parameters","id":"8b3256a2-d209-4950-a5db-34b6f26ed286-parameters","parameter":[{"name":"subject","valueString":"a2fcfa31-f537-49b0-ad66-351f29cca2d0"}]}],"extension":[{"url":"http://hl7.org/fhir/us/cqfmeasures/StructureDefinition/cqfm-inputParameters","valueReference":{"reference":"#8b3256a2-d209-4950-a5db-34b6f26ed286-parameters"}},{"url":"http://hl7.org/fhir/us/cqfmeasures/StructureDefinition/cqfm-testCaseDescription","valueMarkdown":"Patient has dementia dx and 2 qualifying encounters, one of which starts one minute after start of Measurement Period"}],"modifierExtension":[{"url":"http://hl7.org/fhir/us/cqfmeasures/StructureDefinition/cqfm-isTestCase","valueBoolean":true}],"status":"complete","type":"individual","measure":"https://madie.cms.gov/Measure/DementiaCognitiveAssessmentFHIR","period":{"start":"2025-01-01","end":"2025-12-31"},"group":[{"population":[{"code":{"coding":[{"system":"http://terminology.hl7.org/CodeSystem/measure-population","code":"initial-population","display":"Initial Population"}]},"count":1},{"code":{"coding":[{"system":"http://terminology.hl7.org/CodeSystem/measure-population","code":"denominator","display":"Denominator"}]},"count":1},{"code":{"coding":[{"system":"http://terminology.hl7.org/CodeSystem/measure-population","code":"numerator","display":"Numerator"}]},"count":0},{"code":{"coding":[{"system":"http://terminology.hl7.org/CodeSystem/measure-population","code":"denominator-exception","display":"Denominator Exception"}]},"count":0}]}]},"request":{"method":"PUT","url":"MeasureReport/3deceb10-4eca-43f4-a291-e1309547324d"}}]}