{"resourceType":"Bundle","id":"tests-9bc32554-5c1a-4cac-9978-f7ad1e0bd18b-bundle","type":"transaction","entry":[{"fullUrl":"https://madie.cms.gov/Patient/9bc32554-5c1a-4cac-9978-f7ad1e0bd18b","resource":{"resourceType":"Patient","id":"9bc32554-5c1a-4cac-9978-f7ad1e0bd18b","meta":{"profile":["http://hl7.org/fhir/us/qicore/StructureDefinition/qicore-patient"]},"extension":[{"url":"http://hl7.org/fhir/us/core/StructureDefinition/us-core-race","extension":[{"url":"ombCategory","valueCoding":{"system":"urn:oid:2.16.840.1.113883.6.238","code":"2028-9","display":"Asian","userSelected":true}},{"url":"text","valueString":"Asian"}]},{"url":"http://hl7.org/fhir/us/core/StructureDefinition/us-core-ethnicity","extension":[{"url":"ombCategory","valueCoding":{"system":"urn:oid:2.16.840.1.113883.6.238","code":"2135-2","display":"Hispanic or Latino","userSelected":true}},{"url":"text","valueString":"Hispanic or Latino"}]}],"identifier":[{"type":{"coding":[{"system":"http://terminology.hl7.org/CodeSystem/v2-0203","code":"MR"}]},"system":"https://goodhealth.healthit.gov/","value":"64270cbea7ffa60ebe02488f"}],"name":[{"family":"IPPass","given":["EncounterHasNoEndDate"]}],"gender":"male","birthDate":"1976-01-01"},"request":{"method":"PUT","url":"Patient/9bc32554-5c1a-4cac-9978-f7ad1e0bd18b"}},{"fullUrl":"https://madie.cms.gov/Condition/2300003203","resource":{"resourceType":"Condition","id":"7c1214d2-fd70-4dc3-a0c3-9a0ac57e862c","meta":{"profile":["http://hl7.org/fhir/us/qicore/StructureDefinition/qicore-condition"]},"clinicalStatus":{"coding":[{"system":"http://terminology.hl7.org/CodeSystem/condition-clinical","code":"active","display":"Active","userSelected":true}]},"verificationStatus":{"coding":[{"system":"http://terminology.hl7.org/CodeSystem/condition-ver-status","code":"confirmed","display":"Confirmed","userSelected":true}]},"category":[{"coding":[{"system":"http://terminology.hl7.org/CodeSystem/condition-category","code":"encounter-diagnosis","display":"Encounter Diagnosis","userSelected":true}]}],"code":{"coding":[{"system":"http://hl7.org/fhir/sid/icd-10-cm","version":"2023","code":"G31.83","userSelected":true}]},"subject":{"reference":"Patient/9bc32554-5c1a-4cac-9978-f7ad1e0bd18b"},"onsetPeriod":{"start":"2023-12-31T08:00:00.000+00:00"}},"request":{"method":"PUT","url":"Condition/7c1214d2-fd70-4dc3-a0c3-9a0ac57e862c"}},{"fullUrl":"https://madie.cms.gov/Encounter/2300003204","resource":{"resourceType":"Encounter","id":"3334d44c-8562-4541-8a95-feb391fc896a","meta":{"profile":["http://hl7.org/fhir/us/qicore/StructureDefinition/qicore-encounter"]},"status":"finished","class":{"system":"http://terminology.hl7.org/CodeSystem/v3-ActCode","code":"AMB","display":"ambulatory","userSelected":true},"type":[{"coding":[{"system":"http://www.ama-assn.org/go/cpt","version":"2023","code":"99212","userSelected":true}]}],"subject":{"reference":"Patient/9bc32554-5c1a-4cac-9978-f7ad1e0bd18b"},"period":{"start":"2025-02-26T08:00:00.000+00:00"}},"request":{"method":"PUT","url":"Encounter/3334d44c-8562-4541-8a95-feb391fc896a"}},{"fullUrl":"https://madie.cms.gov/Encounter/23000032017","resource":{"resourceType":"Encounter","id":"c62e91ac-b21c-4ea9-8a37-f55d7337b800","meta":{"profile":["http://hl7.org/fhir/us/qicore/StructureDefinition/qicore-encounter"]},"status":"finished","class":{"system":"http://terminology.hl7.org/CodeSystem/v3-ActCode","code":"AMB","display":"ambulatory","userSelected":true},"type":[{"coding":[{"system":"http://snomed.info/sct","version":"http://snomed.info/sct/731000124108/version/202303","code":"185463005","display":"Visit out of hours (procedure)","userSelected":true}]}],"subject":{"reference":"Patient/9bc32554-5c1a-4cac-9978-f7ad1e0bd18b"},"period":{"start":"2025-08-31T08:00:00.000+00:00","end":"2025-08-31T08:35:00.000+00:00"}},"request":{"method":"PUT","url":"Encounter/c62e91ac-b21c-4ea9-8a37-f55d7337b800"}},{"fullUrl":"https://madie.cms.gov/MeasureReport/f1eb0631-bf4d-4723-8bca-1409d7a2f1c5","resource":{"resourceType":"MeasureReport","id":"f1eb0631-bf4d-4723-8bca-1409d7a2f1c5","meta":{"profile":["http://hl7.org/fhir/us/cqfmeasures/StructureDefinition/test-case-cqfm"]},"contained":[{"resourceType":"Parameters","id":"127d1f1e-442e-46fc-b4fc-5f7412821815-parameters","parameter":[{"name":"subject","valueString":"9bc32554-5c1a-4cac-9978-f7ad1e0bd18b"}]}],"extension":[{"url":"http://hl7.org/fhir/us/cqfmeasures/StructureDefinition/cqfm-inputParameters","valueReference":{"reference":"#127d1f1e-442e-46fc-b4fc-5f7412821815-parameters"}},{"url":"http://hl7.org/fhir/us/cqfmeasures/StructureDefinition/cqfm-testCaseDescription","valueMarkdown":"Patient has Dementia Dx in MP and 2 encounters with null end dates."}],"modifierExtension":[{"url":"http://hl7.org/fhir/us/cqfmeasures/StructureDefinition/cqfm-isTestCase","valueBoolean":true}],"status":"complete","type":"individual","measure":"https://madie.cms.gov/Measure/DementiaCognitiveAssessmentFHIR","period":{"start":"2025-01-01","end":"2025-12-31"},"group":[{"population":[{"code":{"coding":[{"system":"http://terminology.hl7.org/CodeSystem/measure-population","code":"initial-population","display":"Initial Population"}]},"count":0},{"code":{"coding":[{"system":"http://terminology.hl7.org/CodeSystem/measure-population","code":"denominator","display":"Denominator"}]},"count":0},{"code":{"coding":[{"system":"http://terminology.hl7.org/CodeSystem/measure-population","code":"numerator","display":"Numerator"}]},"count":0},{"code":{"coding":[{"system":"http://terminology.hl7.org/CodeSystem/measure-population","code":"denominator-exception","display":"Denominator Exception"}]},"count":0}]}]},"request":{"method":"PUT","url":"MeasureReport/f1eb0631-bf4d-4723-8bca-1409d7a2f1c5"}}]}