{
  "resourceType": "Bundle",
  "id": "62c880ec0111a60120dc21f0",
  "type": "transaction",
  "entry": [ {
    "fullUrl": "https://madie.cms.gov/Patient/90d3454a-ca4b-4035-a524-255a2f03bef7",
    "resource": {
      "resourceType": "Patient",
      "id": "90d3454a-ca4b-4035-a524-255a2f03bef7",
      "meta": {
        "profile": [ "http://hl7.org/fhir/us/qicore/StructureDefinition/qicore-patient" ]
      },
      "text": {
        "status": "generated",
        "div": "<div xmlns=\"http://www.w3.org/1999/xhtml\"><div class=\"hapiHeaderText\">MultEpNum2Den2<b>NUMERPassPop1</b></div><table class=\"hapiPropertyTable\"><tbody><tr><td>Identifier</td><td>3d64e5f7a37d9e8f441d6730bc0bb02c10b4ee6481741cad529c3ff180eab3d3</td></tr><tr><td>Date of birth</td><td><span>13 May 1937</span></td></tr></tbody></table></div>"
      },
      "extension": [ {
        "url": "http://hl7.org/fhir/us/core/StructureDefinition/us-core-race",
        "extension": [ {
          "url": "ombCategory",
          "valueCoding": {
            "system": "urn:oid:2.16.840.1.113883.6.238",
            "code": "1002-5",
            "display": "American Indian or Alaska Native",
            "userSelected": true
          }
        }, {
          "url": "text",
          "valueString": "American Indian or Alaska Native"
        } ]
      }, {
        "url": "http://hl7.org/fhir/us/core/StructureDefinition/us-core-ethnicity",
        "extension": [ {
          "url": "ombCategory",
          "valueCoding": {
            "system": "urn:oid:2.16.840.1.113883.6.238",
            "code": "2135-2",
            "display": "Hispanic or Latino",
            "userSelected": true
          }
        }, {
          "url": "text",
          "valueString": "Hispanic or Latino"
        } ]
      } ],
      "identifier": [ {
        "type": {
          "coding": [ {
            "system": "http://terminology.hl7.org/CodeSystem/v2-0203",
            "code": "MR"
          } ]
        },
        "system": "https://bonnie-fhir.healthit.gov/",
        "value": "62c880ec0111a60120dc21f0"
      } ],
      "active": true,
      "name": [ {
        "use": "usual",
        "family": "NUMERPassPop1",
        "given": [ "MultEp1Num1Den2" ]
      } ],
      "gender": "female",
      "birthDate": "1937-05-13"
    },
    "request": {
      "method": "POST",
      "url": "Patient/90d3454a-ca4b-4035-a524-255a2f03bef7"
    }
  }, {
    "fullUrl": "https://madie.cms.gov/Observation/5ca5260fb8484613a555a9c0",
    "resource": {
      "resourceType": "Observation",
      "id": "5ca5260fb8484613a555a9c0",
      "meta": {
        "profile": [ "http://hl7.org/fhir/us/qicore/StructureDefinition/qicore-observation" ]
      },
      "status": "final",
      "category": [ {
        "coding": [ {
          "system": "http://terminology.hl7.org/CodeSystem/observation-category",
          "code": "survey",
          "display": "Survey"
        } ],
        "text": "Survey"
      } ],
      "code": {
        "coding": [ {
          "system": "http://loinc.org",
          "code": "38208-5"
        } ]
      },
      "subject": {
        "reference": "Patient/90d3454a-ca4b-4035-a524-255a2f03bef7"
      },
      "effectiveDateTime": "2025-03-03T14:00:00.000+00:00",
      "valueInteger": 10
    },
    "request": {
      "method": "POST",
      "url": "Observation/5ca5260fb8484613a555a9c0"
    }
  }, {
    "fullUrl": "https://madie.cms.gov/Observation/5ca5260fb8484613a555a9c2",
    "resource": {
      "resourceType": "Observation",
      "id": "5ca5260fb8484613a555a9c2",
      "meta": {
        "profile": [ "http://hl7.org/fhir/us/qicore/StructureDefinition/qicore-observation" ]
      },
      "status": "final",
      "category": [ {
        "coding": [ {
          "system": "http://terminology.hl7.org/CodeSystem/observation-category",
          "code": "survey",
          "display": "Survey"
        } ],
        "text": "Survey"
      } ],
      "code": {
        "coding": [ {
          "system": "http://loinc.org",
          "code": "38208-5"
        } ]
      },
      "subject": {
        "reference": "Patient/90d3454a-ca4b-4035-a524-255a2f03bef7"
      },
      "effectiveDateTime": "2025-05-22T08:00:00.000+00:00"
    },
    "request": {
      "method": "POST",
      "url": "Observation/5ca5260fb8484613a555a9c2"
    }
  }, {
    "fullUrl": "https://madie.cms.gov/Observation/5ca5260fb8484613a555a9c0l",
    "resource": {
      "resourceType": "Observation",
      "id": "5ca5260fb8484613a555a9c0l",
      "meta": {
        "profile": [ "http://hl7.org/fhir/us/qicore/StructureDefinition/qicore-observation" ]
      },
      "status": "final",
      "category": [ {
        "coding": [ {
          "system": "http://terminology.hl7.org/CodeSystem/observation-category",
          "code": "survey",
          "display": "Survey"
        } ],
        "text": "Survey"
      } ],
      "code": {
        "coding": [ {
          "system": "http://loinc.org",
          "code": "38208-5"
        } ]
      },
      "subject": {
        "reference": "Patient/90d3454a-ca4b-4035-a524-255a2f03bef7"
      },
      "effectiveDateTime": "2025-05-30T13:00:00.000+00:00",
      "valueInteger": 5
    },
    "request": {
      "method": "POST",
      "url": "Observation/5ca5260fb8484613a555a9c0l"
    }
  }, {
    "fullUrl": "https://madie.cms.gov/Condition/5ca5260fb8484613a555a9b7",
    "resource": {
      "resourceType": "Condition",
      "id": "5ca5260fb8484613a555a9b7",
      "meta": {
        "profile": [ "http://hl7.org/fhir/us/qicore/StructureDefinition/qicore-condition" ]
      },
      "clinicalStatus": {
        "coding": [ {
          "system": "http://terminology.hl7.org/CodeSystem/condition-clinical",
          "code": "active",
          "display": "active",
          "userSelected": true
        } ]
      },
      "verificationStatus": {
        "coding": [ {
          "system": "http://terminology.hl7.org/CodeSystem/condition-ver-status",
          "code": "confirmed",
          "display": "Confirmed"
        } ]
      },
      "category": [ {
        "coding": [ {
          "system": "http://terminology.hl7.org/CodeSystem/condition-category",
          "code": "problem-list-item",
          "display": "Problem List Item"
        } ]
      } ],
      "code": {
        "coding": [ {
          "system": "http://hl7.org/fhir/sid/icd-10-cm",
          "code": "C00.0"
        } ]
      },
      "subject": {
        "reference": "Patient/90d3454a-ca4b-4035-a524-255a2f03bef7"
      },
      "onsetDateTime": "2023-11-01T13:30:00.000Z"
    },
    "request": {
      "method": "POST",
      "url": "Condition/5ca5260fb8484613a555a9b7"
    }
  }, {
    "fullUrl": "https://madie.cms.gov/Encounter/5ca5260fb8484613a555a9b8",
    "resource": {
      "resourceType": "Encounter",
      "id": "5ca5260fb8484613a555a9b8",
      "meta": {
        "profile": [ "http://hl7.org/fhir/us/qicore/StructureDefinition/qicore-encounter" ]
      },
      "status": "finished",
      "class": {
        "system": "http://terminology.hl7.org/CodeSystem/v3-ActCode",
        "code": "AMB",
        "display": "ambulatory",
        "userSelected": true
      },
      "type": [ {
        "coding": [ {
          "system": "http://snomed.info/sct",
          "code": "185463005"
        } ]
      } ],
      "subject": {
        "reference": "Patient/90d3454a-ca4b-4035-a524-255a2f03bef7"
      },
      "period": {
        "start": "2025-01-30T14:00:00.000Z",
        "end": "2025-01-30T15:00:00.000Z"
      }
    },
    "request": {
      "method": "POST",
      "url": "Encounter/5ca5260fb8484613a555a9b8"
    }
  }, {
    "fullUrl": "https://madie.cms.gov/Encounter/5ca5260fb8484613a555a9b9",
    "resource": {
      "resourceType": "Encounter",
      "id": "5ca5260fb8484613a555a9b9",
      "meta": {
        "profile": [ "http://hl7.org/fhir/us/qicore/StructureDefinition/qicore-encounter" ]
      },
      "status": "finished",
      "class": {
        "system": "http://terminology.hl7.org/CodeSystem/v3-ActCode",
        "code": "AMB",
        "display": "ambulatory",
        "userSelected": true
      },
      "type": [ {
        "coding": [ {
          "system": "http://snomed.info/sct",
          "code": "185463005"
        } ]
      } ],
      "subject": {
        "reference": "Patient/90d3454a-ca4b-4035-a524-255a2f03bef7"
      },
      "period": {
        "start": "2025-03-03T13:30:00.000Z",
        "end": "2025-03-03T14:30:00.000Z"
      }
    },
    "request": {
      "method": "POST",
      "url": "Encounter/5ca5260fb8484613a555a9b9"
    }
  }, {
    "fullUrl": "https://madie.cms.gov/Encounter/5ca5260fb8484613a555a9ba",
    "resource": {
      "resourceType": "Encounter",
      "id": "5ca5260fb8484613a555a9ba",
      "meta": {
        "profile": [ "http://hl7.org/fhir/us/qicore/StructureDefinition/qicore-encounter" ]
      },
      "status": "finished",
      "class": {
        "system": "http://terminology.hl7.org/CodeSystem/v3-ActCode",
        "code": "AMB",
        "display": "ambulatory",
        "userSelected": true
      },
      "type": [ {
        "coding": [ {
          "system": "http://www.ama-assn.org/go/cpt",
          "code": "99202"
        } ]
      } ],
      "subject": {
        "reference": "Patient/90d3454a-ca4b-4035-a524-255a2f03bef7"
      },
      "period": {
        "start": "2025-05-30T12:45:00.000Z",
        "end": "2025-05-30T13:45:00.000Z"
      }
    },
    "request": {
      "method": "POST",
      "url": "Encounter/5ca5260fb8484613a555a9ba"
    }
  }, {
    "fullUrl": "https://madie.cms.gov/Encounter/5ca5260fb8484613a555a9bb",
    "resource": {
      "resourceType": "Encounter",
      "id": "5ca5260fb8484613a555a9bb",
      "meta": {
        "profile": [ "http://hl7.org/fhir/us/qicore/StructureDefinition/qicore-encounter" ]
      },
      "status": "finished",
      "class": {
        "system": "http://terminology.hl7.org/CodeSystem/v3-ActCode",
        "code": "AMB",
        "display": "ambulatory",
        "userSelected": true
      },
      "type": [ {
        "coding": [ {
          "system": "http://www.ama-assn.org/go/cpt",
          "code": "99202"
        } ]
      } ],
      "subject": {
        "reference": "Patient/90d3454a-ca4b-4035-a524-255a2f03bef7"
      },
      "period": {
        "start": "2025-07-03T10:45:00.000Z",
        "end": "2025-07-03T11:45:00.000Z"
      }
    },
    "request": {
      "method": "POST",
      "url": "Encounter/5ca5260fb8484613a555a9bb"
    }
  }, {
    "fullUrl": "https://madie.cms.gov/Coverage/60099aca1c76ba64612b0685",
    "resource": {
      "resourceType": "Coverage",
      "id": "60099aca1c76ba64612b0685",
      "meta": {
        "profile": [ "http://hl7.org/fhir/us/qicore/StructureDefinition/qicore-coverage" ]
      },
      "status": "active",
      "beneficiary": {
        "reference": "Patient/90d3454a-ca4b-4035-a524-255a2f03bef7"
      },
      "period": {
        "start": "1937-05-13T08:00:00.000Z"
      },
      "payor": [ {
        "reference": "Organization/123456"
      } ]
    },
    "request": {
      "method": "POST",
      "url": "Coverage/60099aca1c76ba64612b0685"
    }
  }, {
    "fullUrl": "https://madie.cms.gov/Procedure/5ca5260fb8484613a555a9bc",
    "resource": {
      "resourceType": "Procedure",
      "id": "5ca5260fb8484613a555a9bc",
      "meta": {
        "profile": [ "http://hl7.org/fhir/us/qicore/StructureDefinition/qicore-procedure" ]
      },
      "extension": [ {
        "url": "http://hl7.org/fhir/us/qicore/StructureDefinition/qicore-recorded",
        "valueDateTime": "2025-02-27T12:35:00.000Z"
      } ],
      "status": "completed",
      "code": {
        "coding": [ {
          "system": "http://www.ama-assn.org/go/cpt",
          "code": "96409"
        } ]
      },
      "subject": {
        "reference": "Patient/90d3454a-ca4b-4035-a524-255a2f03bef7"
      },
      "performedPeriod": {
        "start": "2025-02-27T11:30:00.000Z",
        "end": "2025-02-27T11:30:00.000Z"
      }
    },
    "request": {
      "method": "POST",
      "url": "Procedure/5ca5260fb8484613a555a9bc"
    }
  }, {
    "fullUrl": "https://madie.cms.gov/Procedure/5ca5260fb8484613a555a9bd",
    "resource": {
      "resourceType": "Procedure",
      "id": "5ca5260fb8484613a555a9bd",
      "meta": {
        "profile": [ "http://hl7.org/fhir/us/qicore/StructureDefinition/qicore-procedure" ]
      },
      "extension": [ {
        "url": "http://hl7.org/fhir/us/qicore/StructureDefinition/qicore-recorded",
        "valueDateTime": "2025-04-01T12:35:00.000Z"
      } ],
      "status": "completed",
      "code": {
        "coding": [ {
          "system": "http://www.ama-assn.org/go/cpt",
          "code": "96409"
        } ]
      },
      "subject": {
        "reference": "Patient/90d3454a-ca4b-4035-a524-255a2f03bef7"
      },
      "performedPeriod": {
        "start": "2025-04-01T12:30:00.000Z",
        "end": "2025-04-01T12:30:00.000Z"
      }
    },
    "request": {
      "method": "POST",
      "url": "Procedure/5ca5260fb8484613a555a9bd"
    }
  }, {
    "fullUrl": "https://madie.cms.gov/Procedure/5ca5260fb8484613a555a9be",
    "resource": {
      "resourceType": "Procedure",
      "id": "5ca5260fb8484613a555a9be",
      "meta": {
        "profile": [ "http://hl7.org/fhir/us/qicore/StructureDefinition/qicore-procedure" ]
      },
      "extension": [ {
        "url": "http://hl7.org/fhir/us/qicore/StructureDefinition/qicore-recorded",
        "valueDateTime": "2025-05-30T12:35:00.000Z"
      } ],
      "status": "completed",
      "code": {
        "coding": [ {
          "system": "http://snomed.info/sct",
          "code": "169396008"
        } ]
      },
      "subject": {
        "reference": "Patient/90d3454a-ca4b-4035-a524-255a2f03bef7"
      },
      "performedPeriod": {
        "start": "2025-05-30T12:45:00.000Z",
        "end": "2025-05-30T13:45:00.000Z"
      }
    },
    "request": {
      "method": "POST",
      "url": "Procedure/5ca5260fb8484613a555a9be"
    }
  }, {
    "fullUrl": "https://madie.cms.gov/Procedure/5ca5260fb8484613a555a9bf",
    "resource": {
      "resourceType": "Procedure",
      "id": "5ca5260fb8484613a555a9bf",
      "meta": {
        "profile": [ "http://hl7.org/fhir/us/qicore/StructureDefinition/qicore-procedure" ]
      },
      "extension": [ {
        "url": "http://hl7.org/fhir/us/qicore/StructureDefinition/qicore-recorded",
        "valueDateTime": "2025-06-04T12:35:00.000Z"
      } ],
      "status": "completed",
      "code": {
        "coding": [ {
          "system": "http://www.ama-assn.org/go/cpt",
          "code": "51720"
        } ]
      },
      "subject": {
        "reference": "Patient/90d3454a-ca4b-4035-a524-255a2f03bef7"
      },
      "performedPeriod": {
        "start": "2025-06-04T15:30:00.000Z",
        "end": "2025-06-04T15:30:00.000Z"
      }
    },
    "request": {
      "method": "POST",
      "url": "Procedure/5ca5260fb8484613a555a9bf"
    }
  }, {
    "fullUrl": "https://madie.cms.gov/Organization/123456",
    "resource": {
      "resourceType": "Organization",
      "id": "123456",
      "meta": {
        "profile": [ "http://hl7.org/fhir/us/qicore/StructureDefinition/qicore-organization" ]
      },
      "identifier": [ {
        "use": "temp",
        "system": "urn:oid:2.16.840.1.113883.4.4",
        "value": "21-3259825"
      } ],
      "active": true,
      "type": [ {
        "coding": [ {
          "system": "http://terminology.hl7.org/CodeSystem/organization-type",
          "code": "pay",
          "display": "Payer"
        } ]
      } ],
      "name": "Blue Cross Blue Shield of Texas",
      "telecom": [ {
        "system": "phone",
        "value": "(+1) 972-766-6900"
      } ],
      "address": [ {
        "use": "billing",
        "type": "postal",
        "line": [ "P.O. Box 660044" ],
        "city": "Dallas",
        "state": "TX",
        "postalCode": "75266-0044",
        "country": "USA"
      } ]
    },
    "request": {
      "method": "POST",
      "url": "Organization/123456"
    }
  }, {
    "fullUrl": "https://madie.cms.gov/Practitioner/practitioner-123456",
    "resource": {
      "resourceType": "Practitioner",
      "id": "practitioner-123456",
      "meta": {
        "profile": [ "http://hl7.org/fhir/us/qicore/StructureDefinition/qicore-practitioner" ]
      },
      "identifier": [ {
        "system": "http://hl7.org/fhir/sid/us-npi",
        "value": "123456"
      } ],
      "name": [ {
        "family": "Evil",
        "prefix": [ "Dr" ]
      } ]
    },
    "request": {
      "method": "POST",
      "url": "Practitioner/practitioner-123456"
    }
  }, {
    "fullUrl": "https://madie.cms.gov/MeasureReport/7b1b8c5c-3b5e-478c-b68b-bc51fee5c43d",
    "resource": {
      "resourceType": "MeasureReport",
      "id": "7b1b8c5c-3b5e-478c-b68b-bc51fee5c43d",
      "meta": {
        "profile": [ "http://hl7.org/fhir/us/cqfmeasures/StructureDefinition/test-case-cqfm" ]
      },
      "contained": [ {
        "resourceType": "Parameters",
        "id": "f15fd7e7-e2be-44fe-8a29-82df0af9892e-parameters",
        "parameter": [ {
          "name": "subject",
          "valueString": "90d3454a-ca4b-4035-a524-255a2f03bef7"
        } ]
      } ],
      "extension": [ {
        "url": "http://hl7.org/fhir/us/cqfmeasures/StructureDefinition/cqfm-inputParameters",
        "valueReference": {
          "reference": "#f15fd7e7-e2be-44fe-8a29-82df0af9892e-parameters"
        }
      }, {
        "url": "http://hl7.org/fhir/us/cqfmeasures/StructureDefinition/cqfm-testCaseDescription",
        "valueMarkdown": "Patient with cancer diagnosis overlaps the office visits during measurement period. Chemotherapy administered, and pain intensity assessment was performed during 2 office visits.   \n"
      } ],
      "modifierExtension": [ {
        "url": "http://hl7.org/fhir/us/cqfmeasures/StructureDefinition/cqfm-isTestCase",
        "valueBoolean": true
      } ],
      "status": "complete",
      "type": "individual",
      "measure": "https://madie.cms.gov/Measure/OncologyPainIntensityQuantifiedFHIR",
      "period": {
        "start": "2025-01-01",
        "end": "2025-12-31"
      },
      "group": [ {
        "population": [ {
          "code": {
            "coding": [ {
              "system": "http://terminology.hl7.org/CodeSystem/measure-population",
              "code": "initial-population",
              "display": "Initial Population"
            } ]
          },
          "count": 2
        }, {
          "code": {
            "coding": [ {
              "system": "http://terminology.hl7.org/CodeSystem/measure-population",
              "code": "denominator",
              "display": "Denominator"
            } ]
          },
          "count": 2
        }, {
          "code": {
            "coding": [ {
              "system": "http://terminology.hl7.org/CodeSystem/measure-population",
              "code": "numerator",
              "display": "Numerator"
            } ]
          },
          "count": 2
        } ]
      }, {
        "population": [ {
          "code": {
            "coding": [ {
              "system": "http://terminology.hl7.org/CodeSystem/measure-population",
              "code": "initial-population",
              "display": "Initial Population"
            } ]
          },
          "count": 0
        }, {
          "code": {
            "coding": [ {
              "system": "http://terminology.hl7.org/CodeSystem/measure-population",
              "code": "denominator",
              "display": "Denominator"
            } ]
          },
          "count": 0
        }, {
          "code": {
            "coding": [ {
              "system": "http://terminology.hl7.org/CodeSystem/measure-population",
              "code": "numerator",
              "display": "Numerator"
            } ]
          },
          "count": 0
        } ]
      } ],
      "evaluatedResource": [ {
        "reference": "https://madie.cms.gov/Patient/90d3454a-ca4b-4035-a524-255a2f03bef7"
      }, {
        "reference": "https://madie.cms.gov/Observation/5ca5260fb8484613a555a9c0"
      }, {
        "reference": "https://madie.cms.gov/Observation/5ca5260fb8484613a555a9c2"
      }, {
        "reference": "https://madie.cms.gov/Observation/5ca5260fb8484613a555a9c0l"
      }, {
        "reference": "https://madie.cms.gov/Condition/5ca5260fb8484613a555a9b7"
      }, {
        "reference": "https://madie.cms.gov/Encounter/5ca5260fb8484613a555a9b8"
      }, {
        "reference": "https://madie.cms.gov/Encounter/5ca5260fb8484613a555a9b9"
      }, {
        "reference": "https://madie.cms.gov/Encounter/5ca5260fb8484613a555a9ba"
      }, {
        "reference": "https://madie.cms.gov/Encounter/5ca5260fb8484613a555a9bb"
      }, {
        "reference": "https://madie.cms.gov/Coverage/60099aca1c76ba64612b0685"
      }, {
        "reference": "https://madie.cms.gov/Procedure/5ca5260fb8484613a555a9bc"
      }, {
        "reference": "https://madie.cms.gov/Procedure/5ca5260fb8484613a555a9bd"
      }, {
        "reference": "https://madie.cms.gov/Procedure/5ca5260fb8484613a555a9be"
      }, {
        "reference": "https://madie.cms.gov/Procedure/5ca5260fb8484613a555a9bf"
      }, {
        "reference": "https://madie.cms.gov/Organization/123456"
      }, {
        "reference": "https://madie.cms.gov/Practitioner/practitioner-123456"
      } ]
    },
    "request": {
      "method": "POST",
      "url": "MeasureReport/7b1b8c5c-3b5e-478c-b68b-bc51fee5c43d"
    }
  } ]
}