{
  "resourceType": "Bundle",
  "id": "NUMERFail-Colonoscopy10YearsPrior",
  "type": "transaction",
  "entry": [ {
    "fullUrl": "https://madie.cms.gov/Patient/dc337be7-7328-4fce-8f6f-71ee2cb75752",
    "resource": {
      "resourceType": "Patient",
      "id": "dc337be7-7328-4fce-8f6f-71ee2cb75752",
      "meta": {
        "profile": [ "http://hl7.org/fhir/us/qicore/StructureDefinition/qicore-patient" ]
      },
      "extension": [ {
        "url": "http://hl7.org/fhir/us/core/StructureDefinition/us-core-race",
        "extension": [ {
          "url": "ombCategory",
          "valueCoding": {
            "system": "urn:oid:2.16.840.1.113883.6.238",
            "code": "2028-9",
            "display": "Asian"
          }
        }, {
          "url": "text",
          "valueString": "Asian"
        } ]
      }, {
        "url": "http://hl7.org/fhir/us/core/StructureDefinition/us-core-ethnicity",
        "extension": [ {
          "url": "ombCategory",
          "valueCoding": {
            "system": "urn:oid:2.16.840.1.113883.6.238",
            "code": "2135-2",
            "display": "Hispanic or Latino"
          }
        }, {
          "url": "text",
          "valueString": "Hispanic or Latino"
        } ]
      } ],
      "identifier": [ {
        "system": "http://hospital.smarthealthit.org",
        "value": "999999995"
      } ],
      "name": [ {
        "family": "Bertha",
        "given": [ "Betty" ]
      } ],
      "gender": "female",
      "birthDate": "1979-01-01"
    },
    "request": {
      "method": "POST",
      "url": "Patient/dc337be7-7328-4fce-8f6f-71ee2cb75752"
    }
  }, {
    "fullUrl": "https://madie.cms.gov/Encounter/Encounter-29",
    "resource": {
      "resourceType": "Encounter",
      "id": "Encounter-29",
      "meta": {
        "profile": [ "http://hl7.org/fhir/us/qicore/StructureDefinition/qicore-encounter" ]
      },
      "status": "finished",
      "class": {
        "system": "http://terminology.hl7.org/CodeSystem/v3-ActCode",
        "code": "AMB",
        "display": "ambulatory"
      },
      "type": [ {
        "coding": [ {
          "system": "http://snomed.info/sct",
          "code": "185317003",
          "display": "Telephone encounter (procedure)"
        } ]
      } ],
      "subject": {
        "reference": "Patient/dc337be7-7328-4fce-8f6f-71ee2cb75752"
      },
      "period": {
        "start": "2025-01-01T01:00:00.000Z",
        "end": "2025-01-01T01:15:00.000Z"
      }
    },
    "request": {
      "method": "POST",
      "url": "Encounter/Encounter-29"
    }
  }, {
    "fullUrl": "https://madie.cms.gov/Procedure/Procedure-6",
    "resource": {
      "resourceType": "Procedure",
      "id": "Procedure-6",
      "meta": {
        "profile": [ "http://hl7.org/fhir/us/qicore/StructureDefinition/qicore-procedure" ]
      },
      "extension": [ {
        "url": "http://hl7.org/fhir/us/qicore/StructureDefinition/qicore-recorded",
        "valueDateTime": "2015-12-31T23:00:00.000Z"
      } ],
      "status": "completed",
      "code": {
        "coding": [ {
          "system": "http://snomed.info/sct",
          "code": "1209098000",
          "display": "Fiberoptic colonoscopy with biopsy of lesion of colon (procedure)"
        } ]
      },
      "subject": {
        "reference": "Patient/dc337be7-7328-4fce-8f6f-71ee2cb75752"
      },
      "performedPeriod": {
        "start": "2015-12-31T23:00:00.000Z",
        "end": "2015-12-31T23:59:00.000Z"
      }
    },
    "request": {
      "method": "POST",
      "url": "Procedure/Procedure-6"
    }
  }, {
    "fullUrl": "https://madie.cms.gov/MeasureReport/199b82a0-c89f-4345-b2d4-1c9eacb4e6fd",
    "resource": {
      "resourceType": "MeasureReport",
      "id": "199b82a0-c89f-4345-b2d4-1c9eacb4e6fd",
      "meta": {
        "profile": [ "http://hl7.org/fhir/us/cqfmeasures/StructureDefinition/test-case-cqfm" ]
      },
      "contained": [ {
        "resourceType": "Parameters",
        "id": "353d7406-a804-4b25-b8c3-4b3252934c2a-parameters",
        "parameter": [ {
          "name": "subject",
          "valueString": "dc337be7-7328-4fce-8f6f-71ee2cb75752"
        } ]
      } ],
      "extension": [ {
        "url": "http://hl7.org/fhir/us/cqfmeasures/StructureDefinition/cqfm-inputParameters",
        "valueReference": {
          "reference": "#353d7406-a804-4b25-b8c3-4b3252934c2a-parameters"
        }
      }, {
        "url": "http://hl7.org/fhir/us/cqfmeasures/StructureDefinition/cqfm-testCaseDescription",
        "valueMarkdown": "Patient has a colonoscopy ten years prior to the measurement period."
      } ],
      "modifierExtension": [ {
        "url": "http://hl7.org/fhir/us/cqfmeasures/StructureDefinition/cqfm-isTestCase",
        "valueBoolean": true
      } ],
      "status": "complete",
      "type": "individual",
      "measure": "https://madie.cms.gov/Measure/ColonCancerScreeningFHIR",
      "period": {
        "start": "2025-01-01",
        "end": "2025-12-31"
      },
      "group": [ {
        "population": [ {
          "code": {
            "coding": [ {
              "system": "http://terminology.hl7.org/CodeSystem/measure-population",
              "code": "initial-population",
              "display": "Initial Population"
            } ]
          },
          "count": 1
        }, {
          "code": {
            "coding": [ {
              "system": "http://terminology.hl7.org/CodeSystem/measure-population",
              "code": "denominator",
              "display": "Denominator"
            } ]
          },
          "count": 1
        }, {
          "code": {
            "coding": [ {
              "system": "http://terminology.hl7.org/CodeSystem/measure-population",
              "code": "denominator-exclusion",
              "display": "Denominator Exclusion"
            } ]
          },
          "count": 0
        }, {
          "code": {
            "coding": [ {
              "system": "http://terminology.hl7.org/CodeSystem/measure-population",
              "code": "numerator",
              "display": "Numerator"
            } ]
          },
          "count": 0
        } ]
      } ],
      "evaluatedResource": [ {
        "reference": "https://madie.cms.gov/Patient/dc337be7-7328-4fce-8f6f-71ee2cb75752"
      }, {
        "reference": "https://madie.cms.gov/Encounter/Encounter-29"
      }, {
        "reference": "https://madie.cms.gov/Procedure/Procedure-6"
      } ]
    },
    "request": {
      "method": "POST",
      "url": "MeasureReport/199b82a0-c89f-4345-b2d4-1c9eacb4e6fd"
    }
  } ]
}