{
  "resourceType": "Bundle",
  "id": "633b3f9f0968f80122503cdb",
  "type": "transaction",
  "entry": [ {
    "fullUrl": "https://madie.cms.gov/Patient/abb2e07a-48c5-4e6a-94cb-1ab396e1e86a",
    "resource": {
      "resourceType": "Patient",
      "id": "abb2e07a-48c5-4e6a-94cb-1ab396e1e86a",
      "meta": {
        "profile": [ "http://hl7.org/fhir/us/qicore/StructureDefinition/qicore-patient" ]
      },
      "text": {
        "status": "generated",
        "div": "<div xmlns=\"http://www.w3.org/1999/xhtml\"><div class=\"hapiHeaderText\">EncProcEQSevereMatMorbidity <b>NUMPass </b></div><table class=\"hapiPropertyTable\"><tbody><tr><td>Date of birth</td><td><span>01 February 2004</span></td></tr></tbody></table></div>"
      },
      "extension": [ {
        "url": "http://hl7.org/fhir/us/core/StructureDefinition/us-core-race",
        "extension": [ {
          "url": "ombCategory",
          "valueCoding": {
            "system": "urn:oid:2.16.840.1.113883.6.238",
            "code": "1002-5",
            "display": "American Indian or Alaska Native",
            "userSelected": true
          }
        }, {
          "url": "text",
          "valueString": "American Indian or Alaska Native"
        } ]
      }, {
        "url": "http://hl7.org/fhir/us/core/StructureDefinition/us-core-ethnicity",
        "extension": [ {
          "url": "ombCategory",
          "valueCoding": {
            "system": "urn:oid:2.16.840.1.113883.6.238",
            "code": "2135-2",
            "display": "Hispanic or Latino",
            "userSelected": true
          }
        }, {
          "url": "text",
          "valueString": "Hispanic or Latino"
        } ]
      } ],
      "identifier": [ {
        "type": {
          "coding": [ {
            "system": "http://terminology.hl7.org/CodeSystem/v2-0203",
            "code": "MR"
          } ]
        },
        "system": "https://bonnie-fhir.healthit.gov/",
        "value": "633b3f9f0968f80122503cdb"
      } ],
      "active": true,
      "name": [ {
        "use": "usual",
        "family": "NUMPass",
        "given": [ "EncProcEQSevereMatMorbidity" ]
      } ],
      "gender": "female",
      "birthDate": "2004-02-01"
    },
    "request": {
      "method": "POST",
      "url": "Patient/abb2e07a-48c5-4e6a-94cb-1ab396e1e86a"
    }
  }, {
    "fullUrl": "https://madie.cms.gov/Observation/5f29baa26f0b7100008d8af1",
    "resource": {
      "resourceType": "Observation",
      "id": "5f29baa26f0b7100008d8af1",
      "meta": {
        "profile": [ "http://hl7.org/fhir/us/qicore/StructureDefinition/qicore-observation" ]
      },
      "status": "final",
      "category": [ {
        "coding": [ {
          "system": "http://terminology.hl7.org/CodeSystem/observation-category",
          "code": "exam",
          "display": "exam",
          "userSelected": true
        } ]
      } ],
      "code": {
        "coding": [ {
          "system": "http://loinc.org",
          "code": "93857-1"
        } ]
      },
      "subject": {
        "reference": "Patient/abb2e07a-48c5-4e6a-94cb-1ab396e1e86a"
      },
      "effectiveDateTime": "2025-02-01T08:00:00.000+00:00",
      "valueDateTime": "2025-02-01T08:00:00+00:00"
    },
    "request": {
      "method": "POST",
      "url": "Observation/5f29baa26f0b7100008d8af1"
    }
  }, {
    "fullUrl": "https://madie.cms.gov/Observation/5f2b23e36f0b7100008d9b59",
    "resource": {
      "resourceType": "Observation",
      "id": "5f2b23e36f0b7100008d9b59",
      "meta": {
        "profile": [ "http://hl7.org/fhir/us/qicore/StructureDefinition/qicore-observation" ]
      },
      "status": "final",
      "category": [ {
        "coding": [ {
          "system": "http://terminology.hl7.org/CodeSystem/observation-category",
          "code": "exam",
          "display": "exam",
          "userSelected": true
        } ]
      } ],
      "code": {
        "coding": [ {
          "system": "http://loinc.org",
          "code": "11884-4"
        } ]
      },
      "subject": {
        "reference": "Patient/abb2e07a-48c5-4e6a-94cb-1ab396e1e86a"
      },
      "effectiveDateTime": "2025-02-01T08:00:00.000+00:00",
      "valueQuantity": {
        "value": 20,
        "system": "http://unitsofmeasure.org",
        "code": "wk"
      }
    },
    "request": {
      "method": "POST",
      "url": "Observation/5f2b23e36f0b7100008d9b59"
    }
  }, {
    "fullUrl": "https://madie.cms.gov/Encounter/5f21e66daca3e40000cb86cf",
    "resource": {
      "resourceType": "Encounter",
      "id": "5f21e66daca3e40000cb86cf",
      "meta": {
        "profile": [ "http://hl7.org/fhir/us/qicore/StructureDefinition/qicore-encounter" ]
      },
      "status": "finished",
      "class": {
        "system": "http://terminology.hl7.org/CodeSystem/v3-ActCode",
        "code": "IMP",
        "display": "inpatient encounter"
      },
      "type": [ {
        "coding": [ {
          "system": "http://snomed.info/sct",
          "code": "183452005"
        } ]
      } ],
      "subject": {
        "reference": "Patient/abb2e07a-48c5-4e6a-94cb-1ab396e1e86a"
      },
      "period": {
        "start": "2025-02-01T08:00:00.000Z",
        "end": "2025-02-05T08:15:00.000Z"
      },
      "diagnosis": [ {
        "extension": [ {
          "url": "http://hl7.org/fhir/us/qicore/StructureDefinition/qicore-encounter-diagnosisPresentOnAdmission",
          "valueCodeableConcept": {
            "coding": [ {
              "system": "https://www.cms.gov/Medicare/Medicare-Fee-for-Service-Payment/HospitalAcqCond/Coding",
              "code": "N"
            } ]
          }
        } ],
        "condition": {
          "reference": "Condition/severe-maternal-morbidity-diagnoses-adc1"
        }
      } ]
    },
    "request": {
      "method": "POST",
      "url": "Encounter/5f21e66daca3e40000cb86cf"
    }
  }, {
    "fullUrl": "https://madie.cms.gov/Condition/severe-maternal-morbidity-diagnoses-adc1",
    "resource": {
      "resourceType": "Condition",
      "id": "severe-maternal-morbidity-diagnoses-adc1",
      "meta": {
        "profile": [ "http://hl7.org/fhir/us/qicore/StructureDefinition/qicore-condition" ]
      },
      "category": [ {
        "coding": [ {
          "system": "http://terminology.hl7.org/CodeSystem/condition-category",
          "code": "encounter-diagnosis",
          "display": "Encounter Diagnosis"
        } ]
      } ],
      "code": {
        "coding": [ {
          "system": "http://hl7.org/fhir/sid/icd-10-cm",
          "version": "2023",
          "code": "A32.7",
          "display": "Listerial sepsis",
          "userSelected": true
        } ]
      },
      "subject": {
        "reference": "Patient/abb2e07a-48c5-4e6a-94cb-1ab396e1e86a"
      },
      "recordedDate": "2025-10-26T08:00:00.000+00:00"
    },
    "request": {
      "method": "POST",
      "url": "Condition/severe-maternal-morbidity-diagnoses-adc1"
    }
  }, {
    "fullUrl": "https://madie.cms.gov/Condition/placenta-increta-adc1",
    "resource": {
      "resourceType": "Condition",
      "id": "placenta-increta-adc1",
      "meta": {
        "profile": [ "http://hl7.org/fhir/us/qicore/StructureDefinition/qicore-condition" ]
      },
      "category": [ {
        "coding": [ {
          "system": "http://terminology.hl7.org/CodeSystem/condition-category",
          "code": "encounter-diagnosis",
          "display": "Encounter Diagnosis"
        } ]
      } ],
      "code": {
        "coding": [ {
          "system": "http://hl7.org/fhir/sid/icd-10-cm",
          "version": "2023",
          "code": "O43.229",
          "display": "Placenta increta, unspecified trimester",
          "userSelected": true
        } ]
      },
      "subject": {
        "reference": "Patient/abb2e07a-48c5-4e6a-94cb-1ab396e1e86a"
      },
      "recordedDate": "2025-02-01T08:00:00.000+00:00"
    },
    "request": {
      "method": "POST",
      "url": "Condition/placenta-increta-adc1"
    }
  }, {
    "fullUrl": "https://madie.cms.gov/Coverage/5f2c54181c76ba5c99605813",
    "resource": {
      "resourceType": "Coverage",
      "id": "5f2c54181c76ba5c99605813",
      "status": "active",
      "beneficiary": {
        "reference": "Patient/abb2e07a-48c5-4e6a-94cb-1ab396e1e86a"
      },
      "period": {
        "start": "2004-02-01T08:00:00.000Z"
      },
      "payor": [ {
        "reference": "Organization/123456"
      } ]
    },
    "request": {
      "method": "POST",
      "url": "Coverage/5f2c54181c76ba5c99605813"
    }
  }, {
    "fullUrl": "https://madie.cms.gov/Procedure/5f21e716aca3e40000cb87ee",
    "resource": {
      "resourceType": "Procedure",
      "id": "5f21e716aca3e40000cb87ee",
      "meta": {
        "profile": [ "http://hl7.org/fhir/us/qicore/StructureDefinition/qicore-procedure" ]
      },
      "extension": [ {
        "url": "http://hl7.org/fhir/us/qicore/StructureDefinition/qicore-recorded",
        "valueDateTime": "2013-04-05T09:35:00-04:00"
      } ],
      "status": "completed",
      "code": {
        "coding": [ {
          "system": "http://snomed.info/sct",
          "code": "10745001"
        } ]
      },
      "subject": {
        "reference": "Patient/abb2e07a-48c5-4e6a-94cb-1ab396e1e86a"
      },
      "performedPeriod": {
        "start": "2025-02-01T08:00:00.000Z",
        "end": "2025-02-05T08:15:00.000Z"
      }
    },
    "request": {
      "method": "POST",
      "url": "Procedure/5f21e716aca3e40000cb87ee"
    }
  }, {
    "fullUrl": "https://madie.cms.gov/Procedure/SMMProcedure",
    "resource": {
      "resourceType": "Procedure",
      "id": "SMMProcedure",
      "meta": {
        "profile": [ "http://hl7.org/fhir/us/qicore/StructureDefinition/qicore-procedure" ]
      },
      "extension": [ {
        "url": "http://hl7.org/fhir/us/qicore/StructureDefinition/qicore-recorded",
        "valueDateTime": "2025-02-01T00:01:00-04:00"
      } ],
      "status": "completed",
      "code": {
        "coding": [ {
          "system": "http://snomed.info/sct",
          "code": "11050006"
        } ]
      },
      "subject": {
        "reference": "Patient/abb2e07a-48c5-4e6a-94cb-1ab396e1e86a"
      },
      "performedPeriod": {
        "start": "2025-02-04T00:00:00.000Z",
        "end": "2025-02-04T11:59:00.000Z"
      }
    },
    "request": {
      "method": "POST",
      "url": "Procedure/SMMProcedure"
    }
  }, {
    "fullUrl": "https://madie.cms.gov/Organization/123456",
    "resource": {
      "resourceType": "Organization",
      "id": "123456",
      "meta": {
        "profile": [ "http://hl7.org/fhir/us/qicore/StructureDefinition/qicore-organization" ]
      },
      "identifier": [ {
        "use": "temp",
        "system": "urn:oid:2.16.840.1.113883.4.4",
        "value": "21-3259825"
      } ],
      "active": true,
      "type": [ {
        "coding": [ {
          "system": "http://terminology.hl7.org/CodeSystem/organization-type",
          "code": "pay",
          "display": "Payer"
        } ]
      } ],
      "name": "Blue Cross Blue Shield of Texas",
      "telecom": [ {
        "system": "phone",
        "value": "(+1) 972-766-6900"
      } ],
      "address": [ {
        "use": "billing",
        "type": "postal",
        "line": [ "P.O. Box 660044" ],
        "city": "Dallas",
        "state": "TX",
        "postalCode": "75266-0044",
        "country": "USA"
      } ]
    },
    "request": {
      "method": "POST",
      "url": "Organization/123456"
    }
  }, {
    "fullUrl": "https://madie.cms.gov/Practitioner/practitioner-123456",
    "resource": {
      "resourceType": "Practitioner",
      "id": "practitioner-123456",
      "identifier": [ {
        "system": "http://hl7.org/fhir/sid/us-npi",
        "value": "123456"
      } ],
      "name": [ {
        "family": "Evil",
        "prefix": [ "Dr" ]
      } ]
    },
    "request": {
      "method": "POST",
      "url": "Practitioner/practitioner-123456"
    }
  }, {
    "fullUrl": "https://madie.cms.gov/MeasureReport/8720bb3b-2b1b-4800-be6d-bb59cb5da561",
    "resource": {
      "resourceType": "MeasureReport",
      "id": "8720bb3b-2b1b-4800-be6d-bb59cb5da561",
      "meta": {
        "profile": [ "http://hl7.org/fhir/us/cqfmeasures/StructureDefinition/test-case-cqfm" ]
      },
      "contained": [ {
        "resourceType": "Parameters",
        "id": "49f84312-3fba-459a-99ab-a34a27588627-parameters",
        "parameter": [ {
          "name": "subject",
          "valueString": "abb2e07a-48c5-4e6a-94cb-1ab396e1e86a"
        } ]
      } ],
      "extension": [ {
        "url": "http://hl7.org/fhir/us/cqfmeasures/StructureDefinition/cqfm-inputParameters",
        "valueReference": {
          "reference": "#49f84312-3fba-459a-99ab-a34a27588627-parameters"
        }
      }, {
        "url": "http://hl7.org/fhir/us/cqfmeasures/StructureDefinition/cqfm-testCaseDescription",
        "valueMarkdown": "Hysterectomy with Placenta Increta and Sepsis (SMM Diagnosis)"
      } ],
      "modifierExtension": [ {
        "url": "http://hl7.org/fhir/us/cqfmeasures/StructureDefinition/cqfm-isTestCase",
        "valueBoolean": true
      } ],
      "status": "complete",
      "type": "individual",
      "measure": "https://madie.cms.gov/Measure/SevereObstetricComplicationsFHIR",
      "period": {
        "start": "2025-01-01",
        "end": "2025-12-31"
      },
      "group": [ {
        "population": [ {
          "code": {
            "coding": [ {
              "system": "http://terminology.hl7.org/CodeSystem/measure-population",
              "code": "initial-population",
              "display": "Initial Population"
            } ]
          },
          "count": 1
        }, {
          "code": {
            "coding": [ {
              "system": "http://terminology.hl7.org/CodeSystem/measure-population",
              "code": "denominator",
              "display": "Denominator"
            } ]
          },
          "count": 1
        }, {
          "code": {
            "coding": [ {
              "system": "http://terminology.hl7.org/CodeSystem/measure-population",
              "code": "denominator-exclusion",
              "display": "Denominator Exclusion"
            } ]
          },
          "count": 0
        }, {
          "code": {
            "coding": [ {
              "system": "http://terminology.hl7.org/CodeSystem/measure-population",
              "code": "numerator",
              "display": "Numerator"
            } ]
          },
          "count": 1
        }, {
          "code": {
            "coding": [ {
              "system": "http://terminology.hl7.org/CodeSystem/measure-population",
              "code": "numerator-exclusion",
              "display": "Numerator Exclusion"
            } ]
          },
          "count": 0
        } ]
      }, {
        "population": [ {
          "code": {
            "coding": [ {
              "system": "http://terminology.hl7.org/CodeSystem/measure-population",
              "code": "initial-population",
              "display": "Initial Population"
            } ]
          },
          "count": 1
        }, {
          "code": {
            "coding": [ {
              "system": "http://terminology.hl7.org/CodeSystem/measure-population",
              "code": "denominator",
              "display": "Denominator"
            } ]
          },
          "count": 1
        }, {
          "code": {
            "coding": [ {
              "system": "http://terminology.hl7.org/CodeSystem/measure-population",
              "code": "denominator-exclusion",
              "display": "Denominator Exclusion"
            } ]
          },
          "count": 0
        }, {
          "code": {
            "coding": [ {
              "system": "http://terminology.hl7.org/CodeSystem/measure-population",
              "code": "numerator",
              "display": "Numerator"
            } ]
          },
          "count": 1
        }, {
          "code": {
            "coding": [ {
              "system": "http://terminology.hl7.org/CodeSystem/measure-population",
              "code": "numerator-exclusion",
              "display": "Numerator Exclusion"
            } ]
          },
          "count": 0
        } ]
      } ],
      "evaluatedResource": [ {
        "reference": "https://madie.cms.gov/Patient/abb2e07a-48c5-4e6a-94cb-1ab396e1e86a"
      }, {
        "reference": "https://madie.cms.gov/Observation/5f29baa26f0b7100008d8af1"
      }, {
        "reference": "https://madie.cms.gov/Observation/5f2b23e36f0b7100008d9b59"
      }, {
        "reference": "https://madie.cms.gov/Encounter/5f21e66daca3e40000cb86cf"
      }, {
        "reference": "https://madie.cms.gov/Condition/severe-maternal-morbidity-diagnoses-adc1"
      }, {
        "reference": "https://madie.cms.gov/Condition/placenta-increta-adc1"
      }, {
        "reference": "https://madie.cms.gov/Coverage/5f2c54181c76ba5c99605813"
      }, {
        "reference": "https://madie.cms.gov/Procedure/5f21e716aca3e40000cb87ee"
      }, {
        "reference": "https://madie.cms.gov/Procedure/SMMProcedure"
      }, {
        "reference": "https://madie.cms.gov/Organization/123456"
      }, {
        "reference": "https://madie.cms.gov/Practitioner/practitioner-123456"
      } ]
    },
    "request": {
      "method": "POST",
      "url": "MeasureReport/8720bb3b-2b1b-4800-be6d-bb59cb5da561"
    }
  } ]
}