{"resourceType":"Bundle","id":"tests-9baac6c5-1826-4c06-a4a4-6ef5bfda76ba-bundle","type":"transaction","entry":[{"fullUrl":"https://madie.cms.gov/Patient/9baac6c5-1826-4c06-a4a4-6ef5bfda76ba","resource":{"resourceType":"Patient","id":"9baac6c5-1826-4c06-a4a4-6ef5bfda76ba","meta":{"profile":["http://hl7.org/fhir/us/qicore/StructureDefinition/qicore-patient"]},"text":{"status":"generated","div":"<div xmlns=\"http://www.w3.org/1999/xhtml\"><div class=\"hapiHeaderText\">Turns 18 day of Encounter <b>NUMERPass </b></div><table class=\"hapiPropertyTable\"><tbody><tr><td>Identifier</td><td>f0eda1c9668fdacdcad3378589bf6e0a71e7dec1618f14fca4d442ec96e402b1</td></tr><tr><td>Date of birth</td><td><span>29 September 2006</span></td></tr></tbody></table></div>"},"extension":[{"url":"http://hl7.org/fhir/us/core/StructureDefinition/us-core-race","extension":[{"url":"ombCategory","valueCoding":{"system":"urn:oid:2.16.840.1.113883.6.238","code":"1002-5","display":"American Indian or Alaska Native","userSelected":true}},{"url":"text","valueString":"American Indian or Alaska Native"}]},{"url":"http://hl7.org/fhir/us/core/StructureDefinition/us-core-ethnicity","extension":[{"url":"ombCategory","valueCoding":{"system":"urn:oid:2.16.840.1.113883.6.238","code":"2135-2","display":"Hispanic or Latino","userSelected":true}},{"url":"text","valueString":"Hispanic or Latino"}]}],"identifier":[{"type":{"coding":[{"system":"http://terminology.hl7.org/CodeSystem/v2-0203","code":"MR"}]},"system":"http://bonnie-fhir.healthit.gov/","value":"NUMERPass-SCrIncrease2x"}],"active":true,"name":[{"use":"usual","family":"NUMERPass","given":["SCrIncrease2x"]}],"gender":"female","birthDate":"1982-10-10"},"request":{"method":"PUT","url":"Patient/9baac6c5-1826-4c06-a4a4-6ef5bfda76ba"}},{"fullUrl":"https://madie.cms.gov/Encounter/NUMERPass-SCrIncrease2x-01","resource":{"resourceType":"Encounter","id":"65269527-a095-41f6-920e-37175c9502d1","meta":{"profile":["http://hl7.org/fhir/us/qicore/StructureDefinition/qicore-encounter"]},"status":"finished","class":{"system":"http://terminology.hl7.org/CodeSystem/v3-ActCode","code":"EMER","display":"emergency"},"type":[{"coding":[{"system":"http://snomed.info/sct","code":"4525004"}]}],"subject":{"reference":"Patient/9baac6c5-1826-4c06-a4a4-6ef5bfda76ba"},"period":{"start":"2025-09-29T08:00:00.000Z","end":"2025-09-30T20:00:00.000Z"}},"request":{"method":"PUT","url":"Encounter/65269527-a095-41f6-920e-37175c9502d1"}},{"fullUrl":"https://madie.cms.gov/Encounter/NUMERPass-SCrIncrease2x-02","resource":{"resourceType":"Encounter","id":"6a12cedb-5476-48dc-9c62-fd02c7fee497","meta":{"profile":["http://hl7.org/fhir/us/qicore/StructureDefinition/qicore-encounter"]},"status":"finished","class":{"system":"http://terminology.hl7.org/CodeSystem/v3-ActCode","code":"IMP","display":"inpatient encounter"},"type":[{"coding":[{"system":"http://snomed.info/sct","code":"183452005"}]}],"subject":{"reference":"Patient/9baac6c5-1826-4c06-a4a4-6ef5bfda76ba"},"period":{"start":"2025-09-29T20:00:00.000Z","end":"2025-10-04T08:15:00.000Z"}},"request":{"method":"PUT","url":"Encounter/6a12cedb-5476-48dc-9c62-fd02c7fee497"}},{"fullUrl":"https://madie.cms.gov/Observation/NUMERPass-SCrIncrease2x-16","resource":{"resourceType":"Observation","id":"339bf8f5-b974-4819-899a-b9e2013929f5","meta":{"profile":["http://hl7.org/fhir/us/qicore/StructureDefinition/qicore-observation"]},"status":"final","category":[{"coding":[{"system":"http://terminology.hl7.org/CodeSystem/observation-category","code":"laboratory","display":"Laboratory"}]}],"code":{"coding":[{"system":"http://loinc.org","version":"2.72","code":"2160-0","display":"Creatinine [Mass/volume] in Serum or Plasma","userSelected":true}]},"subject":{"reference":"Patient/9baac6c5-1826-4c06-a4a4-6ef5bfda76ba"},"effectiveDateTime":"2025-09-30T09:00:00+00:00","issued":"2025-09-30T09:30:00+00:00","valueQuantity":{"value":1.1,"unit":"mg/dL","system":"http://unitsofmeasure.org","code":"mg/dL"}},"request":{"method":"PUT","url":"Observation/339bf8f5-b974-4819-899a-b9e2013929f5"}},{"fullUrl":"https://madie.cms.gov/Observation/NUMERPass-SCrIncrease2x-15","resource":{"resourceType":"Observation","id":"ae024081-7e62-4997-87f5-8818fb1f66d4","meta":{"profile":["http://hl7.org/fhir/us/qicore/StructureDefinition/qicore-observation"]},"status":"final","category":[{"coding":[{"system":"http://terminology.hl7.org/CodeSystem/observation-category","code":"laboratory","display":"Laboratory"}]}],"code":{"coding":[{"system":"http://loinc.org","version":"2.72","code":"2160-0","display":"Creatinine [Mass/volume] in Serum or Plasma","userSelected":true}]},"subject":{"reference":"Patient/9baac6c5-1826-4c06-a4a4-6ef5bfda76ba"},"effectiveDateTime":"2025-09-30T08:00:00+00:00","issued":"2025-09-30T08:30:00+00:00","valueQuantity":{"value":1,"unit":"mg/dL","system":"http://unitsofmeasure.org","code":"mg/dL"}},"request":{"method":"PUT","url":"Observation/ae024081-7e62-4997-87f5-8818fb1f66d4"}},{"fullUrl":"https://madie.cms.gov/Observation/NUMERPass-SCrIncrease2x-17","resource":{"resourceType":"Observation","id":"6a8a39b2-1419-439f-914b-b17dfa57e440","meta":{"profile":["http://hl7.org/fhir/us/qicore/StructureDefinition/qicore-observation"]},"status":"final","category":[{"coding":[{"system":"http://terminology.hl7.org/CodeSystem/observation-category","code":"laboratory","display":"Laboratory"}]}],"code":{"coding":[{"system":"http://loinc.org","version":"2.72","code":"2160-0","display":"Creatinine [Mass/volume] in Serum or Plasma","userSelected":true}]},"subject":{"reference":"Patient/9baac6c5-1826-4c06-a4a4-6ef5bfda76ba"},"effectiveDateTime":"2025-10-02T08:00:00+00:00","issued":"2025-10-02T08:30:00+00:00","valueQuantity":{"value":1.1,"unit":"mg/dL","system":"http://unitsofmeasure.org","code":"mg/dL"}},"request":{"method":"PUT","url":"Observation/6a8a39b2-1419-439f-914b-b17dfa57e440"}},{"fullUrl":"https://madie.cms.gov/Observation/NUMERPass-SCrIncrease2x-18","resource":{"resourceType":"Observation","id":"35a9aa35-c10b-496c-ada7-e633f6addcc5","meta":{"profile":["http://hl7.org/fhir/us/qicore/StructureDefinition/qicore-observation"]},"status":"final","category":[{"coding":[{"system":"http://terminology.hl7.org/CodeSystem/observation-category","code":"laboratory","display":"Laboratory"}]}],"code":{"coding":[{"system":"http://loinc.org","code":"2160-0","display":"Creatinine [Mass/volume] in Serum or Plasma"}]},"subject":{"reference":"Patient/9baac6c5-1826-4c06-a4a4-6ef5bfda76ba"},"effectiveDateTime":"2025-10-03T08:00:00+00:00","issued":"2025-10-03T08:30:00+00:00","valueQuantity":{"value":2.2,"unit":"mg/dL","system":"http://unitsofmeasure.org","code":"mg/dL"}},"request":{"method":"PUT","url":"Observation/35a9aa35-c10b-496c-ada7-e633f6addcc5"}},{"fullUrl":"https://madie.cms.gov/Coverage/NUMERPass-SCrIncrease2x-61","resource":{"resourceType":"Coverage","id":"efd877a3-5ed0-4f2c-9373-dc86c9f8eaf7","meta":{"profile":["http://hl7.org/fhir/us/qicore/StructureDefinition/qicore-coverage"]},"status":"active","type":{"coding":[{"system":"https://nahdo.org/sopt","version":"9.2","code":"211","display":"Medicaid HMO"}]},"beneficiary":{"reference":"Patient/9baac6c5-1826-4c06-a4a4-6ef5bfda76ba"},"period":{"start":"2023-12-01T00:00:00+00:00"},"payor":[{"reference":"Organization/26111c91-b0e2-476c-a20b-e3f39799f8f5"}]},"request":{"method":"PUT","url":"Coverage/efd877a3-5ed0-4f2c-9373-dc86c9f8eaf7"}},{"fullUrl":"https://madie.cms.gov/Organization/NUMERPass-SCrIncrease2x-98","resource":{"resourceType":"Organization","id":"26111c91-b0e2-476c-a20b-e3f39799f8f5","meta":{"profile":["http://hl7.org/fhir/us/qicore/StructureDefinition/qicore-organization"]},"identifier":[{"use":"temp","system":"urn:oid:2.16.840.1.113883.4.4","value":"21-3259825"}],"active":true,"type":[{"coding":[{"system":"http://terminology.hl7.org/CodeSystem/organization-type","code":"pay","display":"Payer"}]}],"name":"Blue Cross Blue Shield of Texas","telecom":[{"system":"phone","value":"(+1) 972-766-6900"}],"address":[{"use":"billing","type":"postal","line":["P.O. Box 660044"],"city":"Dallas","state":"TX","postalCode":"75266-0044","country":"USA"}]},"request":{"method":"PUT","url":"Organization/26111c91-b0e2-476c-a20b-e3f39799f8f5"}},{"fullUrl":"https://madie.cms.gov/MeasureReport/d07b34bc-c9c1-4ed2-9dd1-70957f4b772d","resource":{"resourceType":"MeasureReport","id":"d07b34bc-c9c1-4ed2-9dd1-70957f4b772d","meta":{"profile":["http://hl7.org/fhir/us/cqfmeasures/StructureDefinition/test-case-cqfm"]},"contained":[{"resourceType":"Parameters","id":"45cb434d-79fb-4978-b171-b1355b1484be-parameters","parameter":[{"name":"subject","valueString":"9baac6c5-1826-4c06-a4a4-6ef5bfda76ba"}]}],"extension":[{"url":"http://hl7.org/fhir/us/cqfmeasures/StructureDefinition/cqfm-inputParameters","valueReference":{"reference":"#45cb434d-79fb-4978-b171-b1355b1484be-parameters"}},{"url":"http://hl7.org/fhir/us/cqfmeasures/StructureDefinition/cqfm-testCaseDescription","valueMarkdown":"2TimeIncreaseInCreatUseRelevantPeriod FEMALE\nVScode: Numerator=[Encounter(id=NUMERPass-SCrIncrease2x-02)]\n"}],"modifierExtension":[{"url":"http://hl7.org/fhir/us/cqfmeasures/StructureDefinition/cqfm-isTestCase","valueBoolean":true}],"status":"complete","type":"individual","measure":"https://madie.cms.gov/Measure/HospitalHarmAcuteKidneyInjuryFHIR","period":{"start":"2025-01-01","end":"2025-12-31"},"group":[{"population":[{"code":{"coding":[{"system":"http://terminology.hl7.org/CodeSystem/measure-population","code":"initial-population","display":"Initial Population"}]},"count":1},{"code":{"coding":[{"system":"http://terminology.hl7.org/CodeSystem/measure-population","code":"denominator","display":"Denominator"}]},"count":1},{"code":{"coding":[{"system":"http://terminology.hl7.org/CodeSystem/measure-population","code":"denominator-exclusion","display":"Denominator Exclusion"}]},"count":0},{"code":{"coding":[{"system":"http://terminology.hl7.org/CodeSystem/measure-population","code":"numerator","display":"Numerator"}]},"count":1}]}]},"request":{"method":"PUT","url":"MeasureReport/d07b34bc-c9c1-4ed2-9dd1-70957f4b772d"}}]}