{"resourceType":"Bundle","id":"tests-d986061c-de3e-4d5d-95e7-f5ec93c5665c-bundle","type":"transaction","entry":[{"fullUrl":"https://madie.cms.gov/Patient/d986061c-de3e-4d5d-95e7-f5ec93c5665c","resource":{"resourceType":"Patient","id":"d986061c-de3e-4d5d-95e7-f5ec93c5665c","meta":{"profile":["http://hl7.org/fhir/us/qicore/StructureDefinition/qicore-patient"]},"extension":[{"url":"http://hl7.org/fhir/us/core/StructureDefinition/us-core-race","extension":[{"url":"ombCategory","valueCoding":{"system":"urn:oid:2.16.840.1.113883.6.238","code":"2028-9","display":"Asian"}},{"url":"text","valueString":"Asian"}]},{"url":"http://hl7.org/fhir/us/core/StructureDefinition/us-core-ethnicity","extension":[{"url":"ombCategory","valueCoding":{"system":"urn:oid:2.16.840.1.113883.6.238","code":"2135-2","display":"Hispanic or Latino"}},{"url":"text","valueString":"Hispanic or Latino"}]}],"identifier":[{"system":"http://hospital.smarthealthit.org","value":"999999995"}],"name":[{"family":"Bertha","given":["Betty"]}],"gender":"female","birthDate":"2001-12-31"},"request":{"method":"PUT","url":"Patient/d986061c-de3e-4d5d-95e7-f5ec93c5665c"}},{"fullUrl":"https://madie.cms.gov/Encounter/Encounter-8","resource":{"resourceType":"Encounter","id":"71eb55f9-aed2-4b5a-8815-61a08e42dd5f","meta":{"profile":["http://hl7.org/fhir/us/qicore/StructureDefinition/qicore-encounter"]},"status":"finished","class":{"system":"http://terminology.hl7.org/CodeSystem/v3-ActCode","code":"AMB","display":"ambulatory"},"type":[{"coding":[{"system":"http://snomed.info/sct","code":"185460008","display":"Home visit request by patient (procedure)"}]}],"subject":{"reference":"Patient/d986061c-de3e-4d5d-95e7-f5ec93c5665c"},"period":{"start":"2025-01-01T00:00:00.000Z","end":"2025-01-01T01:00:00.000Z"}},"request":{"method":"PUT","url":"Encounter/71eb55f9-aed2-4b5a-8815-61a08e42dd5f"}},{"fullUrl":"https://madie.cms.gov/Encounter/Encounter-9","resource":{"resourceType":"Encounter","id":"0cfd7c08-6279-47fc-bfc1-4f5c81f2b9f0","meta":{"profile":["http://hl7.org/fhir/us/qicore/StructureDefinition/qicore-encounter"]},"status":"finished","class":{"system":"http://terminology.hl7.org/CodeSystem/v3-ActCode","code":"AMB","display":"ambulatory"},"type":[{"coding":[{"system":"http://snomed.info/sct","code":"183921001","display":"Admission to hospice for respite (procedure)"}]}],"subject":{"reference":"Patient/d986061c-de3e-4d5d-95e7-f5ec93c5665c"},"period":{"start":"2024-12-31T23:59:59.000Z","end":"2025-01-01T01:00:00.000Z"}},"request":{"method":"PUT","url":"Encounter/0cfd7c08-6279-47fc-bfc1-4f5c81f2b9f0"}},{"fullUrl":"https://madie.cms.gov/MeasureReport/705e9d86-02ba-467b-98ae-fb33ee005d1d","resource":{"resourceType":"MeasureReport","id":"705e9d86-02ba-467b-98ae-fb33ee005d1d","meta":{"profile":["http://hl7.org/fhir/us/cqfmeasures/StructureDefinition/test-case-cqfm"]},"contained":[{"resourceType":"Parameters","id":"45163ff8-3a10-47f8-a32a-7f64de67bf12-parameters","parameter":[{"name":"subject","valueString":"d986061c-de3e-4d5d-95e7-f5ec93c5665c"}]}],"extension":[{"url":"http://hl7.org/fhir/us/cqfmeasures/StructureDefinition/cqfm-inputParameters","valueReference":{"reference":"#45163ff8-3a10-47f8-a32a-7f64de67bf12-parameters"}},{"url":"http://hl7.org/fhir/us/cqfmeasures/StructureDefinition/cqfm-testCaseDescription","valueMarkdown":"Hospice Encounter - For meeting 100% coverage"}],"modifierExtension":[{"url":"http://hl7.org/fhir/us/cqfmeasures/StructureDefinition/cqfm-isTestCase","valueBoolean":true}],"status":"complete","type":"individual","measure":"https://madie.cms.gov/Measure/CervicalCancerScreeningFHIR","period":{"start":"2025-01-01","end":"2025-12-31"},"group":[{"population":[{"code":{"coding":[{"system":"http://terminology.hl7.org/CodeSystem/measure-population","code":"initial-population","display":"Initial Population"}]},"count":1},{"code":{"coding":[{"system":"http://terminology.hl7.org/CodeSystem/measure-population","code":"denominator","display":"Denominator"}]},"count":1},{"code":{"coding":[{"system":"http://terminology.hl7.org/CodeSystem/measure-population","code":"denominator-exclusion","display":"Denominator Exclusion"}]},"count":1},{"code":{"coding":[{"system":"http://terminology.hl7.org/CodeSystem/measure-population","code":"numerator","display":"Numerator"}]},"count":0}]}]},"request":{"method":"PUT","url":"MeasureReport/705e9d86-02ba-467b-98ae-fb33ee005d1d"}}]}