{"resourceType":"Bundle","id":"tests-d15cf8c6-5f36-4874-83a5-d726945721c6-bundle","type":"transaction","entry":[{"fullUrl":"https://madie.cms.gov/Patient/d15cf8c6-5f36-4874-83a5-d726945721c6","resource":{"resourceType":"Patient","id":"d15cf8c6-5f36-4874-83a5-d726945721c6","meta":{"profile":["http://hl7.org/fhir/us/qicore/StructureDefinition/qicore-patient"]},"extension":[{"url":"http://hl7.org/fhir/us/core/StructureDefinition/us-core-race","extension":[{"url":"ombCategory","valueCoding":{"system":"urn:oid:2.16.840.1.113883.6.238","code":"2028-9","display":"Asian"}},{"url":"text","valueString":"Asian"}]},{"url":"http://hl7.org/fhir/us/core/StructureDefinition/us-core-ethnicity","extension":[{"url":"ombCategory","valueCoding":{"system":"urn:oid:2.16.840.1.113883.6.238","code":"2135-2","display":"Hispanic or Latino"}},{"url":"text","valueString":"Hispanic or Latino"}]}],"identifier":[{"system":"http://hospital.smarthealthit.org","value":"999999995"}],"name":[{"family":"Bertha","given":["Betty"]}],"gender":"female","birthDate":"1961-01-01"},"request":{"method":"PUT","url":"Patient/d15cf8c6-5f36-4874-83a5-d726945721c6"}},{"fullUrl":"https://madie.cms.gov/Encounter/Encounter-43","resource":{"resourceType":"Encounter","id":"4aae7b0e-3857-4b71-b32a-0845a70342a4","meta":{"profile":["http://hl7.org/fhir/us/qicore/StructureDefinition/qicore-encounter"]},"status":"arrived","class":{"system":"http://terminology.hl7.org/CodeSystem/v3-ActCode","code":"AMB","display":"ambulatory"},"type":[{"coding":[{"system":"http://snomed.info/sct","code":"3391000175108","display":"Office visit for pediatric care and assessment (procedure)"}]}],"subject":{"reference":"Patient/d15cf8c6-5f36-4874-83a5-d726945721c6"},"period":{"start":"2025-12-31T01:00:00.000Z","end":"2025-12-31T01:15:00.000Z"}},"request":{"method":"PUT","url":"Encounter/4aae7b0e-3857-4b71-b32a-0845a70342a4"}},{"fullUrl":"https://madie.cms.gov/MeasureReport/83d91672-7710-4edd-bfb8-6cd704a39bd3","resource":{"resourceType":"MeasureReport","id":"83d91672-7710-4edd-bfb8-6cd704a39bd3","meta":{"profile":["http://hl7.org/fhir/us/cqfmeasures/StructureDefinition/test-case-cqfm"]},"contained":[{"resourceType":"Parameters","id":"8f67ac8f-7899-4d65-ac79-f064950c04ae-parameters","parameter":[{"name":"subject","valueString":"d15cf8c6-5f36-4874-83a5-d726945721c6"}]}],"extension":[{"url":"http://hl7.org/fhir/us/cqfmeasures/StructureDefinition/cqfm-inputParameters","valueReference":{"reference":"#8f67ac8f-7899-4d65-ac79-f064950c04ae-parameters"}},{"url":"http://hl7.org/fhir/us/cqfmeasures/StructureDefinition/cqfm-testCaseDescription","valueMarkdown":"Female 64 years old with qualifying encounter during MP"}],"modifierExtension":[{"url":"http://hl7.org/fhir/us/cqfmeasures/StructureDefinition/cqfm-isTestCase","valueBoolean":true}],"status":"complete","type":"individual","measure":"https://madie.cms.gov/Measure/CervicalCancerScreeningFHIR","period":{"start":"2025-01-01","end":"2025-12-31"},"group":[{"population":[{"code":{"coding":[{"system":"http://terminology.hl7.org/CodeSystem/measure-population","code":"initial-population","display":"Initial Population"}]},"count":1},{"code":{"coding":[{"system":"http://terminology.hl7.org/CodeSystem/measure-population","code":"denominator","display":"Denominator"}]},"count":1},{"code":{"coding":[{"system":"http://terminology.hl7.org/CodeSystem/measure-population","code":"denominator-exclusion","display":"Denominator Exclusion"}]},"count":0},{"code":{"coding":[{"system":"http://terminology.hl7.org/CodeSystem/measure-population","code":"numerator","display":"Numerator"}]},"count":0}]}]},"request":{"method":"PUT","url":"MeasureReport/83d91672-7710-4edd-bfb8-6cd704a39bd3"}}]}