{"resourceType":"Bundle","id":"tests-cadbffa0-20b2-4c26-b202-75b9edfd0a07-bundle","type":"transaction","entry":[{"fullUrl":"https://madie.cms.gov/Patient/cadbffa0-20b2-4c26-b202-75b9edfd0a07","resource":{"resourceType":"Patient","id":"cadbffa0-20b2-4c26-b202-75b9edfd0a07","meta":{"profile":["http://hl7.org/fhir/us/qicore/StructureDefinition/qicore-patient"]},"extension":[{"url":"http://hl7.org/fhir/us/core/StructureDefinition/us-core-race","extension":[{"url":"ombCategory","valueCoding":{"system":"urn:oid:2.16.840.1.113883.6.238","code":"2028-9","display":"Asian"}},{"url":"text","valueString":"Asian"}]},{"url":"http://hl7.org/fhir/us/core/StructureDefinition/us-core-ethnicity","extension":[{"url":"ombCategory","valueCoding":{"system":"urn:oid:2.16.840.1.113883.6.238","code":"2135-2","display":"Hispanic or Latino"}},{"url":"text","valueString":"Hispanic or Latino"}]}],"identifier":[{"system":"http://hospital.smarthealthit.org","value":"999999995"}],"name":[{"family":"Bertha","given":["Betty"]}],"gender":"female","birthDate":"2001-12-31"},"request":{"method":"PUT","url":"Patient/cadbffa0-20b2-4c26-b202-75b9edfd0a07"}},{"fullUrl":"https://madie.cms.gov/Encounter/Encounter-5","resource":{"resourceType":"Encounter","id":"52a9ce83-08ea-4c15-8fb7-51f07a80882c","meta":{"profile":["http://hl7.org/fhir/us/qicore/StructureDefinition/qicore-encounter"]},"status":"finished","class":{"system":"http://terminology.hl7.org/CodeSystem/v3-ActCode","code":"AMB","display":"ambulatory"},"type":[{"coding":[{"system":"http://snomed.info/sct","code":"185460008","display":"Home visit request by patient (procedure)"}]}],"subject":{"reference":"Patient/cadbffa0-20b2-4c26-b202-75b9edfd0a07"},"period":{"start":"2025-01-01T00:00:00.000Z","end":"2025-01-01T01:00:00.000Z"}},"request":{"method":"PUT","url":"Encounter/52a9ce83-08ea-4c15-8fb7-51f07a80882c"}},{"fullUrl":"https://madie.cms.gov/Condition/Condition-2","resource":{"resourceType":"Condition","id":"ec09a288-a5fd-4232-af46-f3650233cf1d","meta":{"profile":["http://hl7.org/fhir/us/qicore/StructureDefinition/qicore-condition"]},"clinicalStatus":{"coding":[{"system":"http://terminology.hl7.org/CodeSystem/condition-clinical","code":"active"}]},"category":[{"coding":[{"system":"http://terminology.hl7.org/CodeSystem/condition-category","code":"problem-list-item","display":"Problem List Item"}]}],"code":{"coding":[{"system":"http://snomed.info/sct","code":"170935008","display":"Full care by hospice (finding)"}]},"subject":{"reference":"Patient/cadbffa0-20b2-4c26-b202-75b9edfd0a07"},"onsetDateTime":"2025-01-01T00:00:00.000Z"},"request":{"method":"PUT","url":"Condition/ec09a288-a5fd-4232-af46-f3650233cf1d"}},{"fullUrl":"https://madie.cms.gov/MeasureReport/68717872-f2a2-4511-905d-1a19e28d2a25","resource":{"resourceType":"MeasureReport","id":"68717872-f2a2-4511-905d-1a19e28d2a25","meta":{"profile":["http://hl7.org/fhir/us/cqfmeasures/StructureDefinition/test-case-cqfm"]},"contained":[{"resourceType":"Parameters","id":"36203ec6-1547-4ec5-929c-99e5513ef62b-parameters","parameter":[{"name":"subject","valueString":"cadbffa0-20b2-4c26-b202-75b9edfd0a07"}]}],"extension":[{"url":"http://hl7.org/fhir/us/cqfmeasures/StructureDefinition/cqfm-inputParameters","valueReference":{"reference":"#36203ec6-1547-4ec5-929c-99e5513ef62b-parameters"}},{"url":"http://hl7.org/fhir/us/cqfmeasures/StructureDefinition/cqfm-testCaseDescription","valueMarkdown":"Hospice Condition - For meeting 100% coverage"}],"modifierExtension":[{"url":"http://hl7.org/fhir/us/cqfmeasures/StructureDefinition/cqfm-isTestCase","valueBoolean":true}],"status":"complete","type":"individual","measure":"https://madie.cms.gov/Measure/CervicalCancerScreeningFHIR","period":{"start":"2025-01-01","end":"2025-12-31"},"group":[{"population":[{"code":{"coding":[{"system":"http://terminology.hl7.org/CodeSystem/measure-population","code":"initial-population","display":"Initial Population"}]},"count":1},{"code":{"coding":[{"system":"http://terminology.hl7.org/CodeSystem/measure-population","code":"denominator","display":"Denominator"}]},"count":1},{"code":{"coding":[{"system":"http://terminology.hl7.org/CodeSystem/measure-population","code":"denominator-exclusion","display":"Denominator Exclusion"}]},"count":1},{"code":{"coding":[{"system":"http://terminology.hl7.org/CodeSystem/measure-population","code":"numerator","display":"Numerator"}]},"count":0}]}]},"request":{"method":"PUT","url":"MeasureReport/68717872-f2a2-4511-905d-1a19e28d2a25"}}]}