{
  "resourceType": "Bundle",
  "id": "64136bf04b11b147841ab8b8",
  "type": "transaction",
  "entry": [ {
    "fullUrl": "https://madie.cms.gov/Patient/77620fcb-7a0a-4015-89cc-c32bd8681c13",
    "resource": {
      "resourceType": "Patient",
      "id": "77620fcb-7a0a-4015-89cc-c32bd8681c13",
      "meta": {
        "profile": [ "http://hl7.org/fhir/us/qicore/StructureDefinition/qicore-patient" ]
      },
      "extension": [ {
        "url": "http://hl7.org/fhir/us/core/StructureDefinition/us-core-race",
        "extension": [ {
          "url": "ombCategory",
          "valueCoding": {
            "system": "urn:oid:2.16.840.1.113883.6.238",
            "code": "2106-3",
            "display": "White",
            "userSelected": true
          }
        }, {
          "url": "text",
          "valueString": "White"
        } ]
      }, {
        "url": "http://hl7.org/fhir/us/core/StructureDefinition/us-core-ethnicity",
        "extension": [ {
          "url": "ombCategory",
          "valueCoding": {
            "system": "urn:oid:2.16.840.1.113883.6.238",
            "code": "2135-2",
            "display": "Hispanic or Latino",
            "userSelected": true
          }
        }, {
          "url": "text",
          "valueString": "Hispanic or Latino"
        } ]
      } ],
      "identifier": [ {
        "type": {
          "coding": [ {
            "system": "http://terminology.hl7.org/CodeSystem/v2-0203",
            "code": "MR"
          } ]
        },
        "system": "https://bonnie-fhir.healthit.gov/",
        "value": "64136bf04b11b147841ab8b8"
      } ],
      "name": [ {
        "family": "DENEXPass",
        "given": [ "OrderHospCareAmb" ]
      } ],
      "gender": "male",
      "birthDate": "1953-10-21"
    },
    "request": {
      "method": "POST",
      "url": "Patient/77620fcb-7a0a-4015-89cc-c32bd8681c13"
    }
  }, {
    "fullUrl": "https://madie.cms.gov/Condition/diabetes-b8b9",
    "resource": {
      "resourceType": "Condition",
      "id": "diabetes-b8b9",
      "meta": {
        "profile": [ "http://hl7.org/fhir/us/qicore/StructureDefinition/qicore-condition" ]
      },
      "clinicalStatus": {
        "coding": [ {
          "system": "http://terminology.hl7.org/CodeSystem/condition-clinical",
          "code": "active",
          "display": "active",
          "userSelected": true
        } ]
      },
      "category": [ {
        "coding": [ {
          "system": "http://terminology.hl7.org/CodeSystem/condition-category",
          "code": "encounter-diagnosis",
          "display": "Encounter Diagnosis",
          "userSelected": true
        } ]
      } ],
      "code": {
        "coding": [ {
          "system": "http://snomed.info/sct",
          "version": "2021-09",
          "code": "102781000119107",
          "display": "Sensory neuropathy due to type 1 diabetes mellitus (disorder)",
          "userSelected": true
        } ]
      },
      "subject": {
        "reference": "Patient/77620fcb-7a0a-4015-89cc-c32bd8681c13"
      },
      "onsetDateTime": "2025-02-16T08:00:00.000+00:00"
    },
    "request": {
      "method": "POST",
      "url": "Condition/diabetes-b8b9"
    }
  }, {
    "fullUrl": "https://madie.cms.gov/Encounter/office-visit-b8ba",
    "resource": {
      "resourceType": "Encounter",
      "id": "office-visit-b8ba",
      "meta": {
        "profile": [ "http://hl7.org/fhir/us/qicore/StructureDefinition/qicore-encounter" ]
      },
      "status": "finished",
      "class": {
        "system": "http://terminology.hl7.org/CodeSystem/v3-ActCode",
        "code": "AMB",
        "display": "ambulatory",
        "userSelected": true
      },
      "type": [ {
        "coding": [ {
          "system": "http://snomed.info/sct",
          "version": "2021-09",
          "code": "185463005",
          "display": "Visit out of hours (procedure)",
          "userSelected": true
        } ]
      } ],
      "subject": {
        "reference": "Patient/77620fcb-7a0a-4015-89cc-c32bd8681c13"
      },
      "period": {
        "start": "2025-03-01T08:00:00.000+00:00",
        "end": "2025-03-01T08:15:00.000+00:00"
      }
    },
    "request": {
      "method": "POST",
      "url": "Encounter/office-visit-b8ba"
    }
  }, {
    "fullUrl": "https://madie.cms.gov/Observation/urine-albumin-creatinine-ratio-b8bb",
    "resource": {
      "resourceType": "Observation",
      "id": "urine-albumin-creatinine-ratio-b8bb",
      "meta": {
        "profile": [ "http://hl7.org/fhir/us/qicore/StructureDefinition/qicore-observation" ]
      },
      "status": "final",
      "category": [ {
        "coding": [ {
          "system": "http://terminology.hl7.org/CodeSystem/observation-category",
          "code": "laboratory",
          "display": "Laboratory",
          "userSelected": true
        } ]
      } ],
      "code": {
        "coding": [ {
          "system": "http://loinc.org",
          "version": "2.71",
          "code": "13705-9",
          "display": "Albumin/Creatinine [Mass Ratio] in 24 hour Urine",
          "userSelected": true
        } ]
      },
      "subject": {
        "reference": "Patient/77620fcb-7a0a-4015-89cc-c32bd8681c13"
      },
      "issued": "2025-03-01T08:00:00.000+00:00"
    },
    "request": {
      "method": "POST",
      "url": "Observation/urine-albumin-creatinine-ratio-b8bb"
    }
  }, {
    "fullUrl": "https://madie.cms.gov/Observation/estimated-glomerular-filtration-rate-b8bc",
    "resource": {
      "resourceType": "Observation",
      "id": "estimated-glomerular-filtration-rate-b8bc",
      "meta": {
        "profile": [ "http://hl7.org/fhir/us/qicore/StructureDefinition/qicore-observation" ]
      },
      "status": "final",
      "category": [ {
        "coding": [ {
          "system": "http://terminology.hl7.org/CodeSystem/observation-category",
          "code": "laboratory",
          "display": "Laboratory",
          "userSelected": true
        } ]
      } ],
      "code": {
        "coding": [ {
          "system": "http://loinc.org",
          "version": "2.71",
          "code": "48642-3",
          "display": "Glomerular filtration rate/1.73 sq M.predicted among non-blacks [Volume Rate/Area] in Serum, Plasma or Blood by Creatinine-based formula (MDRD)",
          "userSelected": true
        } ]
      },
      "subject": {
        "reference": "Patient/77620fcb-7a0a-4015-89cc-c32bd8681c13"
      },
      "issued": "2025-03-01T08:00:00.000+00:00"
    },
    "request": {
      "method": "POST",
      "url": "Observation/estimated-glomerular-filtration-rate-b8bc"
    }
  }, {
    "fullUrl": "https://madie.cms.gov/ServiceRequest/hospice-care-ambulatory-b8bd",
    "resource": {
      "resourceType": "ServiceRequest",
      "id": "hospice-care-ambulatory-b8bd",
      "meta": {
        "profile": [ "http://hl7.org/fhir/us/qicore/StructureDefinition/qicore-servicerequest" ]
      },
      "status": "active",
      "intent": "order",
      "code": {
        "coding": [ {
          "system": "http://snomed.info/sct",
          "version": "2021-09",
          "code": "170935008",
          "display": "Full care by hospice (finding)",
          "userSelected": true
        }, {
          "system": "http://snomed.info/sct",
          "code": "385763009",
          "userSelected": true
        } ]
      },
      "subject": {
        "reference": "Patient/77620fcb-7a0a-4015-89cc-c32bd8681c13"
      },
      "authoredOn": "2025-03-14T08:00:00.000+00:00"
    },
    "request": {
      "method": "POST",
      "url": "ServiceRequest/hospice-care-ambulatory-b8bd"
    }
  }, {
    "fullUrl": "https://madie.cms.gov/MeasureReport/ef291fd1-1731-4645-b581-dc2b2599ed3a",
    "resource": {
      "resourceType": "MeasureReport",
      "id": "ef291fd1-1731-4645-b581-dc2b2599ed3a",
      "meta": {
        "profile": [ "http://hl7.org/fhir/us/cqfmeasures/StructureDefinition/test-case-cqfm" ]
      },
      "contained": [ {
        "resourceType": "Parameters",
        "id": "ea50ca2e-28be-49b5-98bb-3f9e69673e24-parameters",
        "parameter": [ {
          "name": "subject",
          "valueString": "77620fcb-7a0a-4015-89cc-c32bd8681c13"
        } ]
      } ],
      "extension": [ {
        "url": "http://hl7.org/fhir/us/cqfmeasures/StructureDefinition/cqfm-inputParameters",
        "valueReference": {
          "reference": "#ea50ca2e-28be-49b5-98bb-3f9e69673e24-parameters"
        }
      }, {
        "url": "http://hl7.org/fhir/us/cqfmeasures/StructureDefinition/cqfm-testCaseDescription",
        "valueMarkdown": "This patient is 70 years old with a qualifying encounter and active diabetes diagnosis, two qualifying lab tests, as well as an order for hospice care. This case tests the denominator exclusion criteria."
      } ],
      "modifierExtension": [ {
        "url": "http://hl7.org/fhir/us/cqfmeasures/StructureDefinition/cqfm-isTestCase",
        "valueBoolean": true
      } ],
      "status": "complete",
      "type": "individual",
      "measure": "https://madie.cms.gov/Measure/KidneyHealthEvaluationFHIR",
      "period": {
        "start": "2025-01-01",
        "end": "2025-12-31"
      },
      "group": [ {
        "population": [ {
          "code": {
            "coding": [ {
              "system": "http://terminology.hl7.org/CodeSystem/measure-population",
              "code": "initial-population",
              "display": "Initial Population"
            } ]
          },
          "count": 1
        }, {
          "code": {
            "coding": [ {
              "system": "http://terminology.hl7.org/CodeSystem/measure-population",
              "code": "denominator",
              "display": "Denominator"
            } ]
          },
          "count": 1
        }, {
          "code": {
            "coding": [ {
              "system": "http://terminology.hl7.org/CodeSystem/measure-population",
              "code": "denominator-exclusion",
              "display": "Denominator Exclusion"
            } ]
          },
          "count": 1
        }, {
          "code": {
            "coding": [ {
              "system": "http://terminology.hl7.org/CodeSystem/measure-population",
              "code": "numerator",
              "display": "Numerator"
            } ]
          },
          "count": 0
        } ]
      } ],
      "evaluatedResource": [ {
        "reference": "Patient/77620fcb-7a0a-4015-89cc-c32bd8681c13"
      }, {
        "reference": "Condition/diabetes-b8b9"
      }, {
        "reference": "Encounter/office-visit-b8ba"
      }, {
        "reference": "Observation/urine-albumin-creatinine-ratio-b8bb"
      }, {
        "reference": "Observation/estimated-glomerular-filtration-rate-b8bc"
      }, {
        "reference": "ServiceRequest/hospice-care-ambulatory-b8bd"
      } ]
    },
    "request": {
      "method": "POST",
      "url": "MeasureReport/ef291fd1-1731-4645-b581-dc2b2599ed3a"
    }
  } ]
}