{
  "resourceType": "Bundle",
  "id": "363b28a9-e77d-4fee-aaaf-73ebb35bc57c",
  "type": "transaction",
  "entry": [ {
    "fullUrl": "https://madie.cms.gov/Patient/b7534abb-5837-4f38-83b1-b14e52684f84",
    "resource": {
      "resourceType": "Patient",
      "id": "b7534abb-5837-4f38-83b1-b14e52684f84",
      "meta": {
        "profile": [ "http://hl7.org/fhir/us/qicore/StructureDefinition/qicore-patient" ]
      },
      "extension": [ {
        "url": "http://hl7.org/fhir/us/core/StructureDefinition/us-core-race",
        "extension": [ {
          "url": "ombCategory",
          "valueCoding": {
            "system": "urn:oid:2.16.840.1.113883.6.238",
            "code": "2106-3",
            "display": "White"
          }
        }, {
          "url": "text",
          "valueString": "White"
        } ]
      }, {
        "url": "http://hl7.org/fhir/us/core/StructureDefinition/us-core-ethnicity",
        "extension": [ {
          "url": "ombCategory",
          "valueCoding": {
            "system": "urn:oid:2.16.840.1.113883.6.238",
            "code": "2135-2",
            "display": "Hispanic or Latino"
          }
        }, {
          "url": "text",
          "valueString": "Hispanic or Latino"
        } ]
      } ],
      "identifier": [ {
        "system": "http://hospital.smarthealthit.org",
        "value": "999999999"
      } ],
      "name": [ {
        "family": "Example",
        "given": [ "Patient" ]
      } ],
      "gender": "unknown",
      "birthDate": "1955-01-01"
    },
    "request": {
      "method": "POST",
      "url": "Patient/b7534abb-5837-4f38-83b1-b14e52684f84"
    }
  }, {
    "fullUrl": "https://madie.cms.gov/Encounter/5e8cccc8931f9c0000abd5b9",
    "resource": {
      "resourceType": "Encounter",
      "id": "5e8cccc8931f9c0000abd5b9",
      "meta": {
        "profile": [ "http://hl7.org/fhir/us/qicore/StructureDefinition/qicore-encounter" ]
      },
      "status": "finished",
      "class": {
        "system": "http://terminology.hl7.org/CodeSystem/v3-ActCode",
        "code": "IMP",
        "display": "inpatient encounter"
      },
      "type": [ {
        "coding": [ {
          "system": "http://snomed.info/sct",
          "code": "183452005"
        } ]
      } ],
      "subject": {
        "reference": "Patient/b7534abb-5837-4f38-83b1-b14e52684f84"
      },
      "period": {
        "start": "2025-04-07T08:00:00.000Z",
        "end": "2025-04-20T08:15:00.000Z"
      }
    },
    "request": {
      "method": "POST",
      "url": "Encounter/5e8cccc8931f9c0000abd5b9"
    }
  }, {
    "fullUrl": "https://madie.cms.gov/Condition/33e3e44c-9ace-11ed-9919-f340a01f594c",
    "resource": {
      "resourceType": "Condition",
      "id": "33e3e44c-9ace-11ed-9919-f340a01f594c",
      "meta": {
        "profile": [ "http://hl7.org/fhir/us/qicore/StructureDefinition/qicore-condition" ]
      },
      "category": [ {
        "coding": [ {
          "system": "http://terminology.hl7.org/CodeSystem/condition-category",
          "code": "encounter-diagnosis",
          "display": "Encounter Diagnosis"
        } ]
      } ],
      "code": {
        "coding": [ {
          "system": "http://hl7.org/fhir/sid/icd-10-cm",
          "code": "E10.21",
          "display": "Type 1 diabetes mellitus with diabetic nephropathy"
        } ]
      },
      "subject": {
        "reference": "Patient/b7534abb-5837-4f38-83b1-b14e52684f84"
      },
      "onsetDateTime": "2010-01-02"
    },
    "request": {
      "method": "POST",
      "url": "Condition/33e3e44c-9ace-11ed-9919-f340a01f594c"
    }
  }, {
    "fullUrl": "https://madie.cms.gov/Observation/glucose-lab-test-mass-per-volume-22f7",
    "resource": {
      "resourceType": "Observation",
      "id": "glucose-lab-test-mass-per-volume-22f7",
      "meta": {
        "profile": [ "http://hl7.org/fhir/us/qicore/StructureDefinition/qicore-observation" ]
      },
      "status": "final",
      "category": [ {
        "coding": [ {
          "system": "http://terminology.hl7.org/CodeSystem/observation-category",
          "code": "laboratory",
          "display": "Laboratory"
        } ]
      } ],
      "code": {
        "coding": [ {
          "system": "http://loinc.org",
          "version": "2.72",
          "code": "1556-0",
          "display": "Fasting glucose [Mass/volume] in Capillary blood",
          "userSelected": true
        } ]
      },
      "subject": {
        "reference": "Patient/b7534abb-5837-4f38-83b1-b14e52684f84"
      },
      "effectiveDateTime": "2025-04-09T07:00:00.000+00:00",
      "valueQuantity": {
        "value": 320,
        "unit": "mg/dL"
      }
    },
    "request": {
      "method": "POST",
      "url": "Observation/glucose-lab-test-mass-per-volume-22f7"
    }
  }, {
    "fullUrl": "https://madie.cms.gov/MeasureReport/9e7b2b57-d7d7-4fa3-97ad-7cd35ec54da8",
    "resource": {
      "resourceType": "MeasureReport",
      "id": "9e7b2b57-d7d7-4fa3-97ad-7cd35ec54da8",
      "meta": {
        "profile": [ "http://hl7.org/fhir/us/cqfmeasures/StructureDefinition/test-case-cqfm" ]
      },
      "contained": [ {
        "resourceType": "Parameters",
        "id": "54bed7ae-0dac-4047-b8f7-b2454115b6e9-parameters",
        "parameter": [ {
          "name": "subject",
          "valueString": "b7534abb-5837-4f38-83b1-b14e52684f84"
        } ]
      } ],
      "extension": [ {
        "url": "http://hl7.org/fhir/us/cqfmeasures/StructureDefinition/cqfm-inputParameters",
        "valueReference": {
          "reference": "#54bed7ae-0dac-4047-b8f7-b2454115b6e9-parameters"
        }
      }, {
        "url": "http://hl7.org/fhir/us/cqfmeasures/StructureDefinition/cqfm-testCaseDescription",
        "valueMarkdown": "IP Encounter with LOS 13 days and one hyperglycemic event (numerator). Cropped qualifying encounter days to 9 as expected. "
      } ],
      "modifierExtension": [ {
        "url": "http://hl7.org/fhir/us/cqfmeasures/StructureDefinition/cqfm-isTestCase",
        "valueBoolean": true
      } ],
      "status": "complete",
      "type": "individual",
      "measure": "https://madie.cms.gov/Measure/HospitalHarmHyperglycemiainHospitalizedPatientsFHIR",
      "period": {
        "start": "2025-01-01",
        "end": "2025-12-31"
      },
      "group": [ {
        "population": [ {
          "code": {
            "coding": [ {
              "system": "http://terminology.hl7.org/CodeSystem/measure-population",
              "code": "initial-population",
              "display": "Initial Population"
            } ]
          },
          "count": 1
        }, {
          "code": {
            "coding": [ {
              "system": "http://terminology.hl7.org/CodeSystem/measure-population",
              "code": "denominator",
              "display": "Denominator"
            } ]
          },
          "count": 1
        }, {
          "code": {
            "coding": [ {
              "system": "http://terminology.hl7.org/CodeSystem/measure-population",
              "code": "denominator-exclusion",
              "display": "Denominator Exclusion"
            } ]
          },
          "count": 0
        }, {
          "code": {
            "coding": [ {
              "system": "http://terminology.hl7.org/CodeSystem/measure-population",
              "code": "numerator",
              "display": "Numerator"
            } ]
          },
          "count": 1
        }, {
          "code": {
            "coding": [ {
              "system": "http://terminology.hl7.org/CodeSystem/measure-population",
              "code": "denominator-observation",
              "display": "DenominatorObservation"
            } ]
          },
          "count": 9
        }, {
          "code": {
            "coding": [ {
              "system": "http://terminology.hl7.org/CodeSystem/measure-population",
              "code": "numerator-observation",
              "display": "Numerator Observation"
            } ]
          },
          "count": 1
        } ]
      } ],
      "evaluatedResource": [ {
        "reference": "https://madie.cms.gov/Patient/b7534abb-5837-4f38-83b1-b14e52684f84"
      }, {
        "reference": "https://madie.cms.gov/Encounter/5e8cccc8931f9c0000abd5b9"
      }, {
        "reference": "https://madie.cms.gov/Condition/33e3e44c-9ace-11ed-9919-f340a01f594c"
      }, {
        "reference": "https://madie.cms.gov/Observation/glucose-lab-test-mass-per-volume-22f7"
      } ]
    },
    "request": {
      "method": "POST",
      "url": "MeasureReport/9e7b2b57-d7d7-4fa3-97ad-7cd35ec54da8"
    }
  } ]
}