{"resourceType":"Bundle","id":"tests-20066c42-858b-4265-8f0a-bb4f64c54faf-bundle","type":"transaction","entry":[{"fullUrl":"https://madie.cms.gov/Patient/20066c42-858b-4265-8f0a-bb4f64c54faf","resource":{"resourceType":"Patient","id":"20066c42-858b-4265-8f0a-bb4f64c54faf","meta":{"profile":["http://hl7.org/fhir/us/qicore/StructureDefinition/qicore-patient"]},"text":{"status":"generated","div":"<div xmlns=\"http://www.w3.org/1999/xhtml\"><div class=\"hapiHeaderText\">RiskAssessPsychotherapyEncrelevantPeriod <b>NUMERPASS </b></div><table class=\"hapiPropertyTable\"><tbody><tr><td>Identifier</td><td>93c3e66aae1f7f1a8106f95a744c120c</td></tr><tr><td>Date of birth</td><td><span>24 March 2001</span></td></tr></tbody></table></div>"},"extension":[{"url":"http://hl7.org/fhir/us/core/StructureDefinition/us-core-race","extension":[{"url":"ombCategory","valueCoding":{"system":"urn:oid:2.16.840.1.113883.6.238","code":"2054-5","display":"Black or African American","userSelected":true}},{"url":"text","valueString":"Black or African American"}]},{"url":"http://hl7.org/fhir/us/core/StructureDefinition/us-core-ethnicity","extension":[{"url":"ombCategory","valueCoding":{"system":"urn:oid:2.16.840.1.113883.6.238","code":"2186-5","display":"Not Hispanic or Latino","userSelected":true}},{"url":"text","valueString":"Not Hispanic or Latino"}]}],"identifier":[{"type":{"coding":[{"system":"http://terminology.hl7.org/CodeSystem/v2-0203","code":"MR"}]},"system":"https://bonnie-fhir.healthit.gov/","value":"6109650598086b538055a113"}],"active":true,"name":[{"use":"usual","family":"NUMPass","given":["RiskAssmtEncrelevantPeriod"]}],"gender":"male","birthDate":"2015-03-24"},"request":{"method":"PUT","url":"Patient/20066c42-858b-4265-8f0a-bb4f64c54faf"}},{"fullUrl":"https://madie.cms.gov/Encounter/5c98fd1ab848464ed33e9e86","resource":{"resourceType":"Encounter","id":"767de499-d677-423a-b953-95fc9a8a4bcb","meta":{"profile":["http://hl7.org/fhir/us/qicore/StructureDefinition/qicore-encounter"]},"status":"finished","class":{"system":"http://terminology.hl7.org/CodeSystem/v3-ActCode","code":"AMB","display":"ambulatory","userSelected":true},"type":[{"coding":[{"system":"http://www.ama-assn.org/go/cpt","code":"90832"}]}],"subject":{"reference":"Patient/20066c42-858b-4265-8f0a-bb4f64c54faf"},"period":{"start":"2025-07-12T11:45:00.000+00:00","end":"2025-07-12T12:00:00.000+00:00"},"length":{"value":0.0,"unit":"days"},"reasonCode":[{"coding":[{"system":"http://snomed.info/sct","version":"2022-09","code":"10811161000119107","display":"Major depressive disorder in mother complicating pregnancy (disorder)","userSelected":true}]}],"diagnosis":[{"condition":{"reference":"Condition/5a854602-6886-405e-8009-8594bfb00010"},"use":{"coding":[{"system":"http://snomed.info/sct","version":"2022-09","code":"10811161000119107","display":"Major depressive disorder in mother complicating pregnancy (disorder)","userSelected":true}]}}]},"request":{"method":"PUT","url":"Encounter/767de499-d677-423a-b953-95fc9a8a4bcb"}},{"fullUrl":"https://madie.cms.gov/Procedure/5c98fd1ab848464ed33e9e87","resource":{"resourceType":"Procedure","id":"d36b8464-1d3f-4a3a-bd69-7088bd0f7df9","meta":{"profile":["http://hl7.org/fhir/us/qicore/StructureDefinition/qicore-procedure"]},"extension":[{"url":"http://hl7.org/fhir/us/qicore/StructureDefinition/qicore-recorded","valueDateTime":"2025-07-12T11:47:00.000+00:00"}],"status":"completed","code":{"coding":[{"system":"http://snomed.info/sct","code":"225337009"}]},"subject":{"reference":"Patient/20066c42-858b-4265-8f0a-bb4f64c54faf"},"performedPeriod":{"start":"2025-07-12T11:45:00.000+00:00","end":"2025-07-12T11:47:00.000+00:00"}},"request":{"method":"PUT","url":"Procedure/d36b8464-1d3f-4a3a-bd69-7088bd0f7df9"}},{"fullUrl":"https://madie.cms.gov/Condition/major-depressive-disorder-active-3996","resource":{"resourceType":"Condition","id":"5a854602-6886-405e-8009-8594bfb00010","meta":{"profile":["http://hl7.org/fhir/us/qicore/StructureDefinition/qicore-condition"]},"category":[{"coding":[{"system":"http://terminology.hl7.org/CodeSystem/condition-category","code":"encounter-diagnosis","display":"encounter-diagnosis","userSelected":true}]}],"code":{"coding":[{"system":"http://snomed.info/sct","version":"2022-09","code":"10811121000119102","display":"Major depressive disorder in mother complicating childbirth (disorder)","userSelected":true}]},"subject":{"reference":"Patient/20066c42-858b-4265-8f0a-bb4f64c54faf"},"recordedDate":"2025-07-12T11:45:00.000+00:00"},"request":{"method":"PUT","url":"Condition/5a854602-6886-405e-8009-8594bfb00010"}},{"fullUrl":"https://madie.cms.gov/Coverage/payer-ae69","resource":{"resourceType":"Coverage","id":"ac89ec10-e4d5-4e14-91d0-95914d73ea7a","meta":{"profile":["http://hl7.org/fhir/us/qicore/StructureDefinition/qicore-coverage"]},"identifier":[{"system":"http://benefitsinc.com/certificate","value":"12345"}],"status":"active","type":{"coding":[{"system":"https://nahdo.org/sopt","version":"9.2","code":"1","display":"MEDICARE","userSelected":true}]},"beneficiary":{"reference":"Patient/20066c42-858b-4265-8f0a-bb4f64c54faf"},"period":{"start":"2025-04-01T08:00:00.000+00:00","end":"2025-10-01T08:15:00.000+00:00"},"payor":[{"reference":"Organization/4b5a882f-1f43-485c-85c6-f5ad2337d5b1"}]},"request":{"method":"PUT","url":"Coverage/ac89ec10-e4d5-4e14-91d0-95914d73ea7a"}},{"fullUrl":"https://madie.cms.gov/Organization/123456","resource":{"resourceType":"Organization","id":"4b5a882f-1f43-485c-85c6-f5ad2337d5b1","meta":{"profile":["http://hl7.org/fhir/us/qicore/StructureDefinition/qicore-organization"]},"identifier":[{"use":"temp","system":"urn:oid:2.16.840.1.113883.4.4","value":"21-3259825"}],"active":true,"type":[{"coding":[{"system":"http://terminology.hl7.org/CodeSystem/organization-type","code":"pay","display":"Payer"}]}],"name":"Blue Cross Blue Shield of Texas","telecom":[{"system":"phone","value":"(+1) 972-766-6900"}],"address":[{"use":"billing","type":"postal","line":["P.O. Box 660044"],"city":"Dallas","state":"TX","postalCode":"75266-0044","country":"USA"}]},"request":{"method":"PUT","url":"Organization/4b5a882f-1f43-485c-85c6-f5ad2337d5b1"}},{"fullUrl":"https://madie.cms.gov/Practitioner/practitioner-123456","resource":{"resourceType":"Practitioner","id":"24616bf1-64db-4b3c-82e0-82eb401c0d96","meta":{"profile":["http://hl7.org/fhir/us/qicore/StructureDefinition/qicore-practitioner"]},"identifier":[{"system":"http://hl7.org/fhir/sid/us-npi","value":"123456"}],"name":[{"family":"Evil","prefix":["Dr"]}]},"request":{"method":"PUT","url":"Practitioner/24616bf1-64db-4b3c-82e0-82eb401c0d96"}},{"fullUrl":"https://madie.cms.gov/MeasureReport/9b49c538-2067-471c-bc8a-2a5db17c9b74","resource":{"resourceType":"MeasureReport","id":"9b49c538-2067-471c-bc8a-2a5db17c9b74","meta":{"profile":["http://hl7.org/fhir/us/cqfmeasures/StructureDefinition/test-case-cqfm"]},"contained":[{"resourceType":"Parameters","id":"3bb79b0a-ea93-4439-99a2-14b5745d50a5-parameters","parameter":[{"name":"subject","valueString":"20066c42-858b-4265-8f0a-bb4f64c54faf"}]}],"extension":[{"url":"http://hl7.org/fhir/us/cqfmeasures/StructureDefinition/cqfm-inputParameters","valueReference":{"reference":"#3bb79b0a-ea93-4439-99a2-14b5745d50a5-parameters"}},{"url":"http://hl7.org/fhir/us/cqfmeasures/StructureDefinition/cqfm-testCaseDescription","valueMarkdown":"Patient with depression and suicide risk assessment during psychotherapy encounter using relevantPeriod"}],"modifierExtension":[{"url":"http://hl7.org/fhir/us/cqfmeasures/StructureDefinition/cqfm-isTestCase","valueBoolean":true}],"status":"complete","type":"individual","measure":"https://madie.cms.gov/Measure/ChildandAdolescentMajorDepressiveDisorderMDDSuicideRiskAssessmentFHIR","period":{"start":"2025-01-01","end":"2025-12-31"},"group":[{"population":[{"code":{"coding":[{"system":"http://terminology.hl7.org/CodeSystem/measure-population","code":"initial-population","display":"Initial Population"}]},"count":1},{"code":{"coding":[{"system":"http://terminology.hl7.org/CodeSystem/measure-population","code":"denominator","display":"Denominator"}]},"count":1},{"code":{"coding":[{"system":"http://terminology.hl7.org/CodeSystem/measure-population","code":"numerator","display":"Numerator"}]},"count":1}]}]},"request":{"method":"PUT","url":"MeasureReport/9b49c538-2067-471c-bc8a-2a5db17c9b74"}}]}