{"resourceType":"Bundle","id":"tests-f856f2c1-b73a-4507-a576-1327e4102bc0-bundle","type":"transaction","entry":[{"fullUrl":"https://madie.cms.gov/Patient/f856f2c1-b73a-4507-a576-1327e4102bc0","resource":{"resourceType":"Patient","id":"f856f2c1-b73a-4507-a576-1327e4102bc0","meta":{"profile":["http://hl7.org/fhir/us/qicore/StructureDefinition/qicore-patient"]},"text":{"status":"generated","div":"<div xmlns=\"http://www.w3.org/1999/xhtml\"><div class=\"hapiHeaderText\">RiskAssessTeleHealthEnc <b>NUMERPASS </b></div><table class=\"hapiPropertyTable\"><tbody><tr><td>Identifier</td><td>374153caaabf23f7380999987d7ce6b5a9a8f14b3694ec1b6bfa1c3f77535a55</td></tr><tr><td>Date of birth</td><td><span>20 November 2005</span></td></tr></tbody></table></div>"},"extension":[{"url":"http://hl7.org/fhir/us/core/StructureDefinition/us-core-race","extension":[{"url":"ombCategory","valueCoding":{"system":"urn:oid:2.16.840.1.113883.6.238","code":"2106-3","display":"White","userSelected":true}},{"url":"text","valueString":"White"}]},{"url":"http://hl7.org/fhir/us/core/StructureDefinition/us-core-ethnicity","extension":[{"url":"ombCategory","valueCoding":{"system":"urn:oid:2.16.840.1.113883.6.238","code":"2135-2","display":"Hispanic or Latino","userSelected":true}},{"url":"text","valueString":"Hispanic or Latino"}]}],"identifier":[{"type":{"coding":[{"system":"http://terminology.hl7.org/CodeSystem/v2-0203","code":"MR"}]},"system":"https://bonnie-fhir.healthit.gov/","value":"6109650598086b538055a10b"}],"active":true,"name":[{"use":"usual","family":"NUMPass","given":["RiskAssessTelephoneEnc"]}],"gender":"male","birthDate":"2015-11-20"},"request":{"method":"PUT","url":"Patient/f856f2c1-b73a-4507-a576-1327e4102bc0"}},{"fullUrl":"https://madie.cms.gov/Encounter/5c98fd1bb848464ed33e9eb9","resource":{"resourceType":"Encounter","id":"1c2f934a-16e6-4841-b058-0cac215ec37b","meta":{"profile":["http://hl7.org/fhir/us/qicore/StructureDefinition/qicore-encounter"]},"status":"finished","class":{"system":"http://terminology.hl7.org/CodeSystem/v3-ActCode","code":"AMB","display":"ambulatory","userSelected":true},"type":[{"coding":[{"system":"http://www.ama-assn.org/go/cpt","code":"98966"}]}],"subject":{"reference":"Patient/f856f2c1-b73a-4507-a576-1327e4102bc0"},"period":{"start":"2025-01-02T08:30:00.000+00:00","end":"2025-01-04T09:00:00.000+00:00"},"length":{"value":2.0,"unit":"days"},"diagnosis":[{"condition":{"reference":"Condition/major-depressive-disorder-active-bee2"}}]},"request":{"method":"PUT","url":"Encounter/1c2f934a-16e6-4841-b058-0cac215ec37b"}},{"fullUrl":"https://madie.cms.gov/Condition/major-depressive-disorder-active-bee2","resource":{"resourceType":"Condition","id":"91e8debc-8069-4b79-a070-b0b5e44d6b56","meta":{"profile":["http://hl7.org/fhir/us/qicore/StructureDefinition/qicore-condition"]},"clinicalStatus":{"coding":[{"system":"http://terminology.hl7.org/CodeSystem/condition-clinical","code":"active"}]},"verificationStatus":{"coding":[{"system":"http://terminology.hl7.org/CodeSystem/condition-ver-status","code":"confirmed"}]},"category":[{"coding":[{"system":"http://terminology.hl7.org/CodeSystem/condition-category","code":"encounter-diagnosis","display":"encounter-diagnosis","userSelected":true}]}],"code":{"coding":[{"system":"http://snomed.info/sct","code":"10811161000119107","userSelected":true}]},"subject":{"reference":"Patient/f856f2c1-b73a-4507-a576-1327e4102bc0"},"recordedDate":"2025-01-02T08:30:00.000+00:00"},"request":{"method":"PUT","url":"Condition/91e8debc-8069-4b79-a070-b0b5e44d6b56"}},{"fullUrl":"https://madie.cms.gov/Procedure/suicide-risk-assessment-procedure-ea14","resource":{"resourceType":"Procedure","id":"2b2fb20b-5daa-4039-b65d-1f4b25a244c3","meta":{"profile":["http://hl7.org/fhir/us/qicore/StructureDefinition/qicore-procedure"]},"extension":[{"url":"http://hl7.org/fhir/us/qicore/StructureDefinition/qicore-recorded","valueDateTime":"2025-01-03T08:05:00.000+00:00"}],"status":"completed","code":{"coding":[{"system":"http://snomed.info/sct","code":"225337009","display":"Suicide risk assessment (procedure)","userSelected":true}]},"subject":{"reference":"Patient/f856f2c1-b73a-4507-a576-1327e4102bc0"},"performedDateTime":"2025-01-03T08:05:00.000+00:00"},"request":{"method":"PUT","url":"Procedure/2b2fb20b-5daa-4039-b65d-1f4b25a244c3"}},{"fullUrl":"https://madie.cms.gov/Coverage/payer-624d","resource":{"resourceType":"Coverage","id":"949cbe75-756e-4990-a844-c024d55da5fc","meta":{"profile":["http://hl7.org/fhir/us/qicore/StructureDefinition/qicore-coverage"]},"status":"active","type":{"coding":[{"system":"https://nahdo.org/sopt","version":"9.2","code":"1","display":"MEDICARE","userSelected":true}]},"beneficiary":{"reference":"Patient/f856f2c1-b73a-4507-a576-1327e4102bc0"},"period":{"start":"2025-01-02T08:30:00.000+00:00","end":"2025-11-04T09:00:00.000+00:00"},"payor":[{"reference":"Organization/4b5a882f-1f43-485c-85c6-f5ad2337d5b1"}]},"request":{"method":"PUT","url":"Coverage/949cbe75-756e-4990-a844-c024d55da5fc"}},{"fullUrl":"https://madie.cms.gov/Organization/123456","resource":{"resourceType":"Organization","id":"4b5a882f-1f43-485c-85c6-f5ad2337d5b1","meta":{"profile":["http://hl7.org/fhir/us/qicore/StructureDefinition/qicore-organization"]},"identifier":[{"use":"temp","system":"urn:oid:2.16.840.1.113883.4.4","value":"21-3259825"}],"active":true,"type":[{"coding":[{"system":"http://terminology.hl7.org/CodeSystem/organization-type","code":"pay","display":"Payer"}]}],"name":"Blue Cross Blue Shield of Texas","telecom":[{"system":"phone","value":"(+1) 972-766-6900"}],"address":[{"use":"billing","type":"postal","line":["P.O. Box 660044"],"city":"Dallas","state":"TX","postalCode":"75266-0044","country":"USA"}]},"request":{"method":"PUT","url":"Organization/4b5a882f-1f43-485c-85c6-f5ad2337d5b1"}},{"fullUrl":"https://madie.cms.gov/Practitioner/practitioner-123456","resource":{"resourceType":"Practitioner","id":"d965114a-1115-439c-9439-2c2056adddd7","meta":{"profile":["http://hl7.org/fhir/us/qicore/StructureDefinition/qicore-practitioner"]},"identifier":[{"system":"http://hl7.org/fhir/sid/us-npi","value":"123456"}],"name":[{"family":"Evil","prefix":["Dr"]}]},"request":{"method":"PUT","url":"Practitioner/d965114a-1115-439c-9439-2c2056adddd7"}},{"fullUrl":"https://madie.cms.gov/MeasureReport/7061fa4d-620a-4bfd-8aad-1e84d213555a","resource":{"resourceType":"MeasureReport","id":"7061fa4d-620a-4bfd-8aad-1e84d213555a","meta":{"profile":["http://hl7.org/fhir/us/cqfmeasures/StructureDefinition/test-case-cqfm"]},"contained":[{"resourceType":"Parameters","id":"8cbe8e13-e63e-46c9-942b-24e8a30baba7-parameters","parameter":[{"name":"subject","valueString":"f856f2c1-b73a-4507-a576-1327e4102bc0"}]}],"extension":[{"url":"http://hl7.org/fhir/us/cqfmeasures/StructureDefinition/cqfm-inputParameters","valueReference":{"reference":"#8cbe8e13-e63e-46c9-942b-24e8a30baba7-parameters"}},{"url":"http://hl7.org/fhir/us/cqfmeasures/StructureDefinition/cqfm-testCaseDescription","valueMarkdown":"Patient with Depression diagnosis and Suicide Risk Assessment during Telephone Visit encounter"}],"modifierExtension":[{"url":"http://hl7.org/fhir/us/cqfmeasures/StructureDefinition/cqfm-isTestCase","valueBoolean":true}],"status":"complete","type":"individual","measure":"https://madie.cms.gov/Measure/ChildandAdolescentMajorDepressiveDisorderMDDSuicideRiskAssessmentFHIR","period":{"start":"2025-01-01","end":"2025-12-31"},"group":[{"population":[{"code":{"coding":[{"system":"http://terminology.hl7.org/CodeSystem/measure-population","code":"initial-population","display":"Initial Population"}]},"count":1},{"code":{"coding":[{"system":"http://terminology.hl7.org/CodeSystem/measure-population","code":"denominator","display":"Denominator"}]},"count":1},{"code":{"coding":[{"system":"http://terminology.hl7.org/CodeSystem/measure-population","code":"numerator","display":"Numerator"}]},"count":1}]}]},"request":{"method":"PUT","url":"MeasureReport/7061fa4d-620a-4bfd-8aad-1e84d213555a"}}]}