{"resourceType":"Bundle","id":"tests-17fb3017-c03e-4766-986b-259c83a3916a-bundle","type":"transaction","entry":[{"fullUrl":"https://madie.cms.gov/Patient/17fb3017-c03e-4766-986b-259c83a3916a","resource":{"resourceType":"Patient","id":"17fb3017-c03e-4766-986b-259c83a3916a","meta":{"profile":["http://hl7.org/fhir/us/qicore/StructureDefinition/qicore-patient"]},"text":{"status":"generated","div":"<div xmlns=\"http://www.w3.org/1999/xhtml\"><div class=\"hapiHeaderText\">DxNotMDD <b>IPPFAIL </b></div><table class=\"hapiPropertyTable\"><tbody><tr><td>Identifier</td><td>d1453b77778379cfd153e4f4edcb19436f4cb6e451c10cba529cfda045fb2716</td></tr><tr><td>Date of birth</td><td><span>20 November 2005</span></td></tr></tbody></table></div>"},"extension":[{"url":"http://hl7.org/fhir/us/core/StructureDefinition/us-core-race","extension":[{"url":"ombCategory","valueCoding":{"system":"urn:oid:2.16.840.1.113883.6.238","code":"2028-9","display":"Asian","userSelected":true}},{"url":"text","valueString":"Asian"}]},{"url":"http://hl7.org/fhir/us/core/StructureDefinition/us-core-ethnicity","extension":[{"url":"ombCategory","valueCoding":{"system":"urn:oid:2.16.840.1.113883.6.238","code":"2186-5","display":"Not Hispanic or Latino","userSelected":true}},{"url":"text","valueString":"Not Hispanic or Latino"}]}],"identifier":[{"type":{"coding":[{"system":"http://terminology.hl7.org/CodeSystem/v2-0203","code":"MR"}]},"system":"https://bonnie-fhir.healthit.gov/","value":"6109650598086b538055a109"}],"active":true,"name":[{"use":"usual","family":"IPFail","given":["DxNotMDD"]}],"gender":"male","birthDate":"2017-11-20"},"request":{"method":"PUT","url":"Patient/17fb3017-c03e-4766-986b-259c83a3916a"}},{"fullUrl":"https://madie.cms.gov/Encounter/5c98fd1ab848464ed33e9eaf","resource":{"resourceType":"Encounter","id":"1aecc79d-f2f2-4d8c-83e3-2f5f4f66c0cf","status":"finished","class":{"system":"http://terminology.hl7.org/CodeSystem/v3-ActCode","code":"AMB","display":"ambulatory","userSelected":true},"type":[{"coding":[{"system":"http://www.ama-assn.org/go/cpt","code":"90853"}]}],"subject":{"reference":"Patient/17fb3017-c03e-4766-986b-259c83a3916a"},"period":{"start":"2026-05-09T08:30:00.000+00:00","end":"2026-05-09T09:00:00.000+00:00"},"diagnosis":[{"condition":{"reference":"Condition/81a3923c-cfcb-4359-95aa-93fa1461e8de"},"use":{"coding":[{"system":"http://snomed.info/sct","code":"28988002","display":"Psychoanalysis in depth (procedure)","userSelected":true}]}}]},"request":{"method":"PUT","url":"Encounter/1aecc79d-f2f2-4d8c-83e3-2f5f4f66c0cf"}},{"fullUrl":"https://madie.cms.gov/Procedure/5c98fd1ab848464ed33e9eb0","resource":{"resourceType":"Procedure","id":"7ed9bfe6-d60e-49c2-abc3-d8c6740a89d9","status":"completed","code":{"coding":[{"system":"http://snomed.info/sct","code":"225337009"}]},"subject":{"reference":"Patient/17fb3017-c03e-4766-986b-259c83a3916a"},"performedPeriod":{"start":"2026-05-09T08:32:00.000+00:00","end":"2026-05-09T08:37:00.000+00:00"}},"request":{"method":"PUT","url":"Procedure/7ed9bfe6-d60e-49c2-abc3-d8c6740a89d9"}},{"fullUrl":"https://madie.cms.gov/Condition/psychoanalysis-c3a6","resource":{"resourceType":"Condition","id":"81a3923c-cfcb-4359-95aa-93fa1461e8de","category":[{"coding":[{"system":"http://terminology.hl7.org/CodeSystem/condition-category","code":"encounter-diagnosis","display":"Encounter Diagnosis"}]}],"code":{"coding":[{"system":"http://snomed.info/sct","version":"2022-09","code":"28988002","display":"Psychoanalysis in depth (procedure)","userSelected":true}]},"subject":{"reference":"Patient/17fb3017-c03e-4766-986b-259c83a3916a"},"recordedDate":"2026-05-09T08:30:00.000+00:00"},"request":{"method":"PUT","url":"Condition/81a3923c-cfcb-4359-95aa-93fa1461e8de"}},{"fullUrl":"https://madie.cms.gov/Coverage/payer-6189","resource":{"resourceType":"Coverage","id":"e783c7bb-fe9e-4b2a-80a4-3880a402bdb3","status":"active","type":{"coding":[{"system":"http://www.nlm.nih.gov/research/umls/sop","version":"9.2","code":"1","display":"MEDICARE","userSelected":true}]},"beneficiary":{"reference":"Patient/17fb3017-c03e-4766-986b-259c83a3916a"},"period":{"start":"2026-03-29T08:00:00.000+00:00","end":"2026-07-29T08:15:00.000+00:00"},"payor":[{"reference":"Organization/4b5a882f-1f43-485c-85c6-f5ad2337d5b1"}]},"request":{"method":"PUT","url":"Coverage/e783c7bb-fe9e-4b2a-80a4-3880a402bdb3"}},{"fullUrl":"https://madie.cms.gov/Organization/123456","resource":{"resourceType":"Organization","id":"4b5a882f-1f43-485c-85c6-f5ad2337d5b1","meta":{"profile":["http://hl7.org/fhir/us/qicore/StructureDefinition/qicore-organization"]},"identifier":[{"use":"temp","system":"urn:oid:2.16.840.1.113883.4.4","value":"21-3259825"}],"active":true,"type":[{"coding":[{"system":"http://terminology.hl7.org/CodeSystem/organization-type","code":"pay","display":"Payer"}]}],"name":"Blue Cross Blue Shield of Texas","telecom":[{"system":"phone","value":"(+1) 972-766-6900"}],"address":[{"use":"billing","type":"postal","line":["P.O. Box 660044"],"city":"Dallas","state":"TX","postalCode":"75266-0044","country":"USA"}]},"request":{"method":"PUT","url":"Organization/4b5a882f-1f43-485c-85c6-f5ad2337d5b1"}},{"fullUrl":"https://madie.cms.gov/Practitioner/practitioner-123456","resource":{"resourceType":"Practitioner","id":"df54380d-9b87-4bb3-af4c-91cdcec3a9f3","identifier":[{"system":"http://hl7.org/fhir/sid/us-npi","value":"123456"}],"name":[{"family":"Evil","prefix":["Dr"]}]},"request":{"method":"PUT","url":"Practitioner/df54380d-9b87-4bb3-af4c-91cdcec3a9f3"}},{"fullUrl":"https://madie.cms.gov/MeasureReport/3771e78c-ea08-4671-994b-83fe7f7dffec","resource":{"resourceType":"MeasureReport","id":"3771e78c-ea08-4671-994b-83fe7f7dffec","meta":{"profile":["http://hl7.org/fhir/us/cqfmeasures/StructureDefinition/test-case-cqfm"]},"contained":[{"resourceType":"Parameters","id":"f5f7baa2-a552-4041-abe6-f04bff7148b5-parameters","parameter":[{"name":"subject","valueString":"17fb3017-c03e-4766-986b-259c83a3916a"}]}],"extension":[{"url":"http://hl7.org/fhir/us/cqfmeasures/StructureDefinition/cqfm-inputParameters","valueReference":{"reference":"#f5f7baa2-a552-4041-abe6-f04bff7148b5-parameters"}},{"url":"http://hl7.org/fhir/us/cqfmeasures/StructureDefinition/cqfm-testCaseDescription","valueMarkdown":"Patient complete Suicide Risk Assessment during group psychotherapy encounter but has no active MDD diagnosis"}],"modifierExtension":[{"url":"http://hl7.org/fhir/us/cqfmeasures/StructureDefinition/cqfm-isTestCase","valueBoolean":true}],"status":"complete","type":"individual","measure":"https://madie.cms.gov/Measure/ChildandAdolescentMajorDepressiveDisorderMDDSuicideRiskAssessmentFHIR","period":{"start":"2025-01-01","end":"2025-12-31"},"group":[{"population":[{"code":{"coding":[{"system":"http://terminology.hl7.org/CodeSystem/measure-population","code":"initial-population","display":"Initial Population"}]},"count":0},{"code":{"coding":[{"system":"http://terminology.hl7.org/CodeSystem/measure-population","code":"denominator","display":"Denominator"}]},"count":0},{"code":{"coding":[{"system":"http://terminology.hl7.org/CodeSystem/measure-population","code":"numerator","display":"Numerator"}]},"count":0}]}]},"request":{"method":"PUT","url":"MeasureReport/3771e78c-ea08-4671-994b-83fe7f7dffec"}}]}