{"resourceType":"Bundle","id":"tests-3ffb92ef-e745-4a3a-be24-67f4ffbdbfe4-bundle","type":"transaction","entry":[{"fullUrl":"https://madie.cms.gov/Patient/3ffb92ef-e745-4a3a-be24-67f4ffbdbfe4","resource":{"resourceType":"Patient","id":"3ffb92ef-e745-4a3a-be24-67f4ffbdbfe4","meta":{"profile":["http://hl7.org/fhir/us/qicore/StructureDefinition/qicore-patient"]},"text":{"status":"generated","div":"<div xmlns=\"http://www.w3.org/1999/xhtml\"><div class=\"hapiHeaderText\">2MDDEnc1Assess <b>NUMERPASS </b></div><table class=\"hapiPropertyTable\"><tbody><tr><td>Identifier</td><td>37af65ee978413c9a2c36b613d2a793d044ad1b39147fb3cd040f6b56615f93d</td></tr><tr><td>Date of birth</td><td><span>01 January 1996</span></td></tr></tbody></table></div>"},"extension":[{"url":"http://hl7.org/fhir/us/core/StructureDefinition/us-core-race","extension":[{"url":"ombCategory","valueCoding":{"system":"urn:oid:2.16.840.1.113883.6.238","code":"1002-5","display":"American Indian or Alaska Native","userSelected":true}},{"url":"text","valueString":"American Indian or Alaska Native"}]},{"url":"http://hl7.org/fhir/us/core/StructureDefinition/us-core-ethnicity","extension":[{"url":"ombCategory","valueCoding":{"system":"urn:oid:2.16.840.1.113883.6.238","code":"2186-5","display":"Not Hispanic or Latino","userSelected":true}},{"url":"text","valueString":"Not Hispanic or Latino"}]}],"identifier":[{"type":{"coding":[{"system":"http://terminology.hl7.org/CodeSystem/v2-0203","code":"MR"}]},"system":"https://bonnie-fhir.healthit.gov/","value":"6109650598086b538055a10a"}],"active":true,"name":[{"use":"usual","family":"NUMPass","given":["TwoEncOneRiskAssmt"]}],"gender":"female","birthDate":"2010-01-01"},"request":{"method":"PUT","url":"Patient/3ffb92ef-e745-4a3a-be24-67f4ffbdbfe4"}},{"fullUrl":"https://madie.cms.gov/Encounter/5c98fd1bb848464ed33e9eb6","resource":{"resourceType":"Encounter","id":"6b2b09c9-0806-4f29-a3d1-b5a66e5c3a72","meta":{"profile":["http://hl7.org/fhir/us/qicore/StructureDefinition/qicore-encounter"]},"status":"finished","class":{"system":"http://terminology.hl7.org/CodeSystem/v3-ActCode","code":"AMB","display":"ambulatory","userSelected":true},"type":[{"coding":[{"system":"http://www.ama-assn.org/go/cpt","code":"90846"}]}],"subject":{"reference":"Patient/3ffb92ef-e745-4a3a-be24-67f4ffbdbfe4"},"period":{"start":"2025-02-09T08:00:00.000+00:00","end":"2025-02-09T08:15:00.000+00:00"},"length":{"value":0.0,"unit":"days"},"reasonCode":[{"coding":[{"system":"http://snomed.info/sct","version":"2020-09","code":"10811161000119107","display":"Major depressive disorder in mother complicating pregnancy (disorder)","userSelected":true}]}],"diagnosis":[{"condition":{"reference":"Condition/major-depressive-disorder-active-a49a"},"use":{"coding":[{"system":"http://snomed.info/sct","version":"2022-09","code":"10811161000119107","display":"Major depressive disorder in mother complicating pregnancy (disorder)","userSelected":true}]}}]},"request":{"method":"PUT","url":"Encounter/6b2b09c9-0806-4f29-a3d1-b5a66e5c3a72"}},{"fullUrl":"https://madie.cms.gov/Encounter/5c98fd1bb848464ed33e9eb7","resource":{"resourceType":"Encounter","id":"b2a0ff75-5e62-4e8f-990a-0158c176f0ca","meta":{"profile":["http://hl7.org/fhir/us/qicore/StructureDefinition/qicore-encounter"]},"status":"finished","class":{"system":"http://terminology.hl7.org/CodeSystem/v3-ActCode","code":"AMB","display":"ambulatory","userSelected":true},"type":[{"coding":[{"system":"http://www.ama-assn.org/go/cpt","code":"90832"}]}],"subject":{"reference":"Patient/3ffb92ef-e745-4a3a-be24-67f4ffbdbfe4"},"period":{"start":"2025-04-05T08:00:00.000+00:00","end":"2025-04-05T08:15:00.000+00:00"},"length":{"value":0.0,"unit":"days"},"reasonCode":[{"coding":[{"system":"http://snomed.info/sct","version":"2022-09","code":"10811161000119107","display":"Major depressive disorder in mother complicating pregnancy (disorder)","userSelected":true}]}],"diagnosis":[{"condition":{"reference":"Condition/major-depressive-disorder-active-a49b"},"use":{"coding":[{"system":"http://snomed.info/sct","version":"2022-09","code":"10811161000119107","display":"Major depressive disorder in mother complicating pregnancy (disorder)","userSelected":true}]}}]},"request":{"method":"PUT","url":"Encounter/b2a0ff75-5e62-4e8f-990a-0158c176f0ca"}},{"fullUrl":"https://madie.cms.gov/Procedure/5c98fd1bb848464ed33e9eb8","resource":{"resourceType":"Procedure","id":"7588d839-f253-4560-9085-4da817634451","meta":{"profile":["http://hl7.org/fhir/us/qicore/StructureDefinition/qicore-procedure"]},"extension":[{"url":"http://hl7.org/fhir/us/qicore/StructureDefinition/qicore-recorded","valueDateTime":"2025-04-05T08:01:00.000+00:00"}],"status":"completed","code":{"coding":[{"system":"http://snomed.info/sct","code":"225337009"}]},"subject":{"reference":"Patient/3ffb92ef-e745-4a3a-be24-67f4ffbdbfe4"},"performedDateTime":"2025-04-05T08:01:00.000+00:00"},"request":{"method":"PUT","url":"Procedure/7588d839-f253-4560-9085-4da817634451"}},{"fullUrl":"https://madie.cms.gov/Condition/major-depressive-disorder-active-a49a","resource":{"resourceType":"Condition","id":"b2ee3be1-beda-48c4-afa3-4c164162c257","meta":{"profile":["http://hl7.org/fhir/us/qicore/StructureDefinition/qicore-condition"]},"category":[{"coding":[{"system":"http://terminology.hl7.org/CodeSystem/condition-category","code":"encounter-diagnosis","display":"encounter-diagnosis","userSelected":true}]}],"code":{"coding":[{"system":"http://snomed.info/sct","version":"2022-09","code":"10811121000119102","display":"Major depressive disorder in mother complicating childbirth (disorder)","userSelected":true}]},"subject":{"reference":"Patient/3ffb92ef-e745-4a3a-be24-67f4ffbdbfe4"},"recordedDate":"2025-02-09T08:00:00.000+00:00"},"request":{"method":"PUT","url":"Condition/b2ee3be1-beda-48c4-afa3-4c164162c257"}},{"fullUrl":"https://madie.cms.gov/Condition/major-depressive-disorder-active-a49b","resource":{"resourceType":"Condition","id":"588b7226-7eec-4b8a-bfdb-e996f58f94fa","meta":{"profile":["http://hl7.org/fhir/us/qicore/StructureDefinition/qicore-condition"]},"category":[{"coding":[{"system":"http://terminology.hl7.org/CodeSystem/condition-category","code":"encounter-diagnosis","display":"encounter-diagnosis","userSelected":true}]}],"code":{"coding":[{"system":"http://snomed.info/sct","version":"2022-09","code":"10811121000119102","display":"Major depressive disorder in mother complicating childbirth (disorder)","userSelected":true}]},"subject":{"reference":"Patient/3ffb92ef-e745-4a3a-be24-67f4ffbdbfe4"},"recordedDate":"2025-04-05T08:00:00.000+00:00"},"request":{"method":"PUT","url":"Condition/588b7226-7eec-4b8a-bfdb-e996f58f94fa"}},{"fullUrl":"https://madie.cms.gov/Coverage/payer-ae68","resource":{"resourceType":"Coverage","id":"d433ce69-dfb0-489f-b389-1c950da121cd","meta":{"profile":["http://hl7.org/fhir/us/qicore/StructureDefinition/qicore-coverage"]},"identifier":[{"system":"http://benefitsinc.com/certificate","value":"12345"}],"status":"active","type":{"coding":[{"system":"https://nahdo.org/sopt","version":"9.2","code":"1","display":"MEDICARE","userSelected":true}]},"beneficiary":{"reference":"Patient/3ffb92ef-e745-4a3a-be24-67f4ffbdbfe4"},"period":{"start":"2025-01-01T08:00:00.000+00:00","end":"2025-09-01T08:15:00.000+00:00"},"payor":[{"reference":"Organization/4b5a882f-1f43-485c-85c6-f5ad2337d5b1"}]},"request":{"method":"PUT","url":"Coverage/d433ce69-dfb0-489f-b389-1c950da121cd"}},{"fullUrl":"https://madie.cms.gov/Organization/123456","resource":{"resourceType":"Organization","id":"4b5a882f-1f43-485c-85c6-f5ad2337d5b1","meta":{"profile":["http://hl7.org/fhir/us/qicore/StructureDefinition/qicore-organization"]},"identifier":[{"use":"temp","system":"urn:oid:2.16.840.1.113883.4.4","value":"21-3259825"}],"active":true,"type":[{"coding":[{"system":"http://terminology.hl7.org/CodeSystem/organization-type","code":"pay","display":"Payer"}]}],"name":"Blue Cross Blue Shield of Texas","telecom":[{"system":"phone","value":"(+1) 972-766-6900"}],"address":[{"use":"billing","type":"postal","line":["P.O. Box 660044"],"city":"Dallas","state":"TX","postalCode":"75266-0044","country":"USA"}]},"request":{"method":"PUT","url":"Organization/4b5a882f-1f43-485c-85c6-f5ad2337d5b1"}},{"fullUrl":"https://madie.cms.gov/Practitioner/practitioner-123456","resource":{"resourceType":"Practitioner","id":"f7c6ec06-229d-4d8f-bcf8-0514df9fecd8","meta":{"profile":["http://hl7.org/fhir/us/qicore/StructureDefinition/qicore-practitioner"]},"identifier":[{"system":"http://hl7.org/fhir/sid/us-npi","value":"123456"}],"name":[{"family":"Evil","prefix":["Dr"]}]},"request":{"method":"PUT","url":"Practitioner/f7c6ec06-229d-4d8f-bcf8-0514df9fecd8"}},{"fullUrl":"https://madie.cms.gov/MeasureReport/bcb86bfa-05cf-45aa-90e4-d4306a1817d0","resource":{"resourceType":"MeasureReport","id":"bcb86bfa-05cf-45aa-90e4-d4306a1817d0","meta":{"profile":["http://hl7.org/fhir/us/cqfmeasures/StructureDefinition/test-case-cqfm"]},"contained":[{"resourceType":"Parameters","id":"56f7cd89-251d-471c-9a2f-f88bfa1e910d-parameters","parameter":[{"name":"subject","valueString":"3ffb92ef-e745-4a3a-be24-67f4ffbdbfe4"}]}],"extension":[{"url":"http://hl7.org/fhir/us/cqfmeasures/StructureDefinition/cqfm-inputParameters","valueReference":{"reference":"#56f7cd89-251d-471c-9a2f-f88bfa1e910d-parameters"}},{"url":"http://hl7.org/fhir/us/cqfmeasures/StructureDefinition/cqfm-testCaseDescription","valueMarkdown":"Patient with Psych Visit, Family Psychotherapy and Psych Visit, and Psychotherapy encounters and Suicide Risk assessment.\n"}],"modifierExtension":[{"url":"http://hl7.org/fhir/us/cqfmeasures/StructureDefinition/cqfm-isTestCase","valueBoolean":true}],"status":"complete","type":"individual","measure":"https://madie.cms.gov/Measure/ChildandAdolescentMajorDepressiveDisorderMDDSuicideRiskAssessmentFHIR","period":{"start":"2025-01-01","end":"2025-12-31"},"group":[{"population":[{"code":{"coding":[{"system":"http://terminology.hl7.org/CodeSystem/measure-population","code":"initial-population","display":"Initial Population"}]},"count":2},{"code":{"coding":[{"system":"http://terminology.hl7.org/CodeSystem/measure-population","code":"denominator","display":"Denominator"}]},"count":2},{"code":{"coding":[{"system":"http://terminology.hl7.org/CodeSystem/measure-population","code":"numerator","display":"Numerator"}]},"count":1}]}]},"request":{"method":"PUT","url":"MeasureReport/bcb86bfa-05cf-45aa-90e4-d4306a1817d0"}}]}