{"resourceType":"Bundle","id":"tests-70955eff-a715-4012-8212-dd03468cb783-bundle","type":"transaction","entry":[{"fullUrl":"https://madie.cms.gov/Patient/70955eff-a715-4012-8212-dd03468cb783","resource":{"resourceType":"Patient","id":"70955eff-a715-4012-8212-dd03468cb783","meta":{"profile":["http://hl7.org/fhir/us/qicore/StructureDefinition/qicore-patient"]},"text":{"status":"generated","div":"<div xmlns=\"http://www.w3.org/1999/xhtml\"><div class=\"hapiHeaderText\">Agelessthan6OVEnc <b>IPPFAIL </b></div><table class=\"hapiPropertyTable\"><tbody><tr><td>Identifier</td><td>0fbb071658cdbe62eb7c50beae762e71</td></tr><tr><td>Date of birth</td><td><span>01 January 2007</span></td></tr></tbody></table></div>"},"extension":[{"url":"http://hl7.org/fhir/us/core/StructureDefinition/us-core-race","extension":[{"url":"ombCategory","valueCoding":{"system":"urn:oid:2.16.840.1.113883.6.238","code":"1002-5","display":"American Indian or Alaska Native","userSelected":true}},{"url":"text","valueString":"American Indian or Alaska Native"}]},{"url":"http://hl7.org/fhir/us/core/StructureDefinition/us-core-ethnicity","extension":[{"url":"ombCategory","valueCoding":{"system":"urn:oid:2.16.840.1.113883.6.238","code":"2186-5","display":"Not Hispanic or Latino","userSelected":true}},{"url":"text","valueString":"Not Hispanic or Latino"}]}],"identifier":[{"type":{"coding":[{"system":"http://terminology.hl7.org/CodeSystem/v2-0203","code":"MR"}]},"system":"https://bonnie-fhir.healthit.gov/","value":"6109650498086b538055a0d0"}],"active":true,"name":[{"use":"usual","family":"IPFail","given":["AgeUnder6WEnc"]}],"gender":"female","birthDate":"2020-01-06"},"request":{"method":"PUT","url":"Patient/70955eff-a715-4012-8212-dd03468cb783"}},{"fullUrl":"https://madie.cms.gov/Encounter/5c98fd1ab848464ed33e9ea2","resource":{"resourceType":"Encounter","id":"6acd8dd0-a57d-47e1-81bc-a12d390797db","status":"finished","class":{"system":"http://terminology.hl7.org/CodeSystem/v3-ActCode","code":"AMB","display":"ambulatory","userSelected":true},"type":[{"coding":[{"system":"http://www.ama-assn.org/go/cpt","code":"99205"}]}],"subject":{"reference":"Patient/70955eff-a715-4012-8212-dd03468cb783"},"period":{"start":"2026-01-25T14:30:00.000+00:00","end":"2026-01-25T15:17:00.000+00:00"},"reasonCode":[{"coding":[{"system":"http://hl7.org/fhir/sid/icd-10-cm","code":"F32.0","display":"Major depressive disorder, single episode, mild","userSelected":true}]}],"diagnosis":[{"condition":{"reference":"Condition/major-depressive-disorder-active-c3a4"},"use":{"coding":[{"system":"http://snomed.info/sct","version":"2022-09","code":"10811161000119107","display":"Major depressive disorder in mother complicating pregnancy (disorder)","userSelected":true}]}}]},"request":{"method":"PUT","url":"Encounter/6acd8dd0-a57d-47e1-81bc-a12d390797db"}},{"fullUrl":"https://madie.cms.gov/Condition/major-depressive-disorder-active-c3a4","resource":{"resourceType":"Condition","id":"32aa1903-dd4e-43ec-aa27-be2ab18363b9","category":[{"coding":[{"system":"http://terminology.hl7.org/CodeSystem/condition-category","code":"encounter-diagnosis","display":"Encounter Diagnosis"}]}],"code":{"coding":[{"system":"http://snomed.info/sct","version":"2022-09","code":"10811121000119102","display":"Major depressive disorder in mother complicating childbirth (disorder)","userSelected":true}]},"subject":{"reference":"Patient/70955eff-a715-4012-8212-dd03468cb783"},"recordedDate":"2026-01-25T14:30:00.000+00:00"},"request":{"method":"PUT","url":"Condition/32aa1903-dd4e-43ec-aa27-be2ab18363b9"}},{"fullUrl":"https://madie.cms.gov/Coverage/payer-6188","resource":{"resourceType":"Coverage","id":"f66588dc-f635-4391-8e57-c7621853ff60","status":"active","type":{"coding":[{"system":"http://www.nlm.nih.gov/research/umls/sop","version":"9.2","code":"1","display":"MEDICARE","userSelected":true}]},"beneficiary":{"reference":"Patient/70955eff-a715-4012-8212-dd03468cb783"},"period":{"start":"2026-01-01T08:00:00.000+00:00","end":"2026-03-29T08:15:00.000+00:00"},"payor":[{"reference":"Organization/4b5a882f-1f43-485c-85c6-f5ad2337d5b1"}]},"request":{"method":"PUT","url":"Coverage/f66588dc-f635-4391-8e57-c7621853ff60"}},{"fullUrl":"https://madie.cms.gov/Organization/123456","resource":{"resourceType":"Organization","id":"4b5a882f-1f43-485c-85c6-f5ad2337d5b1","meta":{"profile":["http://hl7.org/fhir/us/qicore/StructureDefinition/qicore-organization"]},"identifier":[{"use":"temp","system":"urn:oid:2.16.840.1.113883.4.4","value":"21-3259825"}],"active":true,"type":[{"coding":[{"system":"http://terminology.hl7.org/CodeSystem/organization-type","code":"pay","display":"Payer"}]}],"name":"Blue Cross Blue Shield of Texas","telecom":[{"system":"phone","value":"(+1) 972-766-6900"}],"address":[{"use":"billing","type":"postal","line":["P.O. Box 660044"],"city":"Dallas","state":"TX","postalCode":"75266-0044","country":"USA"}]},"request":{"method":"PUT","url":"Organization/4b5a882f-1f43-485c-85c6-f5ad2337d5b1"}},{"fullUrl":"https://madie.cms.gov/Practitioner/practitioner-123456","resource":{"resourceType":"Practitioner","id":"d89011c7-58bc-4106-a19a-4f5e8ffc73da","identifier":[{"system":"http://hl7.org/fhir/sid/us-npi","value":"123456"}],"name":[{"family":"Evil","prefix":["Dr"]}]},"request":{"method":"PUT","url":"Practitioner/d89011c7-58bc-4106-a19a-4f5e8ffc73da"}},{"fullUrl":"https://madie.cms.gov/MeasureReport/95765781-565f-4ec3-b662-e9b690a1d84c","resource":{"resourceType":"MeasureReport","id":"95765781-565f-4ec3-b662-e9b690a1d84c","meta":{"profile":["http://hl7.org/fhir/us/cqfmeasures/StructureDefinition/test-case-cqfm"]},"contained":[{"resourceType":"Parameters","id":"2458c7d7-5e19-44b6-ac0d-d96d7ecd3c6f-parameters","parameter":[{"name":"subject","valueString":"70955eff-a715-4012-8212-dd03468cb783"}]}],"extension":[{"url":"http://hl7.org/fhir/us/cqfmeasures/StructureDefinition/cqfm-inputParameters","valueReference":{"reference":"#2458c7d7-5e19-44b6-ac0d-d96d7ecd3c6f-parameters"}},{"url":"http://hl7.org/fhir/us/cqfmeasures/StructureDefinition/cqfm-testCaseDescription","valueMarkdown":"Patient is less that 6 years old with office visit encounter and depression diagnosis."}],"modifierExtension":[{"url":"http://hl7.org/fhir/us/cqfmeasures/StructureDefinition/cqfm-isTestCase","valueBoolean":true}],"status":"complete","type":"individual","measure":"https://madie.cms.gov/Measure/ChildandAdolescentMajorDepressiveDisorderMDDSuicideRiskAssessmentFHIR","period":{"start":"2025-01-01","end":"2025-12-31"},"group":[{"population":[{"code":{"coding":[{"system":"http://terminology.hl7.org/CodeSystem/measure-population","code":"initial-population","display":"Initial Population"}]},"count":0},{"code":{"coding":[{"system":"http://terminology.hl7.org/CodeSystem/measure-population","code":"denominator","display":"Denominator"}]},"count":0},{"code":{"coding":[{"system":"http://terminology.hl7.org/CodeSystem/measure-population","code":"numerator","display":"Numerator"}]},"count":0}]}]},"request":{"method":"PUT","url":"MeasureReport/95765781-565f-4ec3-b662-e9b690a1d84c"}}]}