{"resourceType":"Bundle","id":"tests-0416cf1c-4224-4fd1-a91e-45e294489fbe-bundle","type":"transaction","entry":[{"fullUrl":"https://madie.cms.gov/Patient/0416cf1c-4224-4fd1-a91e-45e294489fbe","resource":{"resourceType":"Patient","id":"0416cf1c-4224-4fd1-a91e-45e294489fbe","meta":{"profile":["http://hl7.org/fhir/us/qicore/StructureDefinition/qicore-patient"]},"text":{"status":"generated","div":"<div xmlns=\"http://www.w3.org/1999/xhtml\"><div class=\"hapiHeaderText\">AgeLessThan6OneDayBeforeEnc <b>IPPFAIL </b></div><table class=\"hapiPropertyTable\"><tbody><tr><td>Identifier</td><td>0a77611c25e04fb905831b43a3b32b12</td></tr><tr><td>Date of birth</td><td><span>31 December 2006</span></td></tr></tbody></table></div>"},"extension":[{"url":"http://hl7.org/fhir/us/core/StructureDefinition/us-core-race","extension":[{"url":"ombCategory","valueCoding":{"system":"urn:oid:2.16.840.1.113883.6.238","code":"1002-5","display":"American Indian or Alaska Native","userSelected":true}},{"url":"text","valueString":"American Indian or Alaska Native"}]},{"url":"http://hl7.org/fhir/us/core/StructureDefinition/us-core-ethnicity","extension":[{"url":"ombCategory","valueCoding":{"system":"urn:oid:2.16.840.1.113883.6.238","code":"2135-2","display":"Hispanic or Latino","userSelected":true}},{"url":"text","valueString":"Hispanic or Latino"}]}],"identifier":[{"type":{"coding":[{"system":"http://terminology.hl7.org/CodeSystem/v2-0203","code":"MR"}]},"system":"https://bonnie-fhir.healthit.gov/","value":"6109650598086b538055a0e0"}],"active":true,"name":[{"use":"usual","family":"IPFail","given":["AgeLessThan6OneDayBeforeEnc"]}],"gender":"male","birthDate":"2018-12-31"},"request":{"method":"PUT","url":"Patient/0416cf1c-4224-4fd1-a91e-45e294489fbe"}},{"fullUrl":"https://madie.cms.gov/Encounter/5e4aee02bd36f900007c812f","resource":{"resourceType":"Encounter","id":"3cd2a582-6759-41e4-85d7-62f36db8b7d8","status":"finished","class":{"system":"http://terminology.hl7.org/CodeSystem/v3-ActCode","code":"AMB","display":"ambulatory","userSelected":true},"type":[{"coding":[{"system":"http://snomed.info/sct","code":"281036007"}]}],"subject":{"reference":"Patient/0416cf1c-4224-4fd1-a91e-45e294489fbe"},"period":{"start":"2024-02-17T08:00:00.000+00:00","end":"2024-02-17T08:15:00.000+00:00"},"diagnosis":[{"condition":{"reference":"Condition/f68d2bbb-f454-4189-87db-5e40cde1fb2b"},"use":{"coding":[{"system":"http://snomed.info/sct","version":"2022-09","code":"10811161000119107","display":"Major depressive disorder in mother complicating pregnancy (disorder)","userSelected":true}]}}]},"request":{"method":"PUT","url":"Encounter/3cd2a582-6759-41e4-85d7-62f36db8b7d8"}},{"fullUrl":"https://madie.cms.gov/Condition/major-depressive-disorder-active-a4a0","resource":{"resourceType":"Condition","id":"f68d2bbb-f454-4189-87db-5e40cde1fb2b","category":[{"coding":[{"system":"http://terminology.hl7.org/CodeSystem/condition-category","code":"encounter-diagnosis","display":"Encounter Diagnosis"}]}],"code":{"coding":[{"system":"http://snomed.info/sct","version":"2022-09","code":"10811121000119102","display":"Major depressive disorder in mother complicating childbirth (disorder)","userSelected":true}]},"subject":{"reference":"Patient/0416cf1c-4224-4fd1-a91e-45e294489fbe"},"recordedDate":"2024-02-17T08:00:00.000+00:00"},"request":{"method":"PUT","url":"Condition/f68d2bbb-f454-4189-87db-5e40cde1fb2b"}},{"fullUrl":"https://madie.cms.gov/Coverage/1","resource":{"resourceType":"Coverage","id":"d49d487d-c473-4a89-af7b-05964b1f9f2b","meta":{"profile":["http://hl7.org/fhir/us/qicore/StructureDefinition/qicore-coverage"]},"status":"active","beneficiary":{"reference":"Patient/0416cf1c-4224-4fd1-a91e-45e294489fbe"},"payor":[{"reference":"Organization/4b5a882f-1f43-485c-85c6-f5ad2337d5b1"}]},"request":{"method":"PUT","url":"Coverage/d49d487d-c473-4a89-af7b-05964b1f9f2b"}},{"fullUrl":"https://madie.cms.gov/Organization/123456","resource":{"resourceType":"Organization","id":"4b5a882f-1f43-485c-85c6-f5ad2337d5b1","meta":{"profile":["http://hl7.org/fhir/us/qicore/StructureDefinition/qicore-organization"]},"identifier":[{"use":"temp","system":"urn:oid:2.16.840.1.113883.4.4","value":"21-3259825"}],"active":true,"type":[{"coding":[{"system":"http://terminology.hl7.org/CodeSystem/organization-type","code":"pay","display":"Payer"}]}],"name":"Blue Cross Blue Shield of Texas","telecom":[{"system":"phone","value":"(+1) 972-766-6900"}],"address":[{"use":"billing","type":"postal","line":["P.O. Box 660044"],"city":"Dallas","state":"TX","postalCode":"75266-0044","country":"USA"}]},"request":{"method":"PUT","url":"Organization/4b5a882f-1f43-485c-85c6-f5ad2337d5b1"}},{"fullUrl":"https://madie.cms.gov/Practitioner/practitioner-123456","resource":{"resourceType":"Practitioner","id":"6aac6e5f-25d6-4dc6-873d-be736c702cdc","identifier":[{"system":"http://hl7.org/fhir/sid/us-npi","value":"123456"}],"name":[{"family":"Evil","prefix":["Dr"]}]},"request":{"method":"PUT","url":"Practitioner/6aac6e5f-25d6-4dc6-873d-be736c702cdc"}},{"fullUrl":"https://madie.cms.gov/MeasureReport/048ca24d-7a18-4548-98d6-225ac5a206f2","resource":{"resourceType":"MeasureReport","id":"048ca24d-7a18-4548-98d6-225ac5a206f2","meta":{"profile":["http://hl7.org/fhir/us/cqfmeasures/StructureDefinition/test-case-cqfm"]},"contained":[{"resourceType":"Parameters","id":"afebc09e-4bdb-41f5-a6a3-b8e55d5231ab-parameters","parameter":[{"name":"subject","valueString":"0416cf1c-4224-4fd1-a91e-45e294489fbe"}]}],"extension":[{"url":"http://hl7.org/fhir/us/cqfmeasures/StructureDefinition/cqfm-inputParameters","valueReference":{"reference":"#afebc09e-4bdb-41f5-a6a3-b8e55d5231ab-parameters"}},{"url":"http://hl7.org/fhir/us/cqfmeasures/StructureDefinition/cqfm-testCaseDescription","valueMarkdown":"Patient is under 6 years on Dec 31 and completed an Outpatient Visit encounter during MP"}],"modifierExtension":[{"url":"http://hl7.org/fhir/us/cqfmeasures/StructureDefinition/cqfm-isTestCase","valueBoolean":true}],"status":"complete","type":"individual","measure":"https://madie.cms.gov/Measure/ChildandAdolescentMajorDepressiveDisorderMDDSuicideRiskAssessmentFHIR","period":{"start":"2025-01-01","end":"2025-12-31"},"group":[{"population":[{"code":{"coding":[{"system":"http://terminology.hl7.org/CodeSystem/measure-population","code":"initial-population","display":"Initial Population"}]},"count":0},{"code":{"coding":[{"system":"http://terminology.hl7.org/CodeSystem/measure-population","code":"denominator","display":"Denominator"}]},"count":0},{"code":{"coding":[{"system":"http://terminology.hl7.org/CodeSystem/measure-population","code":"numerator","display":"Numerator"}]},"count":0}]}]},"request":{"method":"PUT","url":"MeasureReport/048ca24d-7a18-4548-98d6-225ac5a206f2"}}]}