{"resourceType":"Bundle","id":"tests-45e565d9-370c-4471-ab70-21d65fb14cd9-bundle","type":"transaction","entry":[{"fullUrl":"https://madie.cms.gov/Patient/45e565d9-370c-4471-ab70-21d65fb14cd9","resource":{"resourceType":"Patient","id":"45e565d9-370c-4471-ab70-21d65fb14cd9","meta":{"profile":["http://hl7.org/fhir/us/qicore/StructureDefinition/qicore-patient"]},"text":{"status":"generated","div":"<div xmlns=\"http://www.w3.org/1999/xhtml\"><div class=\"hapiHeaderText\">OPEnc1DayAfterMP <b>IPPFAIL </b></div><table class=\"hapiPropertyTable\"><tbody><tr><td>Identifier</td><td>cb76ca79e162958d7a07677b4555c841</td></tr><tr><td>Date of birth</td><td><span>13 December 1995</span></td></tr></tbody></table></div>"},"extension":[{"url":"http://hl7.org/fhir/us/core/StructureDefinition/us-core-race","extension":[{"url":"ombCategory","valueCoding":{"system":"urn:oid:2.16.840.1.113883.6.238","code":"1002-5","display":"American Indian or Alaska Native","userSelected":true}},{"url":"text","valueString":"American Indian or Alaska Native"}]},{"url":"http://hl7.org/fhir/us/core/StructureDefinition/us-core-ethnicity","extension":[{"url":"ombCategory","valueCoding":{"system":"urn:oid:2.16.840.1.113883.6.238","code":"2135-2","display":"Hispanic or Latino","userSelected":true}},{"url":"text","valueString":"Hispanic or Latino"}]}],"identifier":[{"type":{"coding":[{"system":"http://terminology.hl7.org/CodeSystem/v2-0203","code":"MR"}]},"system":"https://bonnie-fhir.healthit.gov/","value":"6109650598086b538055a0f2"}],"active":true,"name":[{"use":"usual","family":"IPFail","given":["Enc1DayAfterMP"]}],"gender":"female","birthDate":"2010-12-13"},"request":{"method":"PUT","url":"Patient/45e565d9-370c-4471-ab70-21d65fb14cd9"}},{"fullUrl":"https://madie.cms.gov/Encounter/5c98fd1ab848464ed33e9eb2","resource":{"resourceType":"Encounter","id":"6b7d19bc-7d13-416a-a43d-c3c4a06c0709","status":"finished","class":{"system":"http://terminology.hl7.org/CodeSystem/v3-ActCode","code":"AMB","display":"ambulatory","userSelected":true},"type":[{"coding":[{"system":"http://www.ama-assn.org/go/cpt","code":"99241"}]}],"subject":{"reference":"Patient/45e565d9-370c-4471-ab70-21d65fb14cd9"},"period":{"start":"2027-01-01T10:02:00.000+00:00","end":"2027-01-01T10:23:00.000+00:00"},"length":{"value":0.0,"unit":"days"},"diagnosis":[{"condition":{"reference":"Condition/major-depressive-disorder-active-c3a7"},"use":{"coding":[{"system":"http://snomed.info/sct","version":"2022-09","code":"191610000","display":"Recurrent major depressive episodes, mild (disorder)","userSelected":true}]}}]},"request":{"method":"PUT","url":"Encounter/6b7d19bc-7d13-416a-a43d-c3c4a06c0709"}},{"fullUrl":"https://madie.cms.gov/Condition/major-depressive-disorder-active-c3a7","resource":{"resourceType":"Condition","id":"1fb9f353-7bd6-456d-87ae-3f667e1d65a5","category":[{"coding":[{"system":"http://terminology.hl7.org/CodeSystem/condition-category","code":"encounter-diagnosis","display":"encounter-diagnosis","userSelected":true}]}],"code":{"coding":[{"system":"http://snomed.info/sct","version":"2022-09","code":"10811121000119102","display":"Major depressive disorder in mother complicating childbirth (disorder)","userSelected":true}]},"subject":{"reference":"Patient/45e565d9-370c-4471-ab70-21d65fb14cd9"},"recordedDate":"2027-01-01T10:02:00.000+00:00"},"request":{"method":"PUT","url":"Condition/1fb9f353-7bd6-456d-87ae-3f667e1d65a5"}},{"fullUrl":"https://madie.cms.gov/Coverage/payer-618a","resource":{"resourceType":"Coverage","id":"44555900-52ce-46fe-9cc8-eb8837985023","status":"active","type":{"coding":[{"system":"http://www.nlm.nih.gov/research/umls/sop","version":"9.2","code":"1","display":"MEDICARE","userSelected":true}]},"beneficiary":{"reference":"Patient/45e565d9-370c-4471-ab70-21d65fb14cd9"},"period":{"start":"2026-01-01T08:00:00.000+00:00","end":"2027-03-29T08:15:00.000+00:00"},"payor":[{"reference":"Organization/4b5a882f-1f43-485c-85c6-f5ad2337d5b1"}]},"request":{"method":"PUT","url":"Coverage/44555900-52ce-46fe-9cc8-eb8837985023"}},{"fullUrl":"https://madie.cms.gov/Organization/123456","resource":{"resourceType":"Organization","id":"4b5a882f-1f43-485c-85c6-f5ad2337d5b1","meta":{"profile":["http://hl7.org/fhir/us/qicore/StructureDefinition/qicore-organization"]},"identifier":[{"use":"temp","system":"urn:oid:2.16.840.1.113883.4.4","value":"21-3259825"}],"active":true,"type":[{"coding":[{"system":"http://terminology.hl7.org/CodeSystem/organization-type","code":"pay","display":"Payer"}]}],"name":"Blue Cross Blue Shield of Texas","telecom":[{"system":"phone","value":"(+1) 972-766-6900"}],"address":[{"use":"billing","type":"postal","line":["P.O. Box 660044"],"city":"Dallas","state":"TX","postalCode":"75266-0044","country":"USA"}]},"request":{"method":"PUT","url":"Organization/4b5a882f-1f43-485c-85c6-f5ad2337d5b1"}},{"fullUrl":"https://madie.cms.gov/Practitioner/practitioner-123456","resource":{"resourceType":"Practitioner","id":"5f4735c7-7dba-43e1-ae6e-18d840ed9d11","identifier":[{"system":"http://hl7.org/fhir/sid/us-npi","value":"123456"}],"name":[{"family":"Evil","prefix":["Dr"]}]},"request":{"method":"PUT","url":"Practitioner/5f4735c7-7dba-43e1-ae6e-18d840ed9d11"}},{"fullUrl":"https://madie.cms.gov/MeasureReport/b1670820-9aef-4c6e-b96d-b7a28627599e","resource":{"resourceType":"MeasureReport","id":"b1670820-9aef-4c6e-b96d-b7a28627599e","meta":{"profile":["http://hl7.org/fhir/us/cqfmeasures/StructureDefinition/test-case-cqfm"]},"contained":[{"resourceType":"Parameters","id":"024e5bd5-9eb5-43ba-bc95-cdd6f9fbed73-parameters","parameter":[{"name":"subject","valueString":"45e565d9-370c-4471-ab70-21d65fb14cd9"}]}],"extension":[{"url":"http://hl7.org/fhir/us/cqfmeasures/StructureDefinition/cqfm-inputParameters","valueReference":{"reference":"#024e5bd5-9eb5-43ba-bc95-cdd6f9fbed73-parameters"}},{"url":"http://hl7.org/fhir/us/cqfmeasures/StructureDefinition/cqfm-testCaseDescription","valueMarkdown":"Patient has Outpatient Consultation encounter 1 day after measurement period to test timing"}],"modifierExtension":[{"url":"http://hl7.org/fhir/us/cqfmeasures/StructureDefinition/cqfm-isTestCase","valueBoolean":true}],"status":"complete","type":"individual","measure":"https://madie.cms.gov/Measure/ChildandAdolescentMajorDepressiveDisorderMDDSuicideRiskAssessmentFHIR","period":{"start":"2025-01-01","end":"2025-12-31"},"group":[{"population":[{"code":{"coding":[{"system":"http://terminology.hl7.org/CodeSystem/measure-population","code":"initial-population","display":"Initial Population"}]},"count":0},{"code":{"coding":[{"system":"http://terminology.hl7.org/CodeSystem/measure-population","code":"denominator","display":"Denominator"}]},"count":0},{"code":{"coding":[{"system":"http://terminology.hl7.org/CodeSystem/measure-population","code":"numerator","display":"Numerator"}]},"count":0}]}]},"request":{"method":"PUT","url":"MeasureReport/b1670820-9aef-4c6e-b96d-b7a28627599e"}}]}