{"resourceType":"Bundle","id":"tests-25f5ac8c-9cab-47fc-b336-8c880ef0c038-bundle","type":"transaction","entry":[{"fullUrl":"https://madie.cms.gov/Patient/25f5ac8c-9cab-47fc-b336-8c880ef0c038","resource":{"resourceType":"Patient","id":"25f5ac8c-9cab-47fc-b336-8c880ef0c038","meta":{"profile":["http://hl7.org/fhir/us/qicore/StructureDefinition/qicore-patient"]},"extension":[{"url":"http://hl7.org/fhir/us/core/StructureDefinition/us-core-race","extension":[{"url":"ombCategory","valueCoding":{"system":"urn:oid:2.16.840.1.113883.6.238","code":"2028-9","display":"Asian","userSelected":true}},{"url":"text","valueString":"Asian"}]},{"url":"http://hl7.org/fhir/us/core/StructureDefinition/us-core-ethnicity","extension":[{"url":"ombCategory","valueCoding":{"system":"urn:oid:2.16.840.1.113883.6.238","code":"2186-5","display":"Not Hispanic or Latino","userSelected":true}},{"url":"text","valueString":"Not Hispanic or Latino"}]}],"identifier":[{"type":{"coding":[{"system":"http://terminology.hl7.org/CodeSystem/v2-0203","code":"MR"}]},"system":"https://bonnie-fhir.healthit.gov/","value":"64d117291252352a0771c3b2"}],"name":[{"family":"DENOMPass","given":["Age16Yr11MoOnJanEdge"]}],"gender":"male","birthDate":"2009-01-02"},"request":{"method":"PUT","url":"Patient/25f5ac8c-9cab-47fc-b336-8c880ef0c038"}},{"fullUrl":"https://madie.cms.gov/Encounter/psych-visit-psychotherapy-c3b3","resource":{"resourceType":"Encounter","id":"3a2219c0-3622-4bbf-ae53-4d472f69af4c","status":"finished","class":{"system":"http://terminology.hl7.org/CodeSystem/v3-ActCode","code":"AMB","display":"ambulatory","userSelected":true},"type":[{"coding":[{"system":"http://www.ama-assn.org/go/cpt","code":"90832","userSelected":true}]}],"subject":{"reference":"Patient/25f5ac8c-9cab-47fc-b336-8c880ef0c038"},"period":{"start":"2026-07-12T11:45:00.000+00:00","end":"2026-07-12T11:50:00.000+00:00"},"length":{"value":0.0,"unit":"days"},"reasonCode":[{"coding":[{"system":"http://snomed.info/sct","version":"2022-09","code":"10811161000119107","display":"Major depressive disorder in mother complicating pregnancy (disorder)","userSelected":true}]}],"diagnosis":[{"condition":{"reference":"Condition/704d8440-df0b-4aff-a105-d1ea2cd9dcf7"},"use":{"coding":[{"system":"http://snomed.info/sct","version":"2022-09","code":"10811161000119107","display":"Major depressive disorder in mother complicating pregnancy (disorder)","userSelected":true}]}}]},"request":{"method":"PUT","url":"Encounter/3a2219c0-3622-4bbf-ae53-4d472f69af4c"}},{"fullUrl":"https://madie.cms.gov/Condition/major-depressive-disorder-active-c3b4","resource":{"resourceType":"Condition","id":"704d8440-df0b-4aff-a105-d1ea2cd9dcf7","category":[{"coding":[{"system":"http://terminology.hl7.org/CodeSystem/condition-category","code":"encounter-diagnosis","display":"Encounter Diagnosis"}]}],"code":{"coding":[{"system":"http://snomed.info/sct","version":"2022-09","code":"10811121000119102","display":"Major depressive disorder in mother complicating childbirth (disorder)","userSelected":true}]},"subject":{"reference":"Patient/25f5ac8c-9cab-47fc-b336-8c880ef0c038"},"recordedDate":"2026-07-12T11:45:00.000+00:00"},"request":{"method":"PUT","url":"Condition/704d8440-df0b-4aff-a105-d1ea2cd9dcf7"}},{"fullUrl":"https://madie.cms.gov/Coverage/payer-9f02","resource":{"resourceType":"Coverage","id":"7c70e98e-44c0-4462-a68b-2c1a486fcc42","status":"active","type":{"coding":[{"system":"http://www.nlm.nih.gov/research/umls/sop","version":"9.2","code":"1","display":"MEDICARE","userSelected":true}]},"beneficiary":{"reference":"Patient/25f5ac8c-9cab-47fc-b336-8c880ef0c038"},"period":{"start":"2026-01-01T08:00:00.000+00:00","end":"2026-08-29T08:15:00.000+00:00"},"payor":[{"reference":"Organization/4b5a882f-1f43-485c-85c6-f5ad2337d5b1"}]},"request":{"method":"PUT","url":"Coverage/7c70e98e-44c0-4462-a68b-2c1a486fcc42"}},{"fullUrl":"https://madie.cms.gov/Organization/123456","resource":{"resourceType":"Organization","id":"4b5a882f-1f43-485c-85c6-f5ad2337d5b1","meta":{"profile":["http://hl7.org/fhir/us/qicore/StructureDefinition/qicore-organization"]},"identifier":[{"use":"temp","system":"urn:oid:2.16.840.1.113883.4.4","value":"21-3259825"}],"active":true,"type":[{"coding":[{"system":"http://terminology.hl7.org/CodeSystem/organization-type","code":"pay","display":"Payer"}]}],"name":"Blue Cross Blue Shield of Texas","telecom":[{"system":"phone","value":"(+1) 972-766-6900"}],"address":[{"use":"billing","type":"postal","line":["P.O. Box 660044"],"city":"Dallas","state":"TX","postalCode":"75266-0044","country":"USA"}]},"request":{"method":"PUT","url":"Organization/4b5a882f-1f43-485c-85c6-f5ad2337d5b1"}},{"fullUrl":"https://madie.cms.gov/Practitioner/practitioner-123456","resource":{"resourceType":"Practitioner","id":"41fe8206-b51e-47f2-b0ee-e3c2a3d9d024","identifier":[{"system":"http://hl7.org/fhir/sid/us-npi","value":"123456"}],"name":[{"family":"Evil","prefix":["Dr"]}]},"request":{"method":"PUT","url":"Practitioner/41fe8206-b51e-47f2-b0ee-e3c2a3d9d024"}},{"fullUrl":"https://madie.cms.gov/MeasureReport/26dd9e19-1686-4ff1-b98e-4b1c413e8130","resource":{"resourceType":"MeasureReport","id":"26dd9e19-1686-4ff1-b98e-4b1c413e8130","meta":{"profile":["http://hl7.org/fhir/us/cqfmeasures/StructureDefinition/test-case-cqfm"]},"contained":[{"resourceType":"Parameters","id":"1a3e3e72-d996-4fa8-b5c1-25112474e325-parameters","parameter":[{"name":"subject","valueString":"25f5ac8c-9cab-47fc-b336-8c880ef0c038"}]}],"extension":[{"url":"http://hl7.org/fhir/us/cqfmeasures/StructureDefinition/cqfm-inputParameters","valueReference":{"reference":"#1a3e3e72-d996-4fa8-b5c1-25112474e325-parameters"}},{"url":"http://hl7.org/fhir/us/cqfmeasures/StructureDefinition/cqfm-testCaseDescription","valueMarkdown":"Patient is 16 years 11 months 30 days begins with depression and suicide risk assessment during psychotherapy encounter."}],"modifierExtension":[{"url":"http://hl7.org/fhir/us/cqfmeasures/StructureDefinition/cqfm-isTestCase","valueBoolean":true}],"status":"complete","type":"individual","measure":"https://madie.cms.gov/Measure/ChildandAdolescentMajorDepressiveDisorderMDDSuicideRiskAssessmentFHIR","period":{"start":"2025-01-01","end":"2025-12-31"},"group":[{"population":[{"code":{"coding":[{"system":"http://terminology.hl7.org/CodeSystem/measure-population","code":"initial-population","display":"Initial Population"}]},"count":0},{"code":{"coding":[{"system":"http://terminology.hl7.org/CodeSystem/measure-population","code":"denominator","display":"Denominator"}]},"count":0},{"code":{"coding":[{"system":"http://terminology.hl7.org/CodeSystem/measure-population","code":"numerator","display":"Numerator"}]},"count":0}]}]},"request":{"method":"PUT","url":"MeasureReport/26dd9e19-1686-4ff1-b98e-4b1c413e8130"}}]}