{"resourceType":"Bundle","id":"tests-60ac93c0-8278-40b0-b1c0-0f01f3166741-bundle","type":"transaction","entry":[{"fullUrl":"https://madie.cms.gov/Patient/60ac93c0-8278-40b0-b1c0-0f01f3166741","resource":{"resourceType":"Patient","id":"60ac93c0-8278-40b0-b1c0-0f01f3166741","meta":{"profile":["http://hl7.org/fhir/us/qicore/StructureDefinition/qicore-patient"]},"extension":[{"url":"http://hl7.org/fhir/us/core/StructureDefinition/us-core-race","extension":[{"url":"ombCategory","valueCoding":{"system":"urn:oid:2.16.840.1.113883.6.238","code":"1002-5","display":"American Indian or Alaska Native","userSelected":true}},{"url":"text","valueString":"American Indian or Alaska Native"}]},{"url":"http://hl7.org/fhir/us/core/StructureDefinition/us-core-ethnicity","extension":[{"url":"ombCategory","valueCoding":{"system":"urn:oid:2.16.840.1.113883.6.238","code":"2186-5","display":"Not Hispanic or Latino","userSelected":true}},{"url":"text","valueString":"Not Hispanic or Latino"}]}],"identifier":[{"type":{"coding":[{"system":"http://terminology.hl7.org/CodeSystem/v2-0203","code":"MR"}]},"system":"https://bonnie-fhir.healthit.gov/","value":"64d120d51252352a0771c3c0"}],"name":[{"family":"IPFail","given":["Age17Yr1DayOnDec31Edge"]}],"gender":"female","birthDate":"2008-12-31"},"request":{"method":"PUT","url":"Patient/60ac93c0-8278-40b0-b1c0-0f01f3166741"}},{"fullUrl":"https://madie.cms.gov/Encounter/group-psychotherapy-c3c1","resource":{"resourceType":"Encounter","id":"551122b0-676c-432d-acd5-ef41244c9cae","status":"finished","class":{"system":"http://terminology.hl7.org/CodeSystem/v3-ActCode","code":"AMB","display":"ambulatory","userSelected":true},"type":[{"coding":[{"system":"http://snomed.info/sct","code":"27591006","userSelected":true}]}],"subject":{"reference":"Patient/60ac93c0-8278-40b0-b1c0-0f01f3166741"},"period":{"start":"2026-11-15T10:02:00.000+00:00","end":"2026-11-15T10:29:00.000+00:00"},"diagnosis":[{"condition":{"reference":"Condition/major-depressive-disorder-active-c3c2"},"use":{"coding":[{"system":"http://snomed.info/sct","version":"2022-09","code":"832007","display":"Moderate major depression (disorder)","userSelected":true}]}}]},"request":{"method":"PUT","url":"Encounter/551122b0-676c-432d-acd5-ef41244c9cae"}},{"fullUrl":"https://madie.cms.gov/Condition/major-depressive-disorder-active-c3c2","resource":{"resourceType":"Condition","id":"48ceeb45-462e-49dd-bd9f-49a2629d5bbd","category":[{"coding":[{"system":"http://terminology.hl7.org/CodeSystem/condition-category","code":"encounter-diagnosis","display":"encounter-diagnosis","userSelected":true}]}],"code":{"coding":[{"system":"http://snomed.info/sct","version":"2022-09","code":"10811121000119102","display":"Major depressive disorder in mother complicating childbirth (disorder)","userSelected":true}]},"subject":{"reference":"Patient/60ac93c0-8278-40b0-b1c0-0f01f3166741"},"recordedDate":"2024-11-15T10:02:00.000+00:00"},"request":{"method":"PUT","url":"Condition/48ceeb45-462e-49dd-bd9f-49a2629d5bbd"}},{"fullUrl":"https://madie.cms.gov/Coverage/payer-6183","resource":{"resourceType":"Coverage","id":"3f18861c-85b2-4008-9111-655fa822587d","status":"active","type":{"coding":[{"system":"http://www.nlm.nih.gov/research/umls/sop","version":"9.2","code":"1","display":"MEDICARE","userSelected":true}]},"beneficiary":{"reference":"Patient/60ac93c0-8278-40b0-b1c0-0f01f3166741"},"period":{"start":"2026-01-01T08:00:00.000+00:00","end":"2026-12-31T08:15:00.000+00:00"},"payor":[{"reference":"Organization/4b5a882f-1f43-485c-85c6-f5ad2337d5b1"}]},"request":{"method":"PUT","url":"Coverage/3f18861c-85b2-4008-9111-655fa822587d"}},{"fullUrl":"https://madie.cms.gov/Organization/123456","resource":{"resourceType":"Organization","id":"4b5a882f-1f43-485c-85c6-f5ad2337d5b1","meta":{"profile":["http://hl7.org/fhir/us/qicore/StructureDefinition/qicore-organization"]},"identifier":[{"use":"temp","system":"urn:oid:2.16.840.1.113883.4.4","value":"21-3259825"}],"active":true,"type":[{"coding":[{"system":"http://terminology.hl7.org/CodeSystem/organization-type","code":"pay","display":"Payer"}]}],"name":"Blue Cross Blue Shield of Texas","telecom":[{"system":"phone","value":"(+1) 972-766-6900"}],"address":[{"use":"billing","type":"postal","line":["P.O. Box 660044"],"city":"Dallas","state":"TX","postalCode":"75266-0044","country":"USA"}]},"request":{"method":"PUT","url":"Organization/4b5a882f-1f43-485c-85c6-f5ad2337d5b1"}},{"fullUrl":"https://madie.cms.gov/Practitioner/practitioner-123456","resource":{"resourceType":"Practitioner","id":"cf7c3846-3f28-4fa6-896e-caaa2b86dff7","identifier":[{"system":"http://hl7.org/fhir/sid/us-npi","value":"123456"}],"name":[{"family":"Evil","prefix":["Dr"]}]},"request":{"method":"PUT","url":"Practitioner/cf7c3846-3f28-4fa6-896e-caaa2b86dff7"}},{"fullUrl":"https://madie.cms.gov/MeasureReport/78ac65fe-83cf-43ad-8e50-5a816c028794","resource":{"resourceType":"MeasureReport","id":"78ac65fe-83cf-43ad-8e50-5a816c028794","meta":{"profile":["http://hl7.org/fhir/us/cqfmeasures/StructureDefinition/test-case-cqfm"]},"contained":[{"resourceType":"Parameters","id":"07b9dace-85a4-4569-b7c8-36fba94f7fba-parameters","parameter":[{"name":"subject","valueString":"60ac93c0-8278-40b0-b1c0-0f01f3166741"}]}],"extension":[{"url":"http://hl7.org/fhir/us/cqfmeasures/StructureDefinition/cqfm-inputParameters","valueReference":{"reference":"#07b9dace-85a4-4569-b7c8-36fba94f7fba-parameters"}},{"url":"http://hl7.org/fhir/us/cqfmeasures/StructureDefinition/cqfm-testCaseDescription","valueMarkdown":"Patient is 17 years 0 months 1 day on start of MP"}],"modifierExtension":[{"url":"http://hl7.org/fhir/us/cqfmeasures/StructureDefinition/cqfm-isTestCase","valueBoolean":true}],"status":"complete","type":"individual","measure":"https://madie.cms.gov/Measure/ChildandAdolescentMajorDepressiveDisorderMDDSuicideRiskAssessmentFHIR","period":{"start":"2025-01-01","end":"2025-12-31"},"group":[{"population":[{"code":{"coding":[{"system":"http://terminology.hl7.org/CodeSystem/measure-population","code":"initial-population","display":"Initial Population"}]},"count":0},{"code":{"coding":[{"system":"http://terminology.hl7.org/CodeSystem/measure-population","code":"denominator","display":"Denominator"}]},"count":0},{"code":{"coding":[{"system":"http://terminology.hl7.org/CodeSystem/measure-population","code":"numerator","display":"Numerator"}]},"count":0}]}]},"request":{"method":"PUT","url":"MeasureReport/78ac65fe-83cf-43ad-8e50-5a816c028794"}}]}