{"resourceType":"Bundle","id":"tests-273965e8-6bde-4cd6-a1d8-1356fca4f674-bundle","type":"transaction","entry":[{"fullUrl":"https://madie.cms.gov/Patient/273965e8-6bde-4cd6-a1d8-1356fca4f674","resource":{"resourceType":"Patient","id":"273965e8-6bde-4cd6-a1d8-1356fca4f674","meta":{"profile":["http://hl7.org/fhir/us/qicore/StructureDefinition/qicore-patient"]},"text":{"status":"generated","div":"<div xmlns=\"http://www.w3.org/1999/xhtml\"><div class=\"hapiHeaderText\">AgeOver17OneDayB4EncTelehealth <b>IPPFAIL </b></div><table class=\"hapiPropertyTable\"><tbody><tr><td>Identifier</td><td>cd568cb6b2f07d024c404c48394c395c</td></tr><tr><td>Date of birth</td><td><span>31 December 1994</span></td></tr></tbody></table></div>"},"extension":[{"url":"http://hl7.org/fhir/us/core/StructureDefinition/us-core-race","extension":[{"url":"ombCategory","valueCoding":{"system":"urn:oid:2.16.840.1.113883.6.238","code":"1002-5","display":"American Indian or Alaska Native","userSelected":true}},{"url":"text","valueString":"American Indian or Alaska Native"}]},{"url":"http://hl7.org/fhir/us/core/StructureDefinition/us-core-ethnicity","extension":[{"url":"ombCategory","valueCoding":{"system":"urn:oid:2.16.840.1.113883.6.238","code":"2186-5","display":"Not Hispanic or Latino","userSelected":true}},{"url":"text","valueString":"Not Hispanic or Latino"}]}],"identifier":[{"type":{"coding":[{"system":"http://terminology.hl7.org/CodeSystem/v2-0203","code":"MR"}]},"system":"https://bonnie-fhir.healthit.gov/","value":"6109650598086b538055a0e6"}],"active":true,"name":[{"use":"usual","family":"IPFail","given":["AgeOver17OneDayB4EncTelephone"]}],"gender":"male","birthDate":"2007-12-31"},"request":{"method":"PUT","url":"Patient/273965e8-6bde-4cd6-a1d8-1356fca4f674"}},{"fullUrl":"https://madie.cms.gov/Encounter/5c98fd1bb848464ed33e9eb4","resource":{"resourceType":"Encounter","id":"43bd63e4-4f18-476f-93a6-e617ea82f84c","status":"finished","class":{"system":"http://terminology.hl7.org/CodeSystem/v3-ActCode","code":"AMB","display":"ambulatory","userSelected":true},"type":[{"coding":[{"system":"http://www.ama-assn.org/go/cpt","code":"98966"}]}],"subject":{"reference":"Patient/273965e8-6bde-4cd6-a1d8-1356fca4f674"},"period":{"start":"2026-01-01T08:00:00.000+00:00","end":"2026-01-01T08:15:00.000+00:00"},"diagnosis":[{"condition":{"reference":"Condition/30184d0c-9a04-4fd6-9c91-0428f2d3ca93"},"use":{"coding":[{"system":"http://snomed.info/sct","version":"2022-09","code":"10811161000119107","display":"Major depressive disorder in mother complicating pregnancy (disorder)","userSelected":true}]}}]},"request":{"method":"PUT","url":"Encounter/43bd63e4-4f18-476f-93a6-e617ea82f84c"}},{"fullUrl":"https://madie.cms.gov/Condition/major-depressive-disorder-active-c3a2","resource":{"resourceType":"Condition","id":"30184d0c-9a04-4fd6-9c91-0428f2d3ca93","category":[{"coding":[{"system":"http://terminology.hl7.org/CodeSystem/condition-category","code":"encounter-diagnosis","display":"Encounter Diagnosis"}]}],"code":{"coding":[{"system":"http://snomed.info/sct","version":"2022-09","code":"10811121000119102","display":"Major depressive disorder in mother complicating childbirth (disorder)","userSelected":true}]},"subject":{"reference":"Patient/273965e8-6bde-4cd6-a1d8-1356fca4f674"},"recordedDate":"2026-01-01T08:00:00.000+00:00"},"request":{"method":"PUT","url":"Condition/30184d0c-9a04-4fd6-9c91-0428f2d3ca93"}},{"fullUrl":"https://madie.cms.gov/Coverage/payer-f7ab","resource":{"resourceType":"Coverage","id":"828d19bc-cb49-479a-b18f-6869b6cf56c0","status":"active","type":{"coding":[{"system":"http://www.nlm.nih.gov/research/umls/sop","version":"9.2","code":"1","display":"MEDICARE","userSelected":true}]},"beneficiary":{"reference":"Patient/273965e8-6bde-4cd6-a1d8-1356fca4f674"},"period":{"start":"2026-01-01T08:00:00.000+00:00","end":"2026-03-28T08:15:00.000+00:00"},"payor":[{"reference":"Organization/4b5a882f-1f43-485c-85c6-f5ad2337d5b1"}]},"request":{"method":"PUT","url":"Coverage/828d19bc-cb49-479a-b18f-6869b6cf56c0"}},{"fullUrl":"https://madie.cms.gov/Organization/123456","resource":{"resourceType":"Organization","id":"4b5a882f-1f43-485c-85c6-f5ad2337d5b1","meta":{"profile":["http://hl7.org/fhir/us/qicore/StructureDefinition/qicore-organization"]},"identifier":[{"use":"temp","system":"urn:oid:2.16.840.1.113883.4.4","value":"21-3259825"}],"active":true,"type":[{"coding":[{"system":"http://terminology.hl7.org/CodeSystem/organization-type","code":"pay","display":"Payer"}]}],"name":"Blue Cross Blue Shield of Texas","telecom":[{"system":"phone","value":"(+1) 972-766-6900"}],"address":[{"use":"billing","type":"postal","line":["P.O. Box 660044"],"city":"Dallas","state":"TX","postalCode":"75266-0044","country":"USA"}]},"request":{"method":"PUT","url":"Organization/4b5a882f-1f43-485c-85c6-f5ad2337d5b1"}},{"fullUrl":"https://madie.cms.gov/Practitioner/practitioner-123456","resource":{"resourceType":"Practitioner","id":"cd7d8c5d-9a9d-4fa0-aaeb-efa9ec1ddbde","identifier":[{"system":"http://hl7.org/fhir/sid/us-npi","value":"123456"}],"name":[{"family":"Evil","prefix":["Dr"]}]},"request":{"method":"PUT","url":"Practitioner/cd7d8c5d-9a9d-4fa0-aaeb-efa9ec1ddbde"}},{"fullUrl":"https://madie.cms.gov/MeasureReport/268ec9f6-5035-4158-a3d9-54d63d95209d","resource":{"resourceType":"MeasureReport","id":"268ec9f6-5035-4158-a3d9-54d63d95209d","meta":{"profile":["http://hl7.org/fhir/us/cqfmeasures/StructureDefinition/test-case-cqfm"]},"contained":[{"resourceType":"Parameters","id":"880e6eca-3aac-4d8b-b1bc-a1779a6aa271-parameters","parameter":[{"name":"subject","valueString":"273965e8-6bde-4cd6-a1d8-1356fca4f674"}]}],"extension":[{"url":"http://hl7.org/fhir/us/cqfmeasures/StructureDefinition/cqfm-inputParameters","valueReference":{"reference":"#880e6eca-3aac-4d8b-b1bc-a1779a6aa271-parameters"}},{"url":"http://hl7.org/fhir/us/cqfmeasures/StructureDefinition/cqfm-testCaseDescription","valueMarkdown":"Patient is 17 years 1 day on Dec 31 and completed a Telephone visit encounter during MP"}],"modifierExtension":[{"url":"http://hl7.org/fhir/us/cqfmeasures/StructureDefinition/cqfm-isTestCase","valueBoolean":true}],"status":"complete","type":"individual","measure":"https://madie.cms.gov/Measure/ChildandAdolescentMajorDepressiveDisorderMDDSuicideRiskAssessmentFHIR","period":{"start":"2025-01-01","end":"2025-12-31"},"group":[{"population":[{"code":{"coding":[{"system":"http://terminology.hl7.org/CodeSystem/measure-population","code":"initial-population","display":"Initial Population"}]},"count":0},{"code":{"coding":[{"system":"http://terminology.hl7.org/CodeSystem/measure-population","code":"denominator","display":"Denominator"}]},"count":0},{"code":{"coding":[{"system":"http://terminology.hl7.org/CodeSystem/measure-population","code":"numerator","display":"Numerator"}]},"count":0}]}]},"request":{"method":"PUT","url":"MeasureReport/268ec9f6-5035-4158-a3d9-54d63d95209d"}}]}