{
  "resourceType": "Bundle",
  "id": "62991d3a7a44a0aa07bda8df",
  "type": "transaction",
  "entry": [ {
    "fullUrl": "https://madie.cms.gov/Patient/4131c992-2a49-4b45-a61b-f34ea9b4ddfd",
    "resource": {
      "resourceType": "Patient",
      "id": "4131c992-2a49-4b45-a61b-f34ea9b4ddfd",
      "meta": {
        "profile": [ "http://hl7.org/fhir/us/qicore/StructureDefinition/qicore-patient" ]
      },
      "extension": [ {
        "url": "http://hl7.org/fhir/us/core/StructureDefinition/us-core-race",
        "extension": [ {
          "url": "ombCategory",
          "valueCoding": {
            "system": "urn:oid:2.16.840.1.113883.6.238",
            "code": "1002-5",
            "display": "American Indian or Alaska Native",
            "userSelected": true
          }
        }, {
          "url": "text",
          "valueString": "American Indian or Alaska Native"
        }, {
          "url": "detailed",
          "valueCoding": {
            "system": "urn:oid:2.16.840.1.113883.6.238",
            "code": "1653-5",
            "display": "Tohono O'Odham"
          }
        } ]
      }, {
        "url": "http://hl7.org/fhir/us/core/StructureDefinition/us-core-ethnicity",
        "extension": [ {
          "url": "ombCategory",
          "valueCoding": {
            "system": "urn:oid:2.16.840.1.113883.6.238",
            "code": "2135-2",
            "display": "Hispanic or Latino",
            "userSelected": true
          }
        }, {
          "url": "text",
          "valueString": "Hispanic or Latino"
        }, {
          "url": "detailed",
          "valueCoding": {
            "system": "urn:oid:2.16.840.1.113883.6.238",
            "code": "2153-5",
            "display": "Mexican American Indian"
          }
        } ]
      } ],
      "identifier": [ {
        "type": {
          "coding": [ {
            "system": "http://terminology.hl7.org/CodeSystem/v2-0203",
            "code": "MR"
          } ]
        },
        "system": "https://bonnie-fhir.healthit.gov/",
        "value": "62991d3a7a44a0aa07bda8df"
      } ],
      "name": [ {
        "family": "NUMERPass",
        "given": [ "NoBoneScan" ]
      } ],
      "gender": "male",
      "birthDate": "1986-06-27"
    },
    "request": {
      "method": "POST",
      "url": "Patient/4131c992-2a49-4b45-a61b-f34ea9b4ddfd"
    }
  }, {
    "fullUrl": "https://madie.cms.gov/Condition/prostate-cancer-a8e0",
    "resource": {
      "resourceType": "Condition",
      "id": "prostate-cancer-a8e0",
      "meta": {
        "profile": [ "http://hl7.org/fhir/us/qicore/StructureDefinition/qicore-condition" ]
      },
      "clinicalStatus": {
        "coding": [ {
          "system": "http://terminology.hl7.org/CodeSystem/condition-clinical",
          "code": "active",
          "display": "active",
          "userSelected": true
        } ]
      },
      "category": [ {
        "coding": [ {
          "system": "http://terminology.hl7.org/CodeSystem/condition-category",
          "code": "problem-list-item",
          "display": "Problem List Item"
        }, {
          "system": "http://snomed.info/sct",
          "code": "439401001",
          "display": "Diagnosis"
        } ]
      } ],
      "code": {
        "coding": [ {
          "system": "http://snomed.info/sct",
          "version": "2022-03",
          "code": "254900004",
          "display": "Carcinoma of prostate (disorder)",
          "userSelected": true
        } ]
      },
      "subject": {
        "reference": "Patient/4131c992-2a49-4b45-a61b-f34ea9b4ddfd"
      },
      "onsetDateTime": "2025-01-07T08:00:00.000+00:00",
      "recordedDate": "2025-06-02T08:00:00.000+00:00"
    },
    "request": {
      "method": "POST",
      "url": "Condition/prostate-cancer-a8e0"
    }
  }, {
    "fullUrl": "https://madie.cms.gov/Procedure/prostate-cancer-treatment-a8e1",
    "resource": {
      "resourceType": "Procedure",
      "id": "prostate-cancer-treatment-a8e1",
      "meta": {
        "profile": [ "http://hl7.org/fhir/us/qicore/StructureDefinition/qicore-procedure" ]
      },
      "extension": [ {
        "url": "http://hl7.org/fhir/us/qicore/StructureDefinition/qicore-recorded",
        "valueDateTime": "2025-02-01T09:00:00.000+00:00"
      } ],
      "status": "completed",
      "code": {
        "coding": [ {
          "system": "http://snomed.info/sct",
          "version": "2022-03",
          "code": "10492003",
          "display": "Radionuclide therapy for glandular suppression (procedure)",
          "userSelected": true
        } ]
      },
      "subject": {
        "reference": "Patient/4131c992-2a49-4b45-a61b-f34ea9b4ddfd"
      },
      "performedDateTime": "2025-06-02T08:00:00.000+00:00"
    },
    "request": {
      "method": "POST",
      "url": "Procedure/prostate-cancer-treatment-a8e1"
    }
  }, {
    "fullUrl": "https://madie.cms.gov/Observation/prostate-specific-antigen-test-a8e2",
    "resource": {
      "resourceType": "Observation",
      "id": "prostate-specific-antigen-test-a8e2",
      "meta": {
        "profile": [ "http://hl7.org/fhir/us/qicore/StructureDefinition/qicore-observation" ]
      },
      "status": "final",
      "category": [ {
        "coding": [ {
          "system": "http://terminology.hl7.org/CodeSystem/observation-category",
          "code": "procedure",
          "display": "Procedure"
        } ]
      } ],
      "code": {
        "coding": [ {
          "system": "http://loinc.org",
          "version": "2.72",
          "code": "2857-1",
          "display": "Prostate specific Ag [Mass/volume] in Serum or Plasma",
          "userSelected": true
        } ]
      },
      "subject": {
        "reference": "Patient/4131c992-2a49-4b45-a61b-f34ea9b4ddfd"
      },
      "effectiveDateTime": "2025-01-07T08:00:00.000+00:00",
      "issued": "2025-04-02T08:00:00.000+00:00",
      "valueQuantity": {
        "value": 8.0,
        "system": "http://unitsofmeasure.org",
        "code": "ng/mL"
      }
    },
    "request": {
      "method": "POST",
      "url": "Observation/prostate-specific-antigen-test-a8e2"
    }
  }, {
    "fullUrl": "https://madie.cms.gov/Observation/gleason-score-in-specimen-qualitative-a8e3",
    "resource": {
      "resourceType": "Observation",
      "id": "gleason-score-in-specimen-qualitative-a8e3",
      "meta": {
        "profile": [ "http://hl7.org/fhir/us/qicore/StructureDefinition/qicore-observation" ]
      },
      "status": "final",
      "category": [ {
        "coding": [ {
          "system": "http://terminology.hl7.org/CodeSystem/observation-category",
          "code": "procedure",
          "display": "Procedure"
        } ]
      } ],
      "code": {
        "coding": [ {
          "system": "http://loinc.org",
          "code": "35266-6",
          "display": "Gleason score in Specimen Qualitative",
          "userSelected": true
        } ]
      },
      "subject": {
        "reference": "Patient/4131c992-2a49-4b45-a61b-f34ea9b4ddfd"
      },
      "effectivePeriod": {
        "start": "2025-04-02T08:00:00.000+00:00"
      },
      "issued": "2025-04-02T08:00:00.000+00:00",
      "valueInteger": 5
    },
    "request": {
      "method": "POST",
      "url": "Observation/gleason-score-in-specimen-qualitative-a8e3"
    }
  }, {
    "fullUrl": "https://madie.cms.gov/Observation/tumor-staging-tumor-staging-a8e4",
    "resource": {
      "resourceType": "Observation",
      "id": "tumor-staging-tumor-staging-a8e4",
      "meta": {
        "profile": [ "http://hl7.org/fhir/us/qicore/StructureDefinition/qicore-observation" ]
      },
      "status": "final",
      "category": [ {
        "coding": [ {
          "system": "http://terminology.hl7.org/CodeSystem/observation-category",
          "code": "procedure",
          "display": "Procedure"
        } ]
      } ],
      "code": {
        "coding": [ {
          "system": "http://snomed.info/sct",
          "code": "254292007",
          "display": "Tumor staging (tumor staging)",
          "userSelected": true
        } ]
      },
      "subject": {
        "reference": "Patient/4131c992-2a49-4b45-a61b-f34ea9b4ddfd"
      },
      "effectivePeriod": {
        "start": "2025-02-07T08:00:00.000+00:00"
      },
      "issued": "2025-02-02T08:00:00.000+00:00",
      "valueCodeableConcept": {
        "coding": [ {
          "system": "http://snomed.info/sct",
          "code": "369834001",
          "display": "T1b: Prostate tumor incidental histologic finding in > 5% of tissue resected (finding)",
          "userSelected": true
        } ]
      }
    },
    "request": {
      "method": "POST",
      "url": "Observation/tumor-staging-tumor-staging-a8e4"
    }
  }, {
    "fullUrl": "https://madie.cms.gov/Coverage/1",
    "resource": {
      "resourceType": "Coverage",
      "id": "1",
      "meta": {
        "profile": [ "http://hl7.org/fhir/us/qicore/StructureDefinition/qicore-coverage" ]
      },
      "status": "active",
      "type": {
        "coding": [ {
          "system": "https://nahdo.org/sopt",
          "code": "1",
          "display": "MEDICARE"
        } ]
      },
      "beneficiary": {
        "reference": "Patient/4131c992-2a49-4b45-a61b-f34ea9b4ddfd"
      },
      "period": {
        "start": "2023-12-01T00:00:00+00:00"
      },
      "payor": [ {
        "reference": "Organization/123456"
      } ]
    },
    "request": {
      "method": "POST",
      "url": "Coverage/1"
    }
  }, {
    "fullUrl": "https://madie.cms.gov/Organization/123456",
    "resource": {
      "resourceType": "Organization",
      "id": "123456",
      "meta": {
        "profile": [ "http://hl7.org/fhir/us/qicore/StructureDefinition/qicore-organization" ]
      },
      "identifier": [ {
        "use": "temp",
        "system": "urn:oid:2.16.840.1.113883.4.4",
        "value": "21-3259825"
      } ],
      "active": true,
      "type": [ {
        "coding": [ {
          "system": "http://terminology.hl7.org/CodeSystem/organization-type",
          "code": "pay",
          "display": "Payer"
        } ]
      } ],
      "name": "Blue Cross Blue Shield of Texas",
      "telecom": [ {
        "system": "phone",
        "value": "(+1) 972-766-6900"
      } ],
      "address": [ {
        "use": "billing",
        "type": "postal",
        "line": [ "P.O. Box 660044" ],
        "city": "Dallas",
        "state": "TX",
        "postalCode": "75266-0044",
        "country": "USA"
      } ]
    },
    "request": {
      "method": "POST",
      "url": "Organization/123456"
    }
  }, {
    "fullUrl": "https://madie.cms.gov/Practitioner/practitioner-123456",
    "resource": {
      "resourceType": "Practitioner",
      "id": "practitioner-123456",
      "meta": {
        "profile": [ "http://hl7.org/fhir/us/qicore/StructureDefinition/qicore-practitioner" ]
      },
      "identifier": [ {
        "system": "http://hl7.org/fhir/sid/us-npi",
        "value": "123456"
      } ],
      "name": [ {
        "family": "Evil",
        "prefix": [ "Dr" ]
      } ]
    },
    "request": {
      "method": "POST",
      "url": "Practitioner/practitioner-123456"
    }
  }, {
    "fullUrl": "https://madie.cms.gov/MeasureReport/e22cf4d7-11ff-4872-b7f4-9f6836d7d523",
    "resource": {
      "resourceType": "MeasureReport",
      "id": "e22cf4d7-11ff-4872-b7f4-9f6836d7d523",
      "meta": {
        "profile": [ "http://hl7.org/fhir/us/cqfmeasures/StructureDefinition/test-case-cqfm" ]
      },
      "contained": [ {
        "resourceType": "Parameters",
        "id": "18ee2613-6e1e-4108-b503-a3c4927bbea8-parameters",
        "parameter": [ {
          "name": "subject",
          "valueString": "4131c992-2a49-4b45-a61b-f34ea9b4ddfd"
        } ]
      } ],
      "extension": [ {
        "url": "http://hl7.org/fhir/us/cqfmeasures/StructureDefinition/cqfm-inputParameters",
        "valueReference": {
          "reference": "#18ee2613-6e1e-4108-b503-a3c4927bbea8-parameters"
        }
      }, {
        "url": "http://hl7.org/fhir/us/cqfmeasures/StructureDefinition/cqfm-testCaseDescription",
        "valueMarkdown": "Patient with prostate cancer diagnosis and no bone scan performed. SDE details added to JSON. \n"
      } ],
      "modifierExtension": [ {
        "url": "http://hl7.org/fhir/us/cqfmeasures/StructureDefinition/cqfm-isTestCase",
        "valueBoolean": true
      } ],
      "status": "complete",
      "type": "individual",
      "measure": "https://madie.cms.gov/Measure/ProstateCaAvoidanceBoneScanOveruseFHIR",
      "period": {
        "start": "2025-01-01",
        "end": "2025-12-31"
      },
      "group": [ {
        "population": [ {
          "code": {
            "coding": [ {
              "system": "http://terminology.hl7.org/CodeSystem/measure-population",
              "code": "initial-population",
              "display": "Initial Population"
            } ]
          },
          "count": 1
        }, {
          "code": {
            "coding": [ {
              "system": "http://terminology.hl7.org/CodeSystem/measure-population",
              "code": "denominator",
              "display": "Denominator"
            } ]
          },
          "count": 1
        }, {
          "code": {
            "coding": [ {
              "system": "http://terminology.hl7.org/CodeSystem/measure-population",
              "code": "numerator",
              "display": "Numerator"
            } ]
          },
          "count": 1
        }, {
          "code": {
            "coding": [ {
              "system": "http://terminology.hl7.org/CodeSystem/measure-population",
              "code": "denominator-exception",
              "display": "Denominator Exception"
            } ]
          },
          "count": 0
        } ]
      } ],
      "evaluatedResource": [ {
        "reference": "https://madie.cms.gov/Patient/4131c992-2a49-4b45-a61b-f34ea9b4ddfd"
      }, {
        "reference": "https://madie.cms.gov/Condition/prostate-cancer-a8e0"
      }, {
        "reference": "https://madie.cms.gov/Procedure/prostate-cancer-treatment-a8e1"
      }, {
        "reference": "https://madie.cms.gov/Observation/prostate-specific-antigen-test-a8e2"
      }, {
        "reference": "https://madie.cms.gov/Observation/gleason-score-in-specimen-qualitative-a8e3"
      }, {
        "reference": "https://madie.cms.gov/Observation/tumor-staging-tumor-staging-a8e4"
      }, {
        "reference": "https://madie.cms.gov/Coverage/1"
      }, {
        "reference": "https://madie.cms.gov/Organization/123456"
      }, {
        "reference": "https://madie.cms.gov/Practitioner/practitioner-123456"
      } ]
    },
    "request": {
      "method": "POST",
      "url": "MeasureReport/e22cf4d7-11ff-4872-b7f4-9f6836d7d523"
    }
  } ]
}