{
  "resourceType": "Bundle",
  "id": "NUMERPASS-LongActMedAdminStarts13DaysAfterEpisode",
  "type": "transaction",
  "entry": [ {
    "fullUrl": "https://madie.cms.gov/Patient/6d2606b6-f8f8-4c21-a069-ff0b32d0727a",
    "resource": {
      "resourceType": "Patient",
      "id": "6d2606b6-f8f8-4c21-a069-ff0b32d0727a",
      "meta": {
        "profile": [ "http://hl7.org/fhir/us/qicore/StructureDefinition/qicore-patient" ]
      },
      "extension": [ {
        "url": "http://hl7.org/fhir/us/core/StructureDefinition/us-core-race",
        "extension": [ {
          "url": "ombCategory",
          "valueCoding": {
            "system": "urn:oid:2.16.840.1.113883.6.238",
            "code": "2028-9",
            "display": "Asian",
            "userSelected": true
          }
        }, {
          "url": "text",
          "valueString": "Asian"
        } ]
      }, {
        "url": "http://hl7.org/fhir/us/core/StructureDefinition/us-core-ethnicity",
        "extension": [ {
          "url": "ombCategory",
          "valueCoding": {
            "system": "urn:oid:2.16.840.1.113883.6.238",
            "code": "2135-2",
            "display": "Hispanic or Latino",
            "userSelected": true
          }
        }, {
          "url": "text",
          "valueString": "Hispanic or Latino"
        } ]
      } ],
      "identifier": [ {
        "type": {
          "coding": [ {
            "system": "http://terminology.hl7.org/CodeSystem/v2-0203",
            "code": "MR"
          } ]
        },
        "system": "http://hospital.smarthealthit.org",
        "value": "999999995"
      } ],
      "name": [ {
        "family": "Bertha",
        "given": [ "Betty" ]
      } ],
      "gender": "female",
      "birthDate": "2012-01-01"
    },
    "request": {
      "method": "POST",
      "url": "Patient/6d2606b6-f8f8-4c21-a069-ff0b32d0727a"
    }
  }, {
    "fullUrl": "https://madie.cms.gov/Condition/Condition-1",
    "resource": {
      "resourceType": "Condition",
      "id": "Condition-1",
      "meta": {
        "profile": [ "http://hl7.org/fhir/us/qicore/StructureDefinition/qicore-condition" ]
      },
      "clinicalStatus": {
        "coding": [ {
          "system": "http://terminology.hl7.org/CodeSystem/condition-clinical",
          "code": "active"
        } ]
      },
      "category": [ {
        "coding": [ {
          "system": "http://terminology.hl7.org/CodeSystem/condition-category",
          "code": "problem-list-item",
          "display": "Problem List Item"
        } ]
      } ],
      "code": {
        "coding": [ {
          "system": "http://hl7.org/fhir/sid/icd-10-cm",
          "code": "F10.10",
          "display": "Alcohol abuse, uncomplicated"
        } ]
      },
      "subject": {
        "reference": "Patient/6d2606b6-f8f8-4c21-a069-ff0b32d0727a"
      },
      "onsetDateTime": "2025-11-12T08:00:00.000Z"
    },
    "request": {
      "method": "POST",
      "url": "Condition/Condition-1"
    }
  }, {
    "fullUrl": "https://madie.cms.gov/Encounter/Encounter-1",
    "resource": {
      "resourceType": "Encounter",
      "id": "Encounter-1",
      "meta": {
        "profile": [ "http://hl7.org/fhir/us/qicore/StructureDefinition/qicore-encounter" ]
      },
      "status": "finished",
      "class": {
        "system": "http://terminology.hl7.org/CodeSystem/v3-ActCode",
        "code": "AMB",
        "display": "ambulatory"
      },
      "type": [ {
        "coding": [ {
          "system": "http://www.ama-assn.org/go/cpt",
          "code": "99202",
          "display": "Office or other outpatient visit for the evaluation and management of a new patient, which requires a medically appropriate history and/or examination and straightforward medical decision making. When using total time on the date of the encounter for code selection, 15 minutes must be met or exceeded."
        } ]
      } ],
      "subject": {
        "reference": "Patient/6d2606b6-f8f8-4c21-a069-ff0b32d0727a"
      },
      "period": {
        "start": "2025-11-12T08:00:00.000Z",
        "end": "2025-11-12T09:00:00.000Z"
      }
    },
    "request": {
      "method": "POST",
      "url": "Encounter/Encounter-1"
    }
  }, {
    "fullUrl": "https://madie.cms.gov/Procedure/Procedure-1",
    "resource": {
      "resourceType": "Procedure",
      "id": "Procedure-1",
      "meta": {
        "profile": [ "http://hl7.org/fhir/us/qicore/StructureDefinition/qicore-procedure" ]
      },
      "extension": [ {
        "url": "http://hl7.org/fhir/us/qicore/StructureDefinition/qicore-recorded",
        "valueDateTime": "2025-11-25T00:00:00.000Z"
      } ],
      "status": "completed",
      "code": {
        "coding": [ {
          "system": "http://www.nlm.nih.gov/research/umls/hcpcs",
          "code": "S0109",
          "display": "Methadone, oral, 5 mg"
        } ]
      },
      "subject": {
        "reference": "Patient/6d2606b6-f8f8-4c21-a069-ff0b32d0727a"
      },
      "performedPeriod": {
        "start": "2025-11-25T00:00:00.000Z",
        "end": "2025-11-25T00:00:00.000Z"
      }
    },
    "request": {
      "method": "POST",
      "url": "Procedure/Procedure-1"
    }
  }, {
    "fullUrl": "https://madie.cms.gov/MeasureReport/f4afe9d2-261b-4862-8e3f-0b3cba538b41",
    "resource": {
      "resourceType": "MeasureReport",
      "id": "f4afe9d2-261b-4862-8e3f-0b3cba538b41",
      "meta": {
        "profile": [ "http://hl7.org/fhir/us/cqfmeasures/StructureDefinition/test-case-cqfm" ]
      },
      "contained": [ {
        "resourceType": "Parameters",
        "id": "6adc74d8-0238-4888-99e8-0107bde013a0-parameters",
        "parameter": [ {
          "name": "subject",
          "valueString": "6d2606b6-f8f8-4c21-a069-ff0b32d0727a"
        } ]
      } ],
      "extension": [ {
        "url": "http://hl7.org/fhir/us/cqfmeasures/StructureDefinition/cqfm-inputParameters",
        "valueReference": {
          "reference": "#6adc74d8-0238-4888-99e8-0107bde013a0-parameters"
        }
      }, {
        "url": "http://hl7.org/fhir/us/cqfmeasures/StructureDefinition/cqfm-testCaseDescription",
        "valueMarkdown": "Treatment initiation with long acting medication administration intervention starts 13 days after episode."
      } ],
      "modifierExtension": [ {
        "url": "http://hl7.org/fhir/us/cqfmeasures/StructureDefinition/cqfm-isTestCase",
        "valueBoolean": true
      } ],
      "status": "complete",
      "type": "individual",
      "measure": "https://madie.cms.gov/Measure/InitiationandEngagementofSubstanceUseDisorderTreatmentFHIR",
      "period": {
        "start": "2025-01-01",
        "end": "2025-12-31"
      },
      "group": [ {
        "population": [ {
          "code": {
            "coding": [ {
              "system": "http://terminology.hl7.org/CodeSystem/measure-population",
              "code": "initial-population",
              "display": "Initial Population"
            } ]
          },
          "count": 1
        }, {
          "code": {
            "coding": [ {
              "system": "http://terminology.hl7.org/CodeSystem/measure-population",
              "code": "denominator",
              "display": "Denominator"
            } ]
          },
          "count": 1
        }, {
          "code": {
            "coding": [ {
              "system": "http://terminology.hl7.org/CodeSystem/measure-population",
              "code": "denominator-exclusion",
              "display": "Denominator Exclusion"
            } ]
          },
          "count": 0
        }, {
          "code": {
            "coding": [ {
              "system": "http://terminology.hl7.org/CodeSystem/measure-population",
              "code": "numerator",
              "display": "Numerator"
            } ]
          },
          "count": 1
        } ]
      }, {
        "population": [ {
          "code": {
            "coding": [ {
              "system": "http://terminology.hl7.org/CodeSystem/measure-population",
              "code": "initial-population",
              "display": "Initial Population"
            } ]
          },
          "count": 1
        }, {
          "code": {
            "coding": [ {
              "system": "http://terminology.hl7.org/CodeSystem/measure-population",
              "code": "denominator",
              "display": "Denominator"
            } ]
          },
          "count": 1
        }, {
          "code": {
            "coding": [ {
              "system": "http://terminology.hl7.org/CodeSystem/measure-population",
              "code": "denominator-exclusion",
              "display": "Denominator Exclusion"
            } ]
          },
          "count": 0
        }, {
          "code": {
            "coding": [ {
              "system": "http://terminology.hl7.org/CodeSystem/measure-population",
              "code": "numerator",
              "display": "Numerator"
            } ]
          },
          "count": 0
        } ]
      } ],
      "evaluatedResource": [ {
        "reference": "https://madie.cms.gov/Patient/6d2606b6-f8f8-4c21-a069-ff0b32d0727a"
      }, {
        "reference": "https://madie.cms.gov/Condition/Condition-1"
      }, {
        "reference": "https://madie.cms.gov/Encounter/Encounter-1"
      }, {
        "reference": "https://madie.cms.gov/Procedure/Procedure-1"
      } ]
    },
    "request": {
      "method": "POST",
      "url": "MeasureReport/f4afe9d2-261b-4862-8e3f-0b3cba538b41"
    }
  } ]
}