{
  "resourceType": "Bundle",
  "id": "Patient-53-DENEXPass-LeftOophorectomyDurMP",
  "type": "transaction",
  "entry": [ {
    "fullUrl": "https://madie.cms.gov/Patient/d21af7a9-fd8a-4f0a-9759-368bd775c737",
    "resource": {
      "resourceType": "Patient",
      "id": "d21af7a9-fd8a-4f0a-9759-368bd775c737",
      "meta": {
        "profile": [ "http://hl7.org/fhir/us/qicore/StructureDefinition/qicore-patient" ]
      },
      "extension": [ {
        "url": "http://hl7.org/fhir/us/core/StructureDefinition/us-core-race",
        "extension": [ {
          "url": "ombCategory",
          "valueCoding": {
            "system": "urn:oid:2.16.840.1.113883.6.238",
            "code": "2028-9",
            "display": "Asian",
            "userSelected": true
          }
        }, {
          "url": "text",
          "valueString": "Asian"
        } ]
      }, {
        "url": "http://hl7.org/fhir/us/core/StructureDefinition/us-core-ethnicity",
        "extension": [ {
          "url": "ombCategory",
          "valueCoding": {
            "system": "urn:oid:2.16.840.1.113883.6.238",
            "code": "2135-2",
            "display": "Hispanic or Latino",
            "userSelected": true
          }
        }, {
          "url": "text",
          "valueString": "Hispanic or Latino"
        } ]
      } ],
      "identifier": [ {
        "type": {
          "coding": [ {
            "system": "http://terminology.hl7.org/CodeSystem/v2-0203",
            "code": "MR"
          } ]
        },
        "system": "http://hospital.smarthealthit.org",
        "value": "999999995"
      } ],
      "name": [ {
        "family": "Bertha",
        "given": [ "Betty" ]
      } ],
      "gender": "female",
      "birthDate": "1975-01-01"
    },
    "request": {
      "method": "POST",
      "url": "Patient/d21af7a9-fd8a-4f0a-9759-368bd775c737"
    }
  }, {
    "fullUrl": "https://madie.cms.gov/Encounter/Encounter-53",
    "resource": {
      "resourceType": "Encounter",
      "id": "Encounter-53",
      "meta": {
        "profile": [ "http://hl7.org/fhir/us/qicore/StructureDefinition/qicore-encounter" ]
      },
      "status": "finished",
      "class": {
        "system": "http://terminology.hl7.org/CodeSystem/v3-ActCode",
        "code": "AMB",
        "display": "ambulatory"
      },
      "type": [ {
        "coding": [ {
          "system": "http://snomed.info/sct",
          "code": "185317003",
          "display": "Telephone encounter (procedure)"
        } ]
      } ],
      "subject": {
        "reference": "Patient/d21af7a9-fd8a-4f0a-9759-368bd775c737"
      },
      "period": {
        "start": "2025-01-01T00:00:00.000Z",
        "end": "2025-01-01T01:15:00.000Z"
      }
    },
    "request": {
      "method": "POST",
      "url": "Encounter/Encounter-53"
    }
  }, {
    "fullUrl": "https://madie.cms.gov/Procedure/Procedure-25",
    "resource": {
      "resourceType": "Procedure",
      "id": "Procedure-25",
      "meta": {
        "profile": [ "http://hl7.org/fhir/us/qicore/StructureDefinition/qicore-procedure" ]
      },
      "extension": [ {
        "url": "http://hl7.org/fhir/us/qicore/StructureDefinition/qicore-recorded",
        "valueDateTime": "2025-12-31T00:00:00.000Z"
      } ],
      "status": "completed",
      "code": {
        "coding": [ {
          "system": "http://snomed.info/sct",
          "code": "713285002",
          "display": "Prophylactic oophorectomy (procedure)"
        } ]
      },
      "subject": {
        "reference": "Patient/d21af7a9-fd8a-4f0a-9759-368bd775c737"
      },
      "performedPeriod": {
        "start": "2025-12-31T00:00:00.000Z",
        "end": "2025-12-31T23:59:00.000Z"
      },
      "bodySite": [ {
        "coding": [ {
          "system": "http://snomed.info/sct",
          "version": "2021.09.21AA",
          "code": "7771000",
          "display": "Left (qualifier value)"
        } ]
      } ]
    },
    "request": {
      "method": "POST",
      "url": "Procedure/Procedure-25"
    }
  }, {
    "fullUrl": "https://madie.cms.gov/Procedure/Procedure-26",
    "resource": {
      "resourceType": "Procedure",
      "id": "Procedure-26",
      "meta": {
        "profile": [ "http://hl7.org/fhir/us/qicore/StructureDefinition/qicore-procedure" ]
      },
      "extension": [ {
        "url": "http://hl7.org/fhir/us/qicore/StructureDefinition/qicore-recorded",
        "valueDateTime": "2025-12-31T00:00:00.000Z"
      } ],
      "status": "completed",
      "code": {
        "coding": [ {
          "system": "http://snomed.info/sct",
          "code": "302191001",
          "display": "Abdominal hysterectomy and left salpingo-oophorectomy (procedure)"
        } ]
      },
      "subject": {
        "reference": "Patient/d21af7a9-fd8a-4f0a-9759-368bd775c737"
      },
      "performedPeriod": {
        "start": "2025-12-31T00:00:00.000Z",
        "end": "2025-12-31T23:59:00.000Z"
      }
    },
    "request": {
      "method": "POST",
      "url": "Procedure/Procedure-26"
    }
  }, {
    "fullUrl": "https://madie.cms.gov/Procedure/Procedure-27",
    "resource": {
      "resourceType": "Procedure",
      "id": "Procedure-27",
      "meta": {
        "profile": [ "http://hl7.org/fhir/us/qicore/StructureDefinition/qicore-procedure" ]
      },
      "extension": [ {
        "url": "http://hl7.org/fhir/us/qicore/StructureDefinition/qicore-recorded",
        "valueDateTime": "2025-12-31T00:00:00.000Z"
      } ],
      "status": "completed",
      "code": {
        "coding": [ {
          "system": "http://snomed.info/sct",
          "code": "713285002",
          "display": "Prophylactic oophorectomy (procedure)"
        } ]
      },
      "subject": {
        "reference": "Patient/d21af7a9-fd8a-4f0a-9759-368bd775c737"
      },
      "performedPeriod": {
        "start": "2025-12-31T00:00:00.000Z",
        "end": "2025-12-31T23:59:00.000Z"
      },
      "bodySite": [ {
        "coding": [ {
          "system": "http://snomed.info/sct",
          "version": "2021.09.21AA",
          "code": "24028007",
          "display": "Right (qualifier value)"
        } ]
      } ]
    },
    "request": {
      "method": "POST",
      "url": "Procedure/Procedure-27"
    }
  }, {
    "fullUrl": "https://madie.cms.gov/MeasureReport/2a4c5a94-b3e0-4c90-b770-fb4224a69f49",
    "resource": {
      "resourceType": "MeasureReport",
      "id": "2a4c5a94-b3e0-4c90-b770-fb4224a69f49",
      "meta": {
        "profile": [ "http://hl7.org/fhir/us/cqfmeasures/StructureDefinition/test-case-cqfm" ]
      },
      "contained": [ {
        "resourceType": "Parameters",
        "id": "fab47fc5-28eb-48ed-a0f2-aba1fe31db1e-parameters",
        "parameter": [ {
          "name": "subject",
          "valueString": "d21af7a9-fd8a-4f0a-9759-368bd775c737"
        } ]
      } ],
      "extension": [ {
        "url": "http://hl7.org/fhir/us/cqfmeasures/StructureDefinition/cqfm-inputParameters",
        "valueReference": {
          "reference": "#fab47fc5-28eb-48ed-a0f2-aba1fe31db1e-parameters"
        }
      }, {
        "url": "http://hl7.org/fhir/us/cqfmeasures/StructureDefinition/cqfm-testCaseDescription",
        "valueMarkdown": "Left oophorectomy during the MP"
      } ],
      "modifierExtension": [ {
        "url": "http://hl7.org/fhir/us/cqfmeasures/StructureDefinition/cqfm-isTestCase",
        "valueBoolean": true
      } ],
      "status": "complete",
      "type": "individual",
      "measure": "https://madie.cms.gov/Measure/AppropriateDXAScansForWomenUnder65FHIR",
      "period": {
        "start": "2025-01-01",
        "end": "2025-12-31"
      },
      "group": [ {
        "population": [ {
          "code": {
            "coding": [ {
              "system": "http://terminology.hl7.org/CodeSystem/measure-population",
              "code": "initial-population",
              "display": "Initial Population"
            } ]
          },
          "count": 1
        }, {
          "code": {
            "coding": [ {
              "system": "http://terminology.hl7.org/CodeSystem/measure-population",
              "code": "denominator",
              "display": "Denominator"
            } ]
          },
          "count": 1
        }, {
          "code": {
            "coding": [ {
              "system": "http://terminology.hl7.org/CodeSystem/measure-population",
              "code": "denominator-exclusion",
              "display": "Denominator Exclusion"
            } ]
          },
          "count": 1
        }, {
          "code": {
            "coding": [ {
              "system": "http://terminology.hl7.org/CodeSystem/measure-population",
              "code": "numerator",
              "display": "Numerator"
            } ]
          },
          "count": 0
        }, {
          "code": {
            "coding": [ {
              "system": "http://terminology.hl7.org/CodeSystem/measure-population",
              "code": "numerator-exclusion",
              "display": "Numerator Exclusion"
            } ]
          },
          "count": 0
        } ]
      } ],
      "evaluatedResource": [ {
        "reference": "https://madie.cms.gov/Patient/d21af7a9-fd8a-4f0a-9759-368bd775c737"
      }, {
        "reference": "https://madie.cms.gov/Encounter/Encounter-53"
      }, {
        "reference": "https://madie.cms.gov/Procedure/Procedure-25"
      }, {
        "reference": "https://madie.cms.gov/Procedure/Procedure-26"
      }, {
        "reference": "https://madie.cms.gov/Procedure/Procedure-27"
      } ]
    },
    "request": {
      "method": "POST",
      "url": "MeasureReport/2a4c5a94-b3e0-4c90-b770-fb4224a69f49"
    }
  } ]
}