{
  "resourceType": "Bundle",
  "id": "610965b998086b538055c15d",
  "type": "transaction",
  "entry": [ {
    "fullUrl": "https://madie.cms.gov/Patient/6ccb42f9-af10-44fd-bb63-e29f00238a11",
    "resource": {
      "resourceType": "Patient",
      "id": "6ccb42f9-af10-44fd-bb63-e29f00238a11",
      "meta": {
        "profile": [ "http://hl7.org/fhir/us/qicore/StructureDefinition/qicore-patient" ]
      },
      "text": {
        "status": "generated",
        "div": "<div xmlns=\"http://www.w3.org/1999/xhtml\"><div class=\"hapiHeaderText\">LabTestHIVDxDuringMPrelevantPeriod <b>NUMERPASS </b></div><table class=\"hapiPropertyTable\"><tbody><tr><td>Date of birth</td><td><span>31 July 1992</span></td></tr></tbody></table></div>"
      },
      "extension": [ {
        "url": "http://hl7.org/fhir/us/core/StructureDefinition/us-core-race",
        "extension": [ {
          "url": "ombCategory",
          "valueCoding": {
            "system": "urn:oid:2.16.840.1.113883.6.238",
            "code": "1002-5",
            "display": "American Indian or Alaska Native",
            "userSelected": true
          }
        }, {
          "url": "text",
          "valueString": "American Indian or Alaska Native"
        }, {
          "url": "detailed",
          "valueCoding": {
            "system": "urn:oid:2.16.840.1.113883.6.238",
            "code": "1653-5",
            "display": "Tohono O'Odham"
          }
        } ]
      }, {
        "url": "http://hl7.org/fhir/us/core/StructureDefinition/us-core-ethnicity",
        "extension": [ {
          "url": "ombCategory",
          "valueCoding": {
            "system": "urn:oid:2.16.840.1.113883.6.238",
            "code": "2135-2",
            "display": "Hispanic or Latino",
            "userSelected": true
          }
        }, {
          "url": "text",
          "valueString": "Not Hispanic or Latino"
        }, {
          "url": "detailed",
          "valueCoding": {
            "system": "urn:oid:2.16.840.1.113883.6.238",
            "code": "2153-5",
            "display": "Mexican American Indian"
          }
        } ]
      } ],
      "identifier": [ {
        "type": {
          "coding": [ {
            "system": "http://terminology.hl7.org/CodeSystem/v2-0203",
            "code": "MR"
          } ]
        },
        "system": "https://bonnie-fhir.healthit.gov/",
        "value": "610965b998086b538055c15d"
      } ],
      "active": true,
      "name": [ {
        "use": "usual",
        "family": "NUMERPass",
        "given": [ "LabTestHIVDxDuringMPrelevantPeriod" ]
      } ],
      "gender": "male",
      "birthDate": "1993-07-31"
    },
    "request": {
      "method": "POST",
      "url": "Patient/6ccb42f9-af10-44fd-bb63-e29f00238a11"
    }
  }, {
    "fullUrl": "https://madie.cms.gov/Condition/5e5966f59ec84a00005dbc9a",
    "resource": {
      "resourceType": "Condition",
      "id": "5e5966f59ec84a00005dbc9a",
      "meta": {
        "profile": [ "http://hl7.org/fhir/us/qicore/StructureDefinition/qicore-condition" ]
      },
      "clinicalStatus": {
        "coding": [ {
          "system": "http://terminology.hl7.org/CodeSystem/condition-clinical",
          "code": "inactive",
          "display": "inactive",
          "userSelected": true
        } ]
      },
      "verificationStatus": {
        "coding": [ {
          "system": "http://terminology.hl7.org/CodeSystem/condition-ver-status",
          "code": "confirmed",
          "display": "Confirmed",
          "userSelected": true
        } ]
      },
      "category": [ {
        "coding": [ {
          "system": "http://terminology.hl7.org/CodeSystem/condition-category",
          "code": "encounter-diagnosis",
          "display": "Encounter Diagnosis",
          "userSelected": true
        } ]
      } ],
      "code": {
        "coding": [ {
          "system": "http://hl7.org/fhir/sid/icd-9-cm",
          "code": "042"
        } ]
      },
      "subject": {
        "reference": "Patient/6ccb42f9-af10-44fd-bb63-e29f00238a11"
      },
      "onsetDateTime": "2025-07-31T08:00:00.000+00:00",
      "abatementDateTime": "2025-10-24T08:00:00.000+00:00"
    },
    "request": {
      "method": "POST",
      "url": "Condition/5e5966f59ec84a00005dbc9a"
    }
  }, {
    "fullUrl": "https://madie.cms.gov/Encounter/5dd6b917eeabfe0000a7c490",
    "resource": {
      "resourceType": "Encounter",
      "id": "5dd6b917eeabfe0000a7c490",
      "meta": {
        "profile": [ "http://hl7.org/fhir/us/qicore/StructureDefinition/qicore-encounter" ]
      },
      "status": "finished",
      "class": {
        "system": "http://terminology.hl7.org/CodeSystem/v3-ActCode",
        "code": "AMB",
        "display": "ambulatory",
        "userSelected": true
      },
      "type": [ {
        "coding": [ {
          "system": "http://www.ama-assn.org/go/cpt",
          "code": "99215"
        } ]
      } ],
      "subject": {
        "reference": "Patient/6ccb42f9-af10-44fd-bb63-e29f00238a11"
      },
      "period": {
        "start": "2025-10-24T08:00:00.000+00:00",
        "end": "2025-10-24T08:15:00.000+00:00"
      }
    },
    "request": {
      "method": "POST",
      "url": "Encounter/5dd6b917eeabfe0000a7c490"
    }
  }, {
    "fullUrl": "https://madie.cms.gov/Observation/5dd6b9a7eeabfe0000a7c4f5",
    "resource": {
      "resourceType": "Observation",
      "id": "5dd6b9a7eeabfe0000a7c4f5",
      "meta": {
        "profile": [ "http://hl7.org/fhir/us/qicore/StructureDefinition/qicore-observation" ]
      },
      "status": "final",
      "category": [ {
        "coding": [ {
          "system": "http://terminology.hl7.org/CodeSystem/observation-category",
          "code": "laboratory",
          "display": "Laboratory",
          "userSelected": true
        } ]
      } ],
      "code": {
        "coding": [ {
          "system": "http://loinc.org",
          "code": "75622-1"
        } ]
      },
      "subject": {
        "reference": "Patient/6ccb42f9-af10-44fd-bb63-e29f00238a11"
      },
      "effectivePeriod": {
        "start": "2024-07-31T08:00:00.000+00:00",
        "end": "2024-07-31T08:15:00.000+00:00"
      },
      "valueBoolean": true
    },
    "request": {
      "method": "POST",
      "url": "Observation/5dd6b9a7eeabfe0000a7c4f5"
    }
  }, {
    "fullUrl": "https://madie.cms.gov/MeasureReport/95e24c6e-4eec-4fc5-8bc8-3bddb3d5e03e",
    "resource": {
      "resourceType": "MeasureReport",
      "id": "95e24c6e-4eec-4fc5-8bc8-3bddb3d5e03e",
      "meta": {
        "profile": [ "http://hl7.org/fhir/us/cqfmeasures/StructureDefinition/test-case-cqfm" ]
      },
      "contained": [ {
        "resourceType": "Parameters",
        "id": "3aaad24c-0ff0-4069-b51a-181e41d18903-parameters",
        "parameter": [ {
          "name": "subject",
          "valueString": "6ccb42f9-af10-44fd-bb63-e29f00238a11"
        } ]
      } ],
      "extension": [ {
        "url": "http://hl7.org/fhir/us/cqfmeasures/StructureDefinition/cqfm-inputParameters",
        "valueReference": {
          "reference": "#3aaad24c-0ff0-4069-b51a-181e41d18903-parameters"
        }
      }, {
        "url": "http://hl7.org/fhir/us/cqfmeasures/StructureDefinition/cqfm-testCaseDescription",
        "valueMarkdown": "Patient 31 at start of MP, qual encounter during MP, HIV diagnosis starts during MP, invalid lab test at 20 during MP. - relevantPeriod"
      } ],
      "modifierExtension": [ {
        "url": "http://hl7.org/fhir/us/cqfmeasures/StructureDefinition/cqfm-isTestCase",
        "valueBoolean": true
      } ],
      "status": "complete",
      "type": "individual",
      "measure": "https://madie.cms.gov/Measure/HIVScreeningFHIR",
      "period": {
        "start": "2025-01-01",
        "end": "2025-12-31"
      },
      "group": [ {
        "population": [ {
          "code": {
            "coding": [ {
              "system": "http://terminology.hl7.org/CodeSystem/measure-population",
              "code": "initial-population",
              "display": "Initial Population"
            } ]
          },
          "count": 1
        }, {
          "code": {
            "coding": [ {
              "system": "http://terminology.hl7.org/CodeSystem/measure-population",
              "code": "denominator",
              "display": "Denominator"
            } ]
          },
          "count": 1
        }, {
          "code": {
            "coding": [ {
              "system": "http://terminology.hl7.org/CodeSystem/measure-population",
              "code": "denominator-exclusion",
              "display": "Denominator Exclusion"
            } ]
          },
          "count": 0
        }, {
          "code": {
            "coding": [ {
              "system": "http://terminology.hl7.org/CodeSystem/measure-population",
              "code": "numerator",
              "display": "Numerator"
            } ]
          },
          "count": 1
        } ]
      } ],
      "evaluatedResource": [ {
        "reference": "Patient/6ccb42f9-af10-44fd-bb63-e29f00238a11"
      }, {
        "reference": "Condition/5e5966f59ec84a00005dbc9a"
      }, {
        "reference": "Encounter/5dd6b917eeabfe0000a7c490"
      }, {
        "reference": "Observation/5dd6b9a7eeabfe0000a7c4f5"
      } ]
    },
    "request": {
      "method": "POST",
      "url": "MeasureReport/95e24c6e-4eec-4fc5-8bc8-3bddb3d5e03e"
    }
  } ]
}