{"resourceType":"Bundle","id":"tests-4fa862e7-beac-4a7d-b053-f54afb689dc9-bundle","type":"transaction","entry":[{"fullUrl":"https://madie.cms.gov/Patient/4fa862e7-beac-4a7d-b053-f54afb689dc9","resource":{"resourceType":"Patient","id":"4fa862e7-beac-4a7d-b053-f54afb689dc9","meta":{"profile":["http://hl7.org/fhir/us/qicore/StructureDefinition/qicore-patient"]},"extension":[{"url":"http://hl7.org/fhir/us/core/StructureDefinition/us-core-race","extension":[{"url":"ombCategory","valueCoding":{"system":"urn:oid:2.16.840.1.113883.6.238","code":"1002-5","display":"American Indian or Alaska Native","userSelected":true}},{"url":"text","valueString":"American Indian or Alaska Native"}]},{"url":"http://hl7.org/fhir/us/core/StructureDefinition/us-core-ethnicity","extension":[{"url":"ombCategory","valueCoding":{"system":"urn:oid:2.16.840.1.113883.6.238","code":"2135-2","display":"Hispanic or Latino","userSelected":true}},{"url":"text","valueString":"Hispanic or Latino"}]}],"identifier":[{"type":{"coding":[{"system":"http://terminology.hl7.org/CodeSystem/v2-0203","code":"MR"}]},"system":"https://bonnie-fhir.healthit.gov/","value":"62cdd64162b2323a168e975e"}],"name":[{"family":"NUMERFail","given":["SystolicNoDiastolic"]}],"gender":"male","birthDate":"1974-12-31"},"request":{"method":"PUT","url":"Patient/4fa862e7-beac-4a7d-b053-f54afb689dc9"}},{"fullUrl":"https://madie.cms.gov/Encounter/encounter-to-screen-for-blood-pressure-975f","resource":{"resourceType":"Encounter","id":"5beb7923-6f53-4e60-a51b-65d7a6f23397","meta":{"profile":["http://hl7.org/fhir/us/qicore/StructureDefinition/qicore-encounter"]},"status":"finished","class":{"system":"http://terminology.hl7.org/CodeSystem/v3-ActCode","code":"AMB","display":"ambulatory"},"type":[{"coding":[{"system":"http://snomed.info/sct","version":"2022-03","code":"103705002","display":"Patient status observation (procedure)","userSelected":true}]}],"subject":{"reference":"Patient/4fa862e7-beac-4a7d-b053-f54afb689dc9"},"period":{"start":"2025-12-31T08:00:00.000+00:00","end":"2025-12-31T08:45:00.000+00:00"}},"request":{"method":"PUT","url":"Encounter/5beb7923-6f53-4e60-a51b-65d7a6f23397"}},{"fullUrl":"https://madie.cms.gov/Observation/systolic-blood-pressure-9760","resource":{"resourceType":"Observation","id":"38fe9202-8b3a-40b4-94ed-0977a6e9fc19","meta":{"profile":["http://hl7.org/fhir/us/qicore/StructureDefinition/qicore-observation"]},"status":"final","category":[{"coding":[{"system":"http://terminology.hl7.org/CodeSystem/observation-category","code":"procedure","display":"Procedure"}]}],"code":{"coding":[{"system":"http://loinc.org","code":"8480-6","display":"Systolic blood pressure","userSelected":true}]},"subject":{"reference":"Patient/4fa862e7-beac-4a7d-b053-f54afb689dc9"},"effectiveDateTime":"2025-12-31T08:05:00.000+00:00","valueQuantity":{"value":160.0,"unit":"mm[Hg]"}},"request":{"method":"PUT","url":"Observation/38fe9202-8b3a-40b4-94ed-0977a6e9fc19"}},{"fullUrl":"https://madie.cms.gov/ServiceRequest/follow-up-within-4-weeks-9762","resource":{"resourceType":"ServiceRequest","id":"105def14-38e5-488a-874b-5b4f2e310d8d","meta":{"profile":["http://hl7.org/fhir/us/qicore/StructureDefinition/qicore-servicerequest"]},"status":"active","intent":"order","code":{"coding":[{"system":"http://snomed.info/sct","version":"2022-03","code":"183617005","display":"Follow-up 1 day (finding)","userSelected":true}]},"subject":{"reference":"Patient/4fa862e7-beac-4a7d-b053-f54afb689dc9"},"authoredOn":"2025-12-31T08:30:00.000+00:00"},"request":{"method":"PUT","url":"ServiceRequest/105def14-38e5-488a-874b-5b4f2e310d8d"}},{"fullUrl":"https://madie.cms.gov/ServiceRequest/dietary-recommendations-9763","resource":{"resourceType":"ServiceRequest","id":"535cd875-465f-4741-998a-bf8c935f5ffb","meta":{"profile":["http://hl7.org/fhir/us/qicore/StructureDefinition/qicore-servicerequest"]},"status":"active","intent":"order","code":{"coding":[{"system":"http://snomed.info/sct","version":"2022-03","code":"103699006","display":"Patient referral to dietitian (procedure)","userSelected":true}]},"subject":{"reference":"Patient/4fa862e7-beac-4a7d-b053-f54afb689dc9"},"authoredOn":"2025-12-31T08:30:00.000+00:00"},"request":{"method":"PUT","url":"ServiceRequest/535cd875-465f-4741-998a-bf8c935f5ffb"}},{"fullUrl":"https://madie.cms.gov/Coverage/1","resource":{"resourceType":"Coverage","id":"249f8d66-a565-4d6e-b103-f812b7c51862","meta":{"profile":["http://hl7.org/fhir/us/qicore/StructureDefinition/qicore-coverage"]},"status":"active","beneficiary":{"reference":"Patient/4fa862e7-beac-4a7d-b053-f54afb689dc9"},"payor":[{"reference":"Organization/26111c91-b0e2-476c-a20b-e3f39799f8f5"}]},"request":{"method":"PUT","url":"Coverage/249f8d66-a565-4d6e-b103-f812b7c51862"}},{"fullUrl":"https://madie.cms.gov/Organization/123456","resource":{"resourceType":"Organization","id":"26111c91-b0e2-476c-a20b-e3f39799f8f5","meta":{"profile":["http://hl7.org/fhir/us/qicore/StructureDefinition/qicore-organization"]},"identifier":[{"use":"temp","system":"urn:oid:2.16.840.1.113883.4.4","value":"21-3259825"}],"active":true,"type":[{"coding":[{"system":"http://terminology.hl7.org/CodeSystem/organization-type","code":"pay","display":"Payer"}]}],"name":"Blue Cross Blue Shield of Texas","telecom":[{"system":"phone","value":"(+1) 972-766-6900"}],"address":[{"use":"billing","type":"postal","line":["P.O. Box 660044"],"city":"Dallas","state":"TX","postalCode":"75266-0044","country":"USA"}]},"request":{"method":"PUT","url":"Organization/26111c91-b0e2-476c-a20b-e3f39799f8f5"}},{"fullUrl":"https://madie.cms.gov/Practitioner/practitioner-123456","resource":{"resourceType":"Practitioner","id":"9dd55b5d-9f97-4606-bcd5-f7c7a0dd052d","meta":{"profile":["http://hl7.org/fhir/us/qicore/StructureDefinition/qicore-practitioner"]},"identifier":[{"system":"http://hl7.org/fhir/sid/us-npi","value":"123456"}],"name":[{"family":"Evil","prefix":["Dr"]}]},"request":{"method":"PUT","url":"Practitioner/9dd55b5d-9f97-4606-bcd5-f7c7a0dd052d"}},{"fullUrl":"https://madie.cms.gov/MeasureReport/0c4081e6-e951-4b76-ac88-033a6716dde6","resource":{"resourceType":"MeasureReport","id":"0c4081e6-e951-4b76-ac88-033a6716dde6","meta":{"profile":["http://hl7.org/fhir/us/cqfmeasures/StructureDefinition/test-case-cqfm"]},"contained":[{"resourceType":"Parameters","id":"453f95d1-8f9e-4d01-9c69-265ddd88c4bb-parameters","parameter":[{"name":"subject","valueString":"4fa862e7-beac-4a7d-b053-f54afb689dc9"}]}],"extension":[{"url":"http://hl7.org/fhir/us/cqfmeasures/StructureDefinition/cqfm-inputParameters","valueReference":{"reference":"#453f95d1-8f9e-4d01-9c69-265ddd88c4bb-parameters"}},{"url":"http://hl7.org/fhir/us/cqfmeasures/StructureDefinition/cqfm-testCaseDescription","valueMarkdown":"Encounter last day of MP with systolic reading 160, no diastolic, follow up scheduled and dietary  recommendations made- expect to fail as both sys/dia are meant to be required. "}],"modifierExtension":[{"url":"http://hl7.org/fhir/us/cqfmeasures/StructureDefinition/cqfm-isTestCase","valueBoolean":true}],"status":"complete","type":"individual","measure":"https://madie.cms.gov/Measure/PCSBPScreeningFollowUpFHIR","period":{"start":"2025-01-01","end":"2025-12-31"},"group":[{"population":[{"code":{"coding":[{"system":"http://terminology.hl7.org/CodeSystem/measure-population","code":"initial-population","display":"Initial Population"}]},"count":1},{"code":{"coding":[{"system":"http://terminology.hl7.org/CodeSystem/measure-population","code":"denominator","display":"Denominator"}]},"count":1},{"code":{"coding":[{"system":"http://terminology.hl7.org/CodeSystem/measure-population","code":"denominator-exclusion","display":"Denominator Exclusion"}]},"count":0},{"code":{"coding":[{"system":"http://terminology.hl7.org/CodeSystem/measure-population","code":"numerator","display":"Numerator"}]},"count":0},{"code":{"coding":[{"system":"http://terminology.hl7.org/CodeSystem/measure-population","code":"denominator-exception","display":"Denominator Exception"}]},"count":0}]}]},"request":{"method":"PUT","url":"MeasureReport/0c4081e6-e951-4b76-ac88-033a6716dde6"}}]}