{
  "resourceType": "Bundle",
  "id": "13546451asdf3513541654FF",
  "type": "transaction",
  "entry": [ {
    "fullUrl": "https://madie.cms.gov/Patient/d07cf359-d46c-4adf-b2d4-e02a2f43b78e",
    "resource": {
      "resourceType": "Patient",
      "id": "d07cf359-d46c-4adf-b2d4-e02a2f43b78e",
      "meta": {
        "profile": [ "http://hl7.org/fhir/us/qicore/StructureDefinition/qicore-patient" ]
      },
      "extension": [ {
        "url": "http://hl7.org/fhir/us/core/StructureDefinition/us-core-race",
        "extension": [ {
          "url": "ombCategory",
          "valueCoding": {
            "system": "urn:oid:2.16.840.1.113883.6.238",
            "code": "2028-9",
            "display": "Asian",
            "userSelected": true
          }
        }, {
          "url": "text",
          "valueString": "Asian"
        } ]
      }, {
        "url": "http://hl7.org/fhir/us/core/StructureDefinition/us-core-ethnicity",
        "extension": [ {
          "url": "ombCategory",
          "valueCoding": {
            "system": "urn:oid:2.16.840.1.113883.6.238",
            "code": "2186-5",
            "display": "Not Hispanic or Latino",
            "userSelected": true
          }
        }, {
          "url": "text",
          "valueString": "Not Hispanic or Latino"
        } ]
      } ],
      "identifier": [ {
        "type": {
          "coding": [ {
            "system": "http://terminology.hl7.org/CodeSystem/v2-0203",
            "code": "MR"
          } ]
        },
        "system": "https://bonnie-fhir.healthit.gov/",
        "value": "60d4d72c410233651461d7bd"
      } ],
      "name": [ {
        "family": "DENEXCEPPass",
        "given": [ "DEXANotPerformedPtRefused" ]
      } ],
      "gender": "male",
      "birthDate": "1933-12-15"
    },
    "request": {
      "method": "POST",
      "url": "Patient/d07cf359-d46c-4adf-b2d4-e02a2f43b78e"
    }
  }, {
    "fullUrl": "https://madie.cms.gov/Encounter/3543541",
    "resource": {
      "resourceType": "Encounter",
      "id": "3543541",
      "meta": {
        "profile": [ "http://hl7.org/fhir/us/qicore/StructureDefinition/qicore-encounter" ]
      },
      "status": "finished",
      "class": {
        "system": "http://terminology.hl7.org/CodeSystem/v3-ActCode",
        "code": "AMB",
        "display": "ambulatory"
      },
      "type": [ {
        "coding": [ {
          "system": "http://snomed.info/sct",
          "version": "2021-09",
          "code": "185463005",
          "display": "Visit out of hours (procedure)",
          "userSelected": true
        } ]
      } ],
      "subject": {
        "reference": "Patient/d07cf359-d46c-4adf-b2d4-e02a2f43b78e"
      },
      "period": {
        "start": "2025-04-04T08:00:00.000+00:00",
        "end": "2025-04-04T08:15:00.000+00:00"
      }
    },
    "request": {
      "method": "POST",
      "url": "Encounter/3543541"
    }
  }, {
    "fullUrl": "https://madie.cms.gov/Condition/prostate-cancer-d7bf",
    "resource": {
      "resourceType": "Condition",
      "id": "prostate-cancer-d7bf",
      "meta": {
        "profile": [ "http://hl7.org/fhir/us/qicore/StructureDefinition/qicore-condition" ]
      },
      "clinicalStatus": {
        "coding": [ {
          "system": "http://terminology.hl7.org/CodeSystem/condition-clinical",
          "code": "active"
        } ]
      },
      "verificationStatus": {
        "coding": [ {
          "system": "http://terminology.hl7.org/CodeSystem/condition-ver-status",
          "code": "confirmed"
        } ]
      },
      "category": [ {
        "coding": [ {
          "system": "http://terminology.hl7.org/CodeSystem/condition-category",
          "code": "problem-list-item",
          "display": "Problem List Item"
        } ]
      } ],
      "code": {
        "coding": [ {
          "system": "http://snomed.info/sct",
          "version": "2021-09",
          "code": "254900004",
          "display": "Carcinoma of prostate (disorder)",
          "userSelected": true
        } ]
      },
      "subject": {
        "reference": "Patient/d07cf359-d46c-4adf-b2d4-e02a2f43b78e"
      },
      "onsetPeriod": {
        "start": "2025-04-04T08:00:00.000+00:00"
      }
    },
    "request": {
      "method": "POST",
      "url": "Condition/prostate-cancer-d7bf"
    }
  }, {
    "fullUrl": "https://madie.cms.gov/MedicationRequest/635468774",
    "resource": {
      "resourceType": "MedicationRequest",
      "id": "635468774",
      "meta": {
        "profile": [ "http://hl7.org/fhir/us/qicore/StructureDefinition/qicore-medicationrequest" ]
      },
      "status": "active",
      "intent": "order",
      "medicationCodeableConcept": {
        "coding": [ {
          "system": "http://www.nlm.nih.gov/research/umls/rxnorm",
          "code": "1115257",
          "display": "1.5 ML leuprolide acetate 30 MG/ML Prefilled Syringe",
          "userSelected": true
        } ]
      },
      "subject": {
        "reference": "Patient/d07cf359-d46c-4adf-b2d4-e02a2f43b78e"
      },
      "authoredOn": "2025-04-04T08:00:00.000+00:00",
      "requester": {
        "reference": "http://myGoodHealthcare.com/fhir/Practitioner/313151"
      },
      "dosageInstruction": [ {
        "timing": {
          "repeat": {
            "boundsPeriod": {
              "start": "2025-04-04T08:00:00.000+00:00",
              "end": "2025-05-04T08:00:00.000+00:00"
            }
          }
        }
      } ]
    },
    "request": {
      "method": "POST",
      "url": "MedicationRequest/635468774"
    }
  }, {
    "fullUrl": "https://madie.cms.gov/ServiceRequest/431344131",
    "resource": {
      "resourceType": "ServiceRequest",
      "id": "431344131",
      "meta": {
        "profile": [ "http://hl7.org/fhir/us/qicore/StructureDefinition/qicore-servicerequest" ]
      },
      "status": "active",
      "intent": "order",
      "code": {
        "coding": [ {
          "system": "http://snomed.info/sct",
          "code": "456381000124102",
          "display": "Injection of leuprolide acetate for twelve month period (regime/therapy)",
          "userSelected": true
        } ]
      },
      "subject": {
        "reference": "Patient/d07cf359-d46c-4adf-b2d4-e02a2f43b78e"
      },
      "authoredOn": "2025-04-04T08:00:00.000+00:00"
    },
    "request": {
      "method": "POST",
      "url": "ServiceRequest/431344131"
    }
  }, {
    "fullUrl": "https://madie.cms.gov/ServiceRequest/496413241",
    "resource": {
      "resourceType": "ServiceRequest",
      "id": "496413241",
      "meta": {
        "profile": [ "http://hl7.org/fhir/us/qicore/StructureDefinition/qicore-servicenotrequested" ]
      },
      "extension": [ {
        "url": "http://hl7.org/fhir/us/qicore/StructureDefinition/qicore-doNotPerformReason",
        "valueCodeableConcept": {
          "coding": [ {
            "system": "http://snomed.info/sct",
            "code": "105480006",
            "display": "Refusal of treatment by patient (situation)",
            "userSelected": true
          } ]
        }
      } ],
      "status": "completed",
      "intent": "order",
      "doNotPerform": true,
      "code": {
        "coding": [ {
          "system": "http://loinc.org",
          "version": "2.71",
          "code": "38265-5",
          "display": "DXA Radius and Ulna [T-score] Bone density",
          "userSelected": true
        } ]
      },
      "subject": {
        "reference": "Patient/d07cf359-d46c-4adf-b2d4-e02a2f43b78e"
      },
      "authoredOn": "2025-04-06T08:00:00.000+00:00"
    },
    "request": {
      "method": "POST",
      "url": "ServiceRequest/496413241"
    }
  }, {
    "fullUrl": "https://madie.cms.gov/Practitioner/313151",
    "resource": {
      "resourceType": "Practitioner",
      "id": "313151",
      "meta": {
        "profile": [ "http://hl7.org/fhir/us/qicore/StructureDefinition/qicore-practitioner" ]
      },
      "identifier": [ {
        "use": "temp",
        "system": "urn:oid:2.16.840.1.113883.4.336",
        "value": "Practitioner-23"
      } ],
      "active": true,
      "name": [ {
        "family": "Careful",
        "given": [ "Adam" ],
        "prefix": [ "Dr" ]
      } ],
      "address": [ {
        "use": "home",
        "line": [ "534 Erewhon St" ],
        "city": "PleasantVille",
        "state": "UT",
        "postalCode": "84414"
      } ],
      "qualification": [ {
        "identifier": [ {
          "system": "http://example.org/UniversityIdentifier",
          "value": "12345"
        } ],
        "code": {
          "coding": [ {
            "system": "http://terminology.hl7.org/CodeSystem/v2-0360|2.7",
            "code": "BS",
            "display": "Bachelor of Science"
          } ],
          "text": "Bachelor of Science"
        },
        "period": {
          "start": "1995"
        },
        "issuer": {
          "display": "Example University"
        }
      } ]
    },
    "request": {
      "method": "POST",
      "url": "Practitioner/313151"
    }
  }, {
    "fullUrl": "https://madie.cms.gov/MeasureReport/93351001-f824-4118-9372-156cdd640ece",
    "resource": {
      "resourceType": "MeasureReport",
      "id": "93351001-f824-4118-9372-156cdd640ece",
      "meta": {
        "profile": [ "http://hl7.org/fhir/us/cqfmeasures/StructureDefinition/test-case-cqfm" ]
      },
      "contained": [ {
        "resourceType": "Parameters",
        "id": "3ee788d3-a4ca-42c5-8dff-4b7f6250729f-parameters",
        "parameter": [ {
          "name": "subject",
          "valueString": "d07cf359-d46c-4adf-b2d4-e02a2f43b78e"
        } ]
      } ],
      "extension": [ {
        "url": "http://hl7.org/fhir/us/cqfmeasures/StructureDefinition/cqfm-inputParameters",
        "valueReference": {
          "reference": "#3ee788d3-a4ca-42c5-8dff-4b7f6250729f-parameters"
        }
      }, {
        "url": "http://hl7.org/fhir/us/cqfmeasures/StructureDefinition/cqfm-testCaseDescription",
        "valueMarkdown": "Dx of Prostate Cancer, DEXA not performed due to patient refused. DENEXCEP passes as expected."
      } ],
      "modifierExtension": [ {
        "url": "http://hl7.org/fhir/us/cqfmeasures/StructureDefinition/cqfm-isTestCase",
        "valueBoolean": true
      } ],
      "status": "complete",
      "type": "individual",
      "measure": "https://madie.cms.gov/Measure/BoneDensityProstateCancerAndrogenDeprivationTherapyFHIR",
      "period": {
        "start": "2025-01-01",
        "end": "2025-12-31"
      },
      "group": [ {
        "population": [ {
          "code": {
            "coding": [ {
              "system": "http://terminology.hl7.org/CodeSystem/measure-population",
              "code": "initial-population",
              "display": "Initial Population"
            } ]
          },
          "count": 1
        }, {
          "code": {
            "coding": [ {
              "system": "http://terminology.hl7.org/CodeSystem/measure-population",
              "code": "denominator",
              "display": "Denominator"
            } ]
          },
          "count": 1
        }, {
          "code": {
            "coding": [ {
              "system": "http://terminology.hl7.org/CodeSystem/measure-population",
              "code": "numerator",
              "display": "Numerator"
            } ]
          },
          "count": 0
        }, {
          "code": {
            "coding": [ {
              "system": "http://terminology.hl7.org/CodeSystem/measure-population",
              "code": "denominator-exception",
              "display": "Denominator Exception"
            } ]
          },
          "count": 0
        } ]
      } ],
      "evaluatedResource": [ {
        "reference": "https://madie.cms.gov/Patient/d07cf359-d46c-4adf-b2d4-e02a2f43b78e"
      }, {
        "reference": "https://madie.cms.gov/Encounter/3543541"
      }, {
        "reference": "https://madie.cms.gov/Condition/prostate-cancer-d7bf"
      }, {
        "reference": "https://madie.cms.gov/MedicationRequest/635468774"
      }, {
        "reference": "https://madie.cms.gov/ServiceRequest/431344131"
      }, {
        "reference": "https://madie.cms.gov/ServiceRequest/496413241"
      }, {
        "reference": "https://madie.cms.gov/Practitioner/313151"
      } ]
    },
    "request": {
      "method": "POST",
      "url": "MeasureReport/93351001-f824-4118-9372-156cdd640ece"
    }
  } ]
}