{
  "resourceType": "Bundle",
  "id": "NUMERPass-VR36ObliqueResulted",
  "type": "transaction",
  "entry": [ {
    "fullUrl": "https://madie.cms.gov/Patient/6257a862-3fac-426a-a187-6bed0db51595",
    "resource": {
      "resourceType": "Patient",
      "id": "6257a862-3fac-426a-a187-6bed0db51595",
      "meta": {
        "profile": [ "http://hl7.org/fhir/us/qicore/StructureDefinition/qicore-patient" ]
      },
      "extension": [ {
        "url": "http://hl7.org/fhir/us/core/StructureDefinition/us-core-race",
        "extension": [ {
          "url": "ombCategory",
          "valueCoding": {
            "system": "urn:oid:2.16.840.1.113883.6.238",
            "code": "2028-9",
            "display": "Asian"
          }
        }, {
          "url": "text",
          "valueString": "Asian"
        } ]
      }, {
        "url": "http://hl7.org/fhir/us/core/StructureDefinition/us-core-ethnicity",
        "extension": [ {
          "url": "ombCategory",
          "valueCoding": {
            "system": "urn:oid:2.16.840.1.113883.6.238",
            "code": "2135-2",
            "display": "Hispanic or Latino"
          }
        }, {
          "url": "text",
          "valueString": "Hispanic or Latino"
        } ]
      } ],
      "identifier": [ {
        "system": "http://hospital.smarthealthit.org",
        "value": "999999995"
      } ],
      "name": [ {
        "family": "Bertha",
        "given": [ "Betty" ]
      } ],
      "gender": "female",
      "birthDate": "2007-01-01"
    },
    "request": {
      "method": "POST",
      "url": "Patient/6257a862-3fac-426a-a187-6bed0db51595"
    }
  }, {
    "fullUrl": "https://madie.cms.gov/Encounter/Encounter-24",
    "resource": {
      "resourceType": "Encounter",
      "id": "Encounter-24",
      "meta": {
        "profile": [ "http://hl7.org/fhir/us/qicore/StructureDefinition/qicore-encounter" ]
      },
      "status": "finished",
      "class": {
        "system": "http://terminology.hl7.org/CodeSystem/v3-ActCode",
        "code": "AMB",
        "display": "ambulatory"
      },
      "type": [ {
        "coding": [ {
          "system": "http://snomed.info/sct",
          "code": "185317003",
          "display": "Telephone encounter (procedure)"
        } ]
      } ],
      "subject": {
        "reference": "Patient/6257a862-3fac-426a-a187-6bed0db51595"
      },
      "period": {
        "start": "2025-01-01T01:00:00.000Z",
        "end": "2025-01-01T01:15:00.000Z"
      }
    },
    "request": {
      "method": "POST",
      "url": "Encounter/Encounter-24"
    }
  }, {
    "fullUrl": "https://madie.cms.gov/Encounter/Encounter-25",
    "resource": {
      "resourceType": "Encounter",
      "id": "Encounter-25",
      "meta": {
        "profile": [ "http://hl7.org/fhir/us/qicore/StructureDefinition/qicore-encounter" ]
      },
      "status": "finished",
      "class": {
        "system": "http://terminology.hl7.org/CodeSystem/v3-ActCode",
        "code": "AMB",
        "display": "ambulatory"
      },
      "type": [ {
        "coding": [ {
          "system": "http://snomed.info/sct",
          "code": "185317003",
          "display": "Telephone encounter (procedure)"
        } ]
      } ],
      "subject": {
        "reference": "Patient/6257a862-3fac-426a-a187-6bed0db51595"
      },
      "period": {
        "start": "2025-01-02T01:00:00.000Z",
        "end": "2025-01-02T01:15:00.000Z"
      }
    },
    "request": {
      "method": "POST",
      "url": "Encounter/Encounter-25"
    }
  }, {
    "fullUrl": "https://madie.cms.gov/Condition/Condition-12",
    "resource": {
      "resourceType": "Condition",
      "id": "Condition-12",
      "meta": {
        "profile": [ "http://hl7.org/fhir/us/qicore/StructureDefinition/qicore-condition" ]
      },
      "clinicalStatus": {
        "coding": [ {
          "system": "http://terminology.hl7.org/CodeSystem/condition-clinical",
          "code": "active"
        } ]
      },
      "category": [ {
        "coding": [ {
          "system": "http://terminology.hl7.org/CodeSystem/condition-category",
          "code": "problem-list-item",
          "display": "Problem List Item"
        } ]
      } ],
      "code": {
        "coding": [ {
          "system": "http://snomed.info/sct",
          "code": "10091002",
          "display": "High output heart failure (disorder)"
        } ]
      },
      "subject": {
        "reference": "Patient/6257a862-3fac-426a-a187-6bed0db51595"
      },
      "onsetDateTime": "2024-12-31T23:59:00.000Z"
    },
    "request": {
      "method": "POST",
      "url": "Condition/Condition-12"
    }
  }, {
    "fullUrl": "https://madie.cms.gov/Observation/Observation-34",
    "resource": {
      "resourceType": "Observation",
      "id": "Observation-34",
      "meta": {
        "profile": [ "http://hl7.org/fhir/us/qicore/StructureDefinition/qicore-observation" ]
      },
      "status": "final",
      "category": [ {
        "coding": [ {
          "system": "http://terminology.hl7.org/CodeSystem/observation-category",
          "code": "survey",
          "display": "survey"
        } ],
        "text": "survey"
      } ],
      "code": {
        "coding": [ {
          "system": "http://loinc.org",
          "code": "71990-6",
          "display": "VR-36 Mental component summary (MCS) score - oblique method T-score"
        } ]
      },
      "subject": {
        "reference": "Patient/6257a862-3fac-426a-a187-6bed0db51595"
      },
      "effectivePeriod": {
        "start": "2025-01-01T23:00:00.000Z",
        "end": "2025-01-01T23:59:00.000Z"
      },
      "valueInteger": 4
    },
    "request": {
      "method": "POST",
      "url": "Observation/Observation-34"
    }
  }, {
    "fullUrl": "https://madie.cms.gov/Observation/Observation-35",
    "resource": {
      "resourceType": "Observation",
      "id": "Observation-35",
      "meta": {
        "profile": [ "http://hl7.org/fhir/us/qicore/StructureDefinition/qicore-observation" ]
      },
      "status": "final",
      "category": [ {
        "coding": [ {
          "system": "http://terminology.hl7.org/CodeSystem/observation-category",
          "code": "survey",
          "display": "survey"
        } ],
        "text": "survey"
      } ],
      "code": {
        "coding": [ {
          "system": "http://loinc.org",
          "code": "71990-6",
          "display": "VR-36 Mental component summary (MCS) score - oblique method T-score"
        } ]
      },
      "subject": {
        "reference": "Patient/6257a862-3fac-426a-a187-6bed0db51595"
      },
      "effectivePeriod": {
        "start": "2025-01-31T23:00:00.000Z",
        "end": "2025-01-31T23:59:00.000Z"
      },
      "valueInteger": 4
    },
    "request": {
      "method": "POST",
      "url": "Observation/Observation-35"
    }
  }, {
    "fullUrl": "https://madie.cms.gov/Observation/Observation-36",
    "resource": {
      "resourceType": "Observation",
      "id": "Observation-36",
      "meta": {
        "profile": [ "http://hl7.org/fhir/us/qicore/StructureDefinition/qicore-observation" ]
      },
      "status": "final",
      "category": [ {
        "coding": [ {
          "system": "http://terminology.hl7.org/CodeSystem/observation-category",
          "code": "survey",
          "display": "survey"
        } ],
        "text": "survey"
      } ],
      "code": {
        "coding": [ {
          "system": "http://loinc.org",
          "code": "71989-8",
          "display": "VR-36 Physical component summary (PCS) score - oblique method T-score"
        } ]
      },
      "subject": {
        "reference": "Patient/6257a862-3fac-426a-a187-6bed0db51595"
      },
      "effectivePeriod": {
        "start": "2025-01-01T23:00:00.000Z",
        "end": "2025-01-01T23:59:00.000Z"
      },
      "valueInteger": 4
    },
    "request": {
      "method": "POST",
      "url": "Observation/Observation-36"
    }
  }, {
    "fullUrl": "https://madie.cms.gov/Observation/Observation-37",
    "resource": {
      "resourceType": "Observation",
      "id": "Observation-37",
      "meta": {
        "profile": [ "http://hl7.org/fhir/us/qicore/StructureDefinition/qicore-observation" ]
      },
      "status": "final",
      "category": [ {
        "coding": [ {
          "system": "http://terminology.hl7.org/CodeSystem/observation-category",
          "code": "survey",
          "display": "survey"
        } ],
        "text": "survey"
      } ],
      "code": {
        "coding": [ {
          "system": "http://loinc.org",
          "code": "71989-8",
          "display": "VR-36 Physical component summary (PCS) score - oblique method T-score"
        } ]
      },
      "subject": {
        "reference": "Patient/6257a862-3fac-426a-a187-6bed0db51595"
      },
      "effectivePeriod": {
        "start": "2025-01-31T23:00:00.000Z",
        "end": "2025-01-31T23:59:00.000Z"
      },
      "valueInteger": 4
    },
    "request": {
      "method": "POST",
      "url": "Observation/Observation-37"
    }
  }, {
    "fullUrl": "https://madie.cms.gov/MeasureReport/74f663b2-ec09-41f9-935c-f860964ab0b5",
    "resource": {
      "resourceType": "MeasureReport",
      "id": "74f663b2-ec09-41f9-935c-f860964ab0b5",
      "meta": {
        "profile": [ "http://hl7.org/fhir/us/cqfmeasures/StructureDefinition/test-case-cqfm" ]
      },
      "contained": [ {
        "resourceType": "Parameters",
        "id": "d07a27a9-62a6-4bfd-b76c-3168f69e4869-parameters",
        "parameter": [ {
          "name": "subject",
          "valueString": "6257a862-3fac-426a-a187-6bed0db51595"
        } ]
      } ],
      "extension": [ {
        "url": "http://hl7.org/fhir/us/cqfmeasures/StructureDefinition/cqfm-inputParameters",
        "valueReference": {
          "reference": "#d07a27a9-62a6-4bfd-b76c-3168f69e4869-parameters"
        }
      }, {
        "url": "http://hl7.org/fhir/us/cqfmeasures/StructureDefinition/cqfm-testCaseDescription",
        "valueMarkdown": "Patient has all VR36 oblique results during the correct timeframe"
      } ],
      "modifierExtension": [ {
        "url": "http://hl7.org/fhir/us/cqfmeasures/StructureDefinition/cqfm-isTestCase",
        "valueBoolean": true
      } ],
      "status": "complete",
      "type": "individual",
      "measure": "https://madie.cms.gov/Measure/FunctionalStatusAssessmentsforHeartFailureFHIR",
      "period": {
        "start": "2025-01-01",
        "end": "2025-12-31"
      },
      "group": [ {
        "population": [ {
          "code": {
            "coding": [ {
              "system": "http://terminology.hl7.org/CodeSystem/measure-population",
              "code": "initial-population",
              "display": "Initial Population"
            } ]
          },
          "count": 1
        }, {
          "code": {
            "coding": [ {
              "system": "http://terminology.hl7.org/CodeSystem/measure-population",
              "code": "denominator",
              "display": "Denominator"
            } ]
          },
          "count": 1
        }, {
          "code": {
            "coding": [ {
              "system": "http://terminology.hl7.org/CodeSystem/measure-population",
              "code": "denominator-exclusion",
              "display": "Denominator Exclusion"
            } ]
          },
          "count": 0
        }, {
          "code": {
            "coding": [ {
              "system": "http://terminology.hl7.org/CodeSystem/measure-population",
              "code": "numerator",
              "display": "Numerator"
            } ]
          },
          "count": 1
        } ]
      } ],
      "evaluatedResource": [ {
        "reference": "https://madie.cms.gov/Patient/6257a862-3fac-426a-a187-6bed0db51595"
      }, {
        "reference": "https://madie.cms.gov/Encounter/Encounter-24"
      }, {
        "reference": "https://madie.cms.gov/Encounter/Encounter-25"
      }, {
        "reference": "https://madie.cms.gov/Condition/Condition-12"
      }, {
        "reference": "https://madie.cms.gov/Observation/Observation-34"
      }, {
        "reference": "https://madie.cms.gov/Observation/Observation-35"
      }, {
        "reference": "https://madie.cms.gov/Observation/Observation-36"
      }, {
        "reference": "https://madie.cms.gov/Observation/Observation-37"
      } ]
    },
    "request": {
      "method": "POST",
      "url": "MeasureReport/74f663b2-ec09-41f9-935c-f860964ab0b5"
    }
  } ]
}