{
  "resourceType": "Bundle",
  "id": "NUMERFail-VR36OrthogonalMissingResult",
  "type": "transaction",
  "entry": [ {
    "fullUrl": "https://madie.cms.gov/Patient/c7dc3ea8-f482-4096-8651-f2483e170c84",
    "resource": {
      "resourceType": "Patient",
      "id": "c7dc3ea8-f482-4096-8651-f2483e170c84",
      "meta": {
        "profile": [ "http://hl7.org/fhir/us/qicore/StructureDefinition/qicore-patient" ]
      },
      "extension": [ {
        "url": "http://hl7.org/fhir/us/core/StructureDefinition/us-core-race",
        "extension": [ {
          "url": "ombCategory",
          "valueCoding": {
            "system": "urn:oid:2.16.840.1.113883.6.238",
            "code": "2028-9",
            "display": "Asian"
          }
        }, {
          "url": "text",
          "valueString": "Asian"
        } ]
      }, {
        "url": "http://hl7.org/fhir/us/core/StructureDefinition/us-core-ethnicity",
        "extension": [ {
          "url": "ombCategory",
          "valueCoding": {
            "system": "urn:oid:2.16.840.1.113883.6.238",
            "code": "2135-2",
            "display": "Hispanic or Latino"
          }
        }, {
          "url": "text",
          "valueString": "Hispanic or Latino"
        } ]
      } ],
      "identifier": [ {
        "system": "http://hospital.smarthealthit.org",
        "value": "999999995"
      } ],
      "name": [ {
        "family": "Bertha",
        "given": [ "Betty" ]
      } ],
      "gender": "female",
      "birthDate": "2007-01-01"
    },
    "request": {
      "method": "POST",
      "url": "Patient/c7dc3ea8-f482-4096-8651-f2483e170c84"
    }
  }, {
    "fullUrl": "https://madie.cms.gov/Encounter/Encounter-30",
    "resource": {
      "resourceType": "Encounter",
      "id": "Encounter-30",
      "meta": {
        "profile": [ "http://hl7.org/fhir/us/qicore/StructureDefinition/qicore-encounter" ]
      },
      "status": "finished",
      "class": {
        "system": "http://terminology.hl7.org/CodeSystem/v3-ActCode",
        "code": "AMB",
        "display": "ambulatory"
      },
      "type": [ {
        "coding": [ {
          "system": "http://snomed.info/sct",
          "code": "185317003",
          "display": "Telephone encounter (procedure)"
        } ]
      } ],
      "subject": {
        "reference": "Patient/c7dc3ea8-f482-4096-8651-f2483e170c84"
      },
      "period": {
        "start": "2025-01-01T01:00:00.000Z",
        "end": "2025-01-01T01:15:00.000Z"
      }
    },
    "request": {
      "method": "POST",
      "url": "Encounter/Encounter-30"
    }
  }, {
    "fullUrl": "https://madie.cms.gov/Encounter/Encounter-31",
    "resource": {
      "resourceType": "Encounter",
      "id": "Encounter-31",
      "meta": {
        "profile": [ "http://hl7.org/fhir/us/qicore/StructureDefinition/qicore-encounter" ]
      },
      "status": "finished",
      "class": {
        "system": "http://terminology.hl7.org/CodeSystem/v3-ActCode",
        "code": "AMB",
        "display": "ambulatory"
      },
      "type": [ {
        "coding": [ {
          "system": "http://snomed.info/sct",
          "code": "185317003",
          "display": "Telephone encounter (procedure)"
        } ]
      } ],
      "subject": {
        "reference": "Patient/c7dc3ea8-f482-4096-8651-f2483e170c84"
      },
      "period": {
        "start": "2025-01-02T01:00:00.000Z",
        "end": "2025-01-02T01:15:00.000Z"
      }
    },
    "request": {
      "method": "POST",
      "url": "Encounter/Encounter-31"
    }
  }, {
    "fullUrl": "https://madie.cms.gov/Condition/Condition-15",
    "resource": {
      "resourceType": "Condition",
      "id": "Condition-15",
      "meta": {
        "profile": [ "http://hl7.org/fhir/us/qicore/StructureDefinition/qicore-condition" ]
      },
      "clinicalStatus": {
        "coding": [ {
          "system": "http://terminology.hl7.org/CodeSystem/condition-clinical",
          "code": "active"
        } ]
      },
      "category": [ {
        "coding": [ {
          "system": "http://terminology.hl7.org/CodeSystem/condition-category",
          "code": "problem-list-item",
          "display": "Problem List Item"
        } ]
      } ],
      "code": {
        "coding": [ {
          "system": "http://snomed.info/sct",
          "code": "10091002",
          "display": "High output heart failure (disorder)"
        } ]
      },
      "subject": {
        "reference": "Patient/c7dc3ea8-f482-4096-8651-f2483e170c84"
      },
      "onsetDateTime": "2024-12-31T23:59:00.000Z"
    },
    "request": {
      "method": "POST",
      "url": "Condition/Condition-15"
    }
  }, {
    "fullUrl": "https://madie.cms.gov/Observation/Observation-46",
    "resource": {
      "resourceType": "Observation",
      "id": "Observation-46",
      "meta": {
        "profile": [ "http://hl7.org/fhir/us/qicore/StructureDefinition/qicore-observation" ]
      },
      "status": "final",
      "category": [ {
        "coding": [ {
          "system": "http://terminology.hl7.org/CodeSystem/observation-category",
          "code": "survey",
          "display": "survey"
        } ],
        "text": "survey"
      } ],
      "code": {
        "coding": [ {
          "system": "http://loinc.org",
          "code": "72008-6",
          "display": "VR-36 Mental component summary (MCS) score - orthogonal method T-score"
        } ]
      },
      "subject": {
        "reference": "Patient/c7dc3ea8-f482-4096-8651-f2483e170c84"
      },
      "effectivePeriod": {
        "start": "2025-01-01T23:00:00.000Z",
        "end": "2025-01-01T23:59:00.000Z"
      },
      "valueInteger": 4
    },
    "request": {
      "method": "POST",
      "url": "Observation/Observation-46"
    }
  }, {
    "fullUrl": "https://madie.cms.gov/Observation/Observation-47",
    "resource": {
      "resourceType": "Observation",
      "id": "Observation-47",
      "meta": {
        "profile": [ "http://hl7.org/fhir/us/qicore/StructureDefinition/qicore-observation" ]
      },
      "status": "final",
      "category": [ {
        "coding": [ {
          "system": "http://terminology.hl7.org/CodeSystem/observation-category",
          "code": "survey",
          "display": "survey"
        } ],
        "text": "survey"
      } ],
      "code": {
        "coding": [ {
          "system": "http://loinc.org",
          "code": "72008-6",
          "display": "VR-36 Mental component summary (MCS) score - orthogonal method T-score"
        } ]
      },
      "subject": {
        "reference": "Patient/c7dc3ea8-f482-4096-8651-f2483e170c84"
      },
      "effectivePeriod": {
        "start": "2025-01-31T23:00:00.000Z",
        "end": "2025-01-31T23:59:00.000Z"
      },
      "valueInteger": 4
    },
    "request": {
      "method": "POST",
      "url": "Observation/Observation-47"
    }
  }, {
    "fullUrl": "https://madie.cms.gov/Observation/Observation-48",
    "resource": {
      "resourceType": "Observation",
      "id": "Observation-48",
      "meta": {
        "profile": [ "http://hl7.org/fhir/us/qicore/StructureDefinition/qicore-observation" ]
      },
      "status": "final",
      "category": [ {
        "coding": [ {
          "system": "http://terminology.hl7.org/CodeSystem/observation-category",
          "code": "survey",
          "display": "survey"
        } ],
        "text": "survey"
      } ],
      "code": {
        "coding": [ {
          "system": "http://loinc.org",
          "code": "72007-8",
          "display": "VR-36 Physical component summary (PCS) score - orthogonal method T-score"
        } ]
      },
      "subject": {
        "reference": "Patient/c7dc3ea8-f482-4096-8651-f2483e170c84"
      },
      "effectivePeriod": {
        "start": "2025-01-01T23:00:00.000Z",
        "end": "2025-01-01T23:59:00.000Z"
      },
      "valueInteger": 4
    },
    "request": {
      "method": "POST",
      "url": "Observation/Observation-48"
    }
  }, {
    "fullUrl": "https://madie.cms.gov/Observation/Observation-49",
    "resource": {
      "resourceType": "Observation",
      "id": "Observation-49",
      "meta": {
        "profile": [ "http://hl7.org/fhir/us/qicore/StructureDefinition/qicore-observation" ]
      },
      "status": "final",
      "category": [ {
        "coding": [ {
          "system": "http://terminology.hl7.org/CodeSystem/observation-category",
          "code": "survey",
          "display": "survey"
        } ],
        "text": "survey"
      } ],
      "code": {
        "coding": [ {
          "system": "http://loinc.org",
          "code": "72007-8",
          "display": "VR-36 Physical component summary (PCS) score - orthogonal method T-score"
        } ]
      },
      "subject": {
        "reference": "Patient/c7dc3ea8-f482-4096-8651-f2483e170c84"
      },
      "effectivePeriod": {
        "start": "2025-01-31T23:00:00.000Z",
        "end": "2025-01-31T23:59:00.000Z"
      }
    },
    "request": {
      "method": "POST",
      "url": "Observation/Observation-49"
    }
  }, {
    "fullUrl": "https://madie.cms.gov/MeasureReport/290c688b-ee24-4107-9595-50b50ff05af8",
    "resource": {
      "resourceType": "MeasureReport",
      "id": "290c688b-ee24-4107-9595-50b50ff05af8",
      "meta": {
        "profile": [ "http://hl7.org/fhir/us/cqfmeasures/StructureDefinition/test-case-cqfm" ]
      },
      "contained": [ {
        "resourceType": "Parameters",
        "id": "70ad62de-7107-41af-8bb8-5b281d87b80d-parameters",
        "parameter": [ {
          "name": "subject",
          "valueString": "c7dc3ea8-f482-4096-8651-f2483e170c84"
        } ]
      } ],
      "extension": [ {
        "url": "http://hl7.org/fhir/us/cqfmeasures/StructureDefinition/cqfm-inputParameters",
        "valueReference": {
          "reference": "#70ad62de-7107-41af-8bb8-5b281d87b80d-parameters"
        }
      }, {
        "url": "http://hl7.org/fhir/us/cqfmeasures/StructureDefinition/cqfm-testCaseDescription",
        "valueMarkdown": "Patient has all VR36 Orthogonal Assessments during the correct timeframe but one FSA is missing a result."
      } ],
      "modifierExtension": [ {
        "url": "http://hl7.org/fhir/us/cqfmeasures/StructureDefinition/cqfm-isTestCase",
        "valueBoolean": true
      } ],
      "status": "complete",
      "type": "individual",
      "measure": "https://madie.cms.gov/Measure/FunctionalStatusAssessmentsforHeartFailureFHIR",
      "period": {
        "start": "2025-01-01",
        "end": "2025-12-31"
      },
      "group": [ {
        "population": [ {
          "code": {
            "coding": [ {
              "system": "http://terminology.hl7.org/CodeSystem/measure-population",
              "code": "initial-population",
              "display": "Initial Population"
            } ]
          },
          "count": 1
        }, {
          "code": {
            "coding": [ {
              "system": "http://terminology.hl7.org/CodeSystem/measure-population",
              "code": "denominator",
              "display": "Denominator"
            } ]
          },
          "count": 1
        }, {
          "code": {
            "coding": [ {
              "system": "http://terminology.hl7.org/CodeSystem/measure-population",
              "code": "denominator-exclusion",
              "display": "Denominator Exclusion"
            } ]
          },
          "count": 0
        }, {
          "code": {
            "coding": [ {
              "system": "http://terminology.hl7.org/CodeSystem/measure-population",
              "code": "numerator",
              "display": "Numerator"
            } ]
          },
          "count": 0
        } ]
      } ],
      "evaluatedResource": [ {
        "reference": "https://madie.cms.gov/Patient/c7dc3ea8-f482-4096-8651-f2483e170c84"
      }, {
        "reference": "https://madie.cms.gov/Encounter/Encounter-30"
      }, {
        "reference": "https://madie.cms.gov/Encounter/Encounter-31"
      }, {
        "reference": "https://madie.cms.gov/Condition/Condition-15"
      }, {
        "reference": "https://madie.cms.gov/Observation/Observation-46"
      }, {
        "reference": "https://madie.cms.gov/Observation/Observation-47"
      }, {
        "reference": "https://madie.cms.gov/Observation/Observation-48"
      }, {
        "reference": "https://madie.cms.gov/Observation/Observation-49"
      } ]
    },
    "request": {
      "method": "POST",
      "url": "MeasureReport/290c688b-ee24-4107-9595-50b50ff05af8"
    }
  } ]
}