{"resourceType":"Bundle","id":"tests-7de4b027-eb4c-4a2e-958f-e6b7a3eb6309-bundle","type":"transaction","entry":[{"fullUrl":"https://madie.cms.gov/Patient/7de4b027-eb4c-4a2e-958f-e6b7a3eb6309","resource":{"resourceType":"Patient","id":"7de4b027-eb4c-4a2e-958f-e6b7a3eb6309","meta":{"profile":["http://hl7.org/fhir/us/qicore/StructureDefinition/qicore-patient"]},"extension":[{"url":"http://hl7.org/fhir/us/core/StructureDefinition/us-core-race","extension":[{"url":"ombCategory","valueCoding":{"system":"urn:oid:2.16.840.1.113883.6.238","code":"2028-9","display":"Asian"}},{"url":"text","valueString":"Asian"}]},{"url":"http://hl7.org/fhir/us/core/StructureDefinition/us-core-ethnicity","extension":[{"url":"ombCategory","valueCoding":{"system":"urn:oid:2.16.840.1.113883.6.238","code":"2135-2","display":"Hispanic or Latino"}},{"url":"text","valueString":"Hispanic or Latino"}]}],"identifier":[{"system":"http://hospital.smarthealthit.org","value":"999999995"}],"name":[{"family":"DENEXPass","given":["KidneyTransplantProcedureDuringMP"]}],"gender":"female","birthDate":"2006-12-31"},"request":{"method":"PUT","url":"Patient/7de4b027-eb4c-4a2e-958f-e6b7a3eb6309"}},{"fullUrl":"https://madie.cms.gov/Encounter/Encounter-3","resource":{"resourceType":"Encounter","id":"b4e275bf-51f5-4d78-8c1d-d100baf79e89","meta":{"profile":["http://hl7.org/fhir/us/qicore/StructureDefinition/qicore-encounter"]},"status":"finished","class":{"system":"http://terminology.hl7.org/CodeSystem/v3-ActCode","code":"AMB","display":"ambulatory"},"type":[{"coding":[{"system":"http://snomed.info/sct","code":"3391000175108","display":"Office visit for pediatric care and assessment (procedure)"}]}],"subject":{"reference":"Patient/7de4b027-eb4c-4a2e-958f-e6b7a3eb6309"},"period":{"start":"2025-01-01T00:00:00.000Z","end":"2025-01-01T01:00:00.000Z"}},"request":{"method":"PUT","url":"Encounter/b4e275bf-51f5-4d78-8c1d-d100baf79e89"}},{"fullUrl":"https://madie.cms.gov/Condition/Condition-3-0","resource":{"resourceType":"Condition","id":"e95a59d5-c90a-4b41-b568-298bdcc2b6ad","meta":{"profile":["http://hl7.org/fhir/us/qicore/StructureDefinition/qicore-condition"]},"clinicalStatus":{"coding":[{"system":"http://terminology.hl7.org/CodeSystem/condition-clinical","code":"active"}]},"category":[{"coding":[{"system":"http://terminology.hl7.org/CodeSystem/condition-category","code":"problem-list-item","display":"Problem List Item"}]}],"code":{"coding":[{"system":"http://snomed.info/sct","code":"371125006","display":"Labile essential hypertension (disorder)"}]},"subject":{"reference":"Patient/7de4b027-eb4c-4a2e-958f-e6b7a3eb6309"},"onsetDateTime":"2025-06-30T23:59:59.000Z"},"request":{"method":"PUT","url":"Condition/e95a59d5-c90a-4b41-b568-298bdcc2b6ad"}},{"fullUrl":"https://madie.cms.gov/Procedure/Procedure-3-1","resource":{"resourceType":"Procedure","id":"8f857d16-1ac5-47dc-83e5-b251087ed69a","meta":{"profile":["http://hl7.org/fhir/us/qicore/StructureDefinition/qicore-procedure"]},"extension":[{"url":"http://hl7.org/fhir/us/qicore/StructureDefinition/qicore-recorded","valueDateTime":"2024-12-31T00:00:00.000Z"}],"status":"completed","code":{"coding":[{"system":"http://snomed.info/sct","code":"70536003","display":"Transplant of kidney (procedure)"}]},"subject":{"reference":"Patient/7de4b027-eb4c-4a2e-958f-e6b7a3eb6309"},"performedPeriod":{"start":"2025-12-30T00:00:00.000Z","end":"2025-12-30T23:59:59.000Z"}},"request":{"method":"PUT","url":"Procedure/8f857d16-1ac5-47dc-83e5-b251087ed69a"}},{"fullUrl":"https://madie.cms.gov/MeasureReport/c76103d7-d39d-4cb1-a4e1-e9b9326c1629","resource":{"resourceType":"MeasureReport","id":"c76103d7-d39d-4cb1-a4e1-e9b9326c1629","meta":{"profile":["http://hl7.org/fhir/us/cqfmeasures/StructureDefinition/test-case-cqfm"]},"contained":[{"resourceType":"Parameters","id":"50f10c9c-6d0f-477b-ad13-47702b10cbf6-parameters","parameter":[{"name":"subject","valueString":"7de4b027-eb4c-4a2e-958f-e6b7a3eb6309"}]}],"extension":[{"url":"http://hl7.org/fhir/us/cqfmeasures/StructureDefinition/cqfm-inputParameters","valueReference":{"reference":"#50f10c9c-6d0f-477b-ad13-47702b10cbf6-parameters"}},{"url":"http://hl7.org/fhir/us/cqfmeasures/StructureDefinition/cqfm-testCaseDescription","valueMarkdown":"Kidney transplant procedure during MP"}],"modifierExtension":[{"url":"http://hl7.org/fhir/us/cqfmeasures/StructureDefinition/cqfm-isTestCase","valueBoolean":true}],"status":"complete","type":"individual","measure":"https://madie.cms.gov/Measure/ControllingHighBloodPressureFHIR","period":{"start":"2025-01-01","end":"2025-12-31"},"group":[{"population":[{"code":{"coding":[{"system":"http://terminology.hl7.org/CodeSystem/measure-population","code":"initial-population","display":"Initial Population"}]},"count":1},{"code":{"coding":[{"system":"http://terminology.hl7.org/CodeSystem/measure-population","code":"denominator","display":"Denominator"}]},"count":1},{"code":{"coding":[{"system":"http://terminology.hl7.org/CodeSystem/measure-population","code":"denominator-exclusion","display":"Denominator Exclusion"}]},"count":1},{"code":{"coding":[{"system":"http://terminology.hl7.org/CodeSystem/measure-population","code":"numerator","display":"Numerator"}]},"count":0}]}]},"request":{"method":"PUT","url":"MeasureReport/c76103d7-d39d-4cb1-a4e1-e9b9326c1629"}}]}