{"resourceType":"Bundle","id":"tests-642ef7f9-f9c2-45dc-ab7d-41a000b56d9c-bundle","type":"transaction","entry":[{"fullUrl":"https://madie.cms.gov/Patient/642ef7f9-f9c2-45dc-ab7d-41a000b56d9c","resource":{"resourceType":"Patient","id":"642ef7f9-f9c2-45dc-ab7d-41a000b56d9c","meta":{"profile":["http://hl7.org/fhir/us/qicore/StructureDefinition/qicore-patient"]},"extension":[{"url":"http://hl7.org/fhir/us/core/StructureDefinition/us-core-race","extension":[{"url":"ombCategory","valueCoding":{"system":"urn:oid:2.16.840.1.113883.6.238","code":"2028-9","display":"Asian"}},{"url":"text","valueString":"Asian"}]},{"url":"http://hl7.org/fhir/us/core/StructureDefinition/us-core-ethnicity","extension":[{"url":"ombCategory","valueCoding":{"system":"urn:oid:2.16.840.1.113883.6.238","code":"2135-2","display":"Hispanic or Latino"}},{"url":"text","valueString":"Hispanic or Latino"}]}],"identifier":[{"system":"http://hospital.smarthealthit.org","value":"999999995"}],"name":[{"family":"IPFail","given":["HypertensionOnsetsAfterFirst6Months"]}],"gender":"female","birthDate":"2006-12-31"},"request":{"method":"PUT","url":"Patient/642ef7f9-f9c2-45dc-ab7d-41a000b56d9c"}},{"fullUrl":"https://madie.cms.gov/Encounter/Encounter-2","resource":{"resourceType":"Encounter","id":"259914ab-6f69-4f7d-8d25-9cceb4cdf8b1","meta":{"profile":["http://hl7.org/fhir/us/qicore/StructureDefinition/qicore-encounter"]},"status":"finished","class":{"system":"http://terminology.hl7.org/CodeSystem/v3-ActCode","code":"AMB","display":"ambulatory"},"type":[{"coding":[{"system":"http://snomed.info/sct","code":"3391000175108","display":"Office visit for pediatric care and assessment (procedure)"}]}],"subject":{"reference":"Patient/642ef7f9-f9c2-45dc-ab7d-41a000b56d9c"},"period":{"start":"2025-01-01T00:00:00.000Z","end":"2025-01-01T01:00:00.000Z"}},"request":{"method":"PUT","url":"Encounter/259914ab-6f69-4f7d-8d25-9cceb4cdf8b1"}},{"fullUrl":"https://madie.cms.gov/Condition/Condition-2","resource":{"resourceType":"Condition","id":"d495ca44-7dd1-4c68-8cd2-e9753599611f","meta":{"profile":["http://hl7.org/fhir/us/qicore/StructureDefinition/qicore-condition"]},"clinicalStatus":{"coding":[{"system":"http://terminology.hl7.org/CodeSystem/condition-clinical","code":"active"}]},"category":[{"coding":[{"system":"http://terminology.hl7.org/CodeSystem/condition-category","code":"problem-list-item","display":"Problem List Item"}]}],"code":{"coding":[{"system":"http://snomed.info/sct","code":"371125006","display":"Labile essential hypertension (disorder)"}]},"subject":{"reference":"Patient/642ef7f9-f9c2-45dc-ab7d-41a000b56d9c"},"onsetDateTime":"2025-07-01T00:00:00.000Z"},"request":{"method":"PUT","url":"Condition/d495ca44-7dd1-4c68-8cd2-e9753599611f"}},{"fullUrl":"https://madie.cms.gov/MeasureReport/f1d5dc56-532c-4bd8-89f0-fc0941bc5146","resource":{"resourceType":"MeasureReport","id":"f1d5dc56-532c-4bd8-89f0-fc0941bc5146","meta":{"profile":["http://hl7.org/fhir/us/cqfmeasures/StructureDefinition/test-case-cqfm"]},"contained":[{"resourceType":"Parameters","id":"954356e1-84ee-43eb-b932-ee4da9474244-parameters","parameter":[{"name":"subject","valueString":"642ef7f9-f9c2-45dc-ab7d-41a000b56d9c"}]}],"extension":[{"url":"http://hl7.org/fhir/us/cqfmeasures/StructureDefinition/cqfm-inputParameters","valueReference":{"reference":"#954356e1-84ee-43eb-b932-ee4da9474244-parameters"}},{"url":"http://hl7.org/fhir/us/cqfmeasures/StructureDefinition/cqfm-testCaseDescription","valueMarkdown":"Hypertension onsets on July 1 of the MP"}],"modifierExtension":[{"url":"http://hl7.org/fhir/us/cqfmeasures/StructureDefinition/cqfm-isTestCase","valueBoolean":true}],"status":"complete","type":"individual","measure":"https://madie.cms.gov/Measure/ControllingHighBloodPressureFHIR","period":{"start":"2025-01-01","end":"2025-12-31"},"group":[{"population":[{"code":{"coding":[{"system":"http://terminology.hl7.org/CodeSystem/measure-population","code":"initial-population","display":"Initial Population"}]},"count":0},{"code":{"coding":[{"system":"http://terminology.hl7.org/CodeSystem/measure-population","code":"denominator","display":"Denominator"}]},"count":0},{"code":{"coding":[{"system":"http://terminology.hl7.org/CodeSystem/measure-population","code":"denominator-exclusion","display":"Denominator Exclusion"}]},"count":0},{"code":{"coding":[{"system":"http://terminology.hl7.org/CodeSystem/measure-population","code":"numerator","display":"Numerator"}]},"count":0}]}]},"request":{"method":"PUT","url":"MeasureReport/f1d5dc56-532c-4bd8-89f0-fc0941bc5146"}}]}