{"resourceType":"Bundle","id":"tests-e56c60ca-d0d0-4910-af2e-1d8a074d129a-bundle","type":"transaction","entry":[{"fullUrl":"https://madie.cms.gov/Patient/e56c60ca-d0d0-4910-af2e-1d8a074d129a","resource":{"resourceType":"Patient","id":"e56c60ca-d0d0-4910-af2e-1d8a074d129a","meta":{"profile":["http://hl7.org/fhir/us/qicore/StructureDefinition/qicore-patient"]},"extension":[{"url":"http://hl7.org/fhir/us/core/StructureDefinition/us-core-race","extension":[{"url":"ombCategory","valueCoding":{"system":"urn:oid:2.16.840.1.113883.6.238","code":"2028-9","display":"Asian"}},{"url":"text","valueString":"Asian"}]},{"url":"http://hl7.org/fhir/us/core/StructureDefinition/us-core-ethnicity","extension":[{"url":"ombCategory","valueCoding":{"system":"urn:oid:2.16.840.1.113883.6.238","code":"2135-2","display":"Hispanic or Latino"}},{"url":"text","valueString":"Hispanic or Latino"}]}],"identifier":[{"system":"http://hospital.smarthealthit.org","value":"999999995"}],"name":[{"family":"DENEXPass","given":["HospiceServiceRequestDuringMP"]}],"gender":"female","birthDate":"2006-12-31"},"request":{"method":"PUT","url":"Patient/e56c60ca-d0d0-4910-af2e-1d8a074d129a"}},{"fullUrl":"https://madie.cms.gov/Encounter/Encounter-1","resource":{"resourceType":"Encounter","id":"e35cec6c-6203-4a09-82b3-6c7c3b0ce644","meta":{"profile":["http://hl7.org/fhir/us/qicore/StructureDefinition/qicore-encounter"]},"status":"finished","class":{"system":"http://terminology.hl7.org/CodeSystem/v3-ActCode","code":"AMB","display":"ambulatory"},"type":[{"coding":[{"system":"http://snomed.info/sct","code":"3391000175108","display":"Office visit for pediatric care and assessment (procedure)"}]}],"subject":{"reference":"Patient/e56c60ca-d0d0-4910-af2e-1d8a074d129a"},"period":{"start":"2025-01-01T00:00:00.000Z","end":"2025-01-01T01:00:00.000Z"}},"request":{"method":"PUT","url":"Encounter/e35cec6c-6203-4a09-82b3-6c7c3b0ce644"}},{"fullUrl":"https://madie.cms.gov/Condition/Condition-1","resource":{"resourceType":"Condition","id":"6d342bd1-9657-4ce0-91bb-558832fa1b61","meta":{"profile":["http://hl7.org/fhir/us/qicore/StructureDefinition/qicore-condition"]},"clinicalStatus":{"coding":[{"system":"http://terminology.hl7.org/CodeSystem/condition-clinical","code":"active"}]},"category":[{"coding":[{"system":"http://terminology.hl7.org/CodeSystem/condition-category","code":"problem-list-item","display":"Problem List Item"}]}],"code":{"coding":[{"system":"http://snomed.info/sct","code":"371125006","display":"Labile essential hypertension (disorder)"}]},"subject":{"reference":"Patient/e56c60ca-d0d0-4910-af2e-1d8a074d129a"},"onsetDateTime":"2025-06-30T23:59:59.000Z"},"request":{"method":"PUT","url":"Condition/6d342bd1-9657-4ce0-91bb-558832fa1b61"}},{"fullUrl":"https://madie.cms.gov/ServiceRequest/ServiceRequest-1","resource":{"resourceType":"ServiceRequest","id":"722f6127-f62f-4c33-a046-caa8e2167472","meta":{"profile":["http://hl7.org/fhir/us/qicore/StructureDefinition/qicore-servicerequest"]},"status":"completed","intent":"order","category":[{"coding":[{"system":"http://snomed.info/sct","code":"387713003","display":"Surgical procedure"}]}],"priority":"routine","code":{"coding":[{"system":"http://snomed.info/sct","code":"385763009","display":"Hospice care (regime/therapy)"}]},"subject":{"reference":"Patient/e56c60ca-d0d0-4910-af2e-1d8a074d129a"},"authoredOn":"2025-01-02T00:00:00.000Z","performerType":{"coding":[{"system":"http://snomed.info/sct","code":"405279007","display":"Attending physician (occupation)"}]}},"request":{"method":"PUT","url":"ServiceRequest/722f6127-f62f-4c33-a046-caa8e2167472"}},{"fullUrl":"https://madie.cms.gov/MeasureReport/434a1291-389e-4c41-bbda-94e6888ade48","resource":{"resourceType":"MeasureReport","id":"434a1291-389e-4c41-bbda-94e6888ade48","meta":{"profile":["http://hl7.org/fhir/us/cqfmeasures/StructureDefinition/test-case-cqfm"]},"contained":[{"resourceType":"Parameters","id":"614a74fc-10d3-446c-9431-285c05bc836b-parameters","parameter":[{"name":"subject","valueString":"e56c60ca-d0d0-4910-af2e-1d8a074d129a"}]}],"extension":[{"url":"http://hl7.org/fhir/us/cqfmeasures/StructureDefinition/cqfm-inputParameters","valueReference":{"reference":"#614a74fc-10d3-446c-9431-285c05bc836b-parameters"}},{"url":"http://hl7.org/fhir/us/cqfmeasures/StructureDefinition/cqfm-testCaseDescription","valueMarkdown":"Hospice service request during MP"}],"modifierExtension":[{"url":"http://hl7.org/fhir/us/cqfmeasures/StructureDefinition/cqfm-isTestCase","valueBoolean":true}],"status":"complete","type":"individual","measure":"https://madie.cms.gov/Measure/ControllingHighBloodPressureFHIR","period":{"start":"2025-01-01","end":"2025-12-31"},"group":[{"population":[{"code":{"coding":[{"system":"http://terminology.hl7.org/CodeSystem/measure-population","code":"initial-population","display":"Initial Population"}]},"count":1},{"code":{"coding":[{"system":"http://terminology.hl7.org/CodeSystem/measure-population","code":"denominator","display":"Denominator"}]},"count":1},{"code":{"coding":[{"system":"http://terminology.hl7.org/CodeSystem/measure-population","code":"denominator-exclusion","display":"Denominator Exclusion"}]},"count":1},{"code":{"coding":[{"system":"http://terminology.hl7.org/CodeSystem/measure-population","code":"numerator","display":"Numerator"}]},"count":0}]}]},"request":{"method":"PUT","url":"MeasureReport/434a1291-389e-4c41-bbda-94e6888ade48"}}]}