{"resourceType":"Bundle","id":"tests-30086fb9-0aea-4e5e-86cc-46f4d1aa8dd4-bundle","type":"transaction","entry":[{"fullUrl":"https://madie.cms.gov/Patient/30086fb9-0aea-4e5e-86cc-46f4d1aa8dd4","resource":{"resourceType":"Patient","id":"30086fb9-0aea-4e5e-86cc-46f4d1aa8dd4","meta":{"profile":["http://hl7.org/fhir/us/qicore/StructureDefinition/qicore-patient"]},"extension":[{"url":"http://hl7.org/fhir/us/core/StructureDefinition/us-core-race","extension":[{"url":"ombCategory","valueCoding":{"system":"urn:oid:2.16.840.1.113883.6.238","code":"2028-9","display":"Asian"}},{"url":"text","valueString":"Asian"}]},{"url":"http://hl7.org/fhir/us/core/StructureDefinition/us-core-ethnicity","extension":[{"url":"ombCategory","valueCoding":{"system":"urn:oid:2.16.840.1.113883.6.238","code":"2135-2","display":"Hispanic or Latino"}},{"url":"text","valueString":"Hispanic or Latino"}]}],"identifier":[{"system":"http://hospital.smarthealthit.org","value":"999999995"}],"name":[{"family":"DENEXPass","given":["KidneyTransplantRecipientDuringMP"]}],"gender":"female","birthDate":"2006-12-31"},"request":{"method":"PUT","url":"Patient/30086fb9-0aea-4e5e-86cc-46f4d1aa8dd4"}},{"fullUrl":"https://madie.cms.gov/Encounter/Encounter-3","resource":{"resourceType":"Encounter","id":"014dcaa9-478b-4b87-8ea2-922b96623ee2","meta":{"profile":["http://hl7.org/fhir/us/qicore/StructureDefinition/qicore-encounter"]},"status":"finished","class":{"system":"http://terminology.hl7.org/CodeSystem/v3-ActCode","code":"AMB","display":"ambulatory"},"type":[{"coding":[{"system":"http://snomed.info/sct","code":"3391000175108","display":"Office visit for pediatric care and assessment (procedure)"}]}],"subject":{"reference":"Patient/30086fb9-0aea-4e5e-86cc-46f4d1aa8dd4"},"period":{"start":"2025-01-01T00:00:00.000Z","end":"2025-01-01T01:00:00.000Z"}},"request":{"method":"PUT","url":"Encounter/014dcaa9-478b-4b87-8ea2-922b96623ee2"}},{"fullUrl":"https://madie.cms.gov/Condition/Condition-3-0","resource":{"resourceType":"Condition","id":"057b335e-bff5-4913-a6b2-3a526eb76499","meta":{"profile":["http://hl7.org/fhir/us/qicore/StructureDefinition/qicore-condition"]},"clinicalStatus":{"coding":[{"system":"http://terminology.hl7.org/CodeSystem/condition-clinical","code":"active"}]},"category":[{"coding":[{"system":"http://terminology.hl7.org/CodeSystem/condition-category","code":"problem-list-item","display":"Problem List Item"}]}],"code":{"coding":[{"system":"http://snomed.info/sct","code":"371125006","display":"Labile essential hypertension (disorder)"}]},"subject":{"reference":"Patient/30086fb9-0aea-4e5e-86cc-46f4d1aa8dd4"},"onsetDateTime":"2025-06-30T23:59:59.000Z"},"request":{"method":"PUT","url":"Condition/057b335e-bff5-4913-a6b2-3a526eb76499"}},{"fullUrl":"https://madie.cms.gov/Condition/Condition-3-1","resource":{"resourceType":"Condition","id":"d3c08130-7a18-4f39-a1ba-8407d819f9e5","meta":{"profile":["http://hl7.org/fhir/us/qicore/StructureDefinition/qicore-condition"]},"clinicalStatus":{"coding":[{"system":"http://terminology.hl7.org/CodeSystem/condition-clinical","code":"active"}]},"category":[{"coding":[{"system":"http://terminology.hl7.org/CodeSystem/condition-category","code":"problem-list-item","display":"Problem List Item"}]}],"code":{"coding":[{"system":"http://hl7.org/fhir/sid/icd-10-cm","code":"Z94.0","display":"Kidney transplant status"}]},"subject":{"reference":"Patient/30086fb9-0aea-4e5e-86cc-46f4d1aa8dd4"},"onsetDateTime":"2025-06-30T23:59:59.000Z"},"request":{"method":"PUT","url":"Condition/d3c08130-7a18-4f39-a1ba-8407d819f9e5"}},{"fullUrl":"https://madie.cms.gov/MeasureReport/e5c8b313-1fc6-447e-81c8-023b31058da1","resource":{"resourceType":"MeasureReport","id":"e5c8b313-1fc6-447e-81c8-023b31058da1","meta":{"profile":["http://hl7.org/fhir/us/cqfmeasures/StructureDefinition/test-case-cqfm"]},"contained":[{"resourceType":"Parameters","id":"7e11ac93-c7c1-4578-8597-6e859377d349-parameters","parameter":[{"name":"subject","valueString":"30086fb9-0aea-4e5e-86cc-46f4d1aa8dd4"}]}],"extension":[{"url":"http://hl7.org/fhir/us/cqfmeasures/StructureDefinition/cqfm-inputParameters","valueReference":{"reference":"#7e11ac93-c7c1-4578-8597-6e859377d349-parameters"}},{"url":"http://hl7.org/fhir/us/cqfmeasures/StructureDefinition/cqfm-testCaseDescription","valueMarkdown":"Kidney transplant recipient during MP"}],"modifierExtension":[{"url":"http://hl7.org/fhir/us/cqfmeasures/StructureDefinition/cqfm-isTestCase","valueBoolean":true}],"status":"complete","type":"individual","measure":"https://madie.cms.gov/Measure/ControllingHighBloodPressureFHIR","period":{"start":"2025-01-01","end":"2025-12-31"},"group":[{"population":[{"code":{"coding":[{"system":"http://terminology.hl7.org/CodeSystem/measure-population","code":"initial-population","display":"Initial Population"}]},"count":1},{"code":{"coding":[{"system":"http://terminology.hl7.org/CodeSystem/measure-population","code":"denominator","display":"Denominator"}]},"count":1},{"code":{"coding":[{"system":"http://terminology.hl7.org/CodeSystem/measure-population","code":"denominator-exclusion","display":"Denominator Exclusion"}]},"count":1},{"code":{"coding":[{"system":"http://terminology.hl7.org/CodeSystem/measure-population","code":"numerator","display":"Numerator"}]},"count":0}]}]},"request":{"method":"PUT","url":"MeasureReport/e5c8b313-1fc6-447e-81c8-023b31058da1"}}]}