{"resourceType":"Bundle","id":"tests-4ade2900-b5fd-4bed-bacb-1e048c83366f-bundle","type":"transaction","entry":[{"fullUrl":"https://madie.cms.gov/Patient/4ade2900-b5fd-4bed-bacb-1e048c83366f","resource":{"resourceType":"Patient","id":"4ade2900-b5fd-4bed-bacb-1e048c83366f","meta":{"profile":["http://hl7.org/fhir/us/qicore/StructureDefinition/qicore-patient"]},"extension":[{"url":"http://hl7.org/fhir/us/core/StructureDefinition/us-core-race","extension":[{"url":"ombCategory","valueCoding":{"system":"urn:oid:2.16.840.1.113883.6.238","code":"2028-9","display":"Asian"}},{"url":"text","valueString":"Asian"}]},{"url":"http://hl7.org/fhir/us/core/StructureDefinition/us-core-ethnicity","extension":[{"url":"ombCategory","valueCoding":{"system":"urn:oid:2.16.840.1.113883.6.238","code":"2135-2","display":"Hispanic or Latino"}},{"url":"text","valueString":"Hispanic or Latino"}]}],"identifier":[{"system":"http://hospital.smarthealthit.org","value":"999999995"}],"name":[{"family":"DENEXPass","given":["DialysisServiceDuringMP"]}],"gender":"female","birthDate":"2006-12-31"},"request":{"method":"PUT","url":"Patient/4ade2900-b5fd-4bed-bacb-1e048c83366f"}},{"fullUrl":"https://madie.cms.gov/Encounter/Encounter-3","resource":{"resourceType":"Encounter","id":"c8308a4d-14f5-4631-95ba-1033863add9f","meta":{"profile":["http://hl7.org/fhir/us/qicore/StructureDefinition/qicore-encounter"]},"status":"finished","class":{"system":"http://terminology.hl7.org/CodeSystem/v3-ActCode","code":"AMB","display":"ambulatory"},"type":[{"coding":[{"system":"http://snomed.info/sct","code":"3391000175108","display":"Office visit for pediatric care and assessment (procedure)"}]}],"subject":{"reference":"Patient/4ade2900-b5fd-4bed-bacb-1e048c83366f"},"period":{"start":"2025-01-01T00:00:00.000Z","end":"2025-01-01T01:00:00.000Z"}},"request":{"method":"PUT","url":"Encounter/c8308a4d-14f5-4631-95ba-1033863add9f"}},{"fullUrl":"https://madie.cms.gov/Condition/Condition-3-0","resource":{"resourceType":"Condition","id":"c42208c5-31e5-4a7e-8639-8a5bbf7d7a64","meta":{"profile":["http://hl7.org/fhir/us/qicore/StructureDefinition/qicore-condition"]},"clinicalStatus":{"coding":[{"system":"http://terminology.hl7.org/CodeSystem/condition-clinical","code":"active"}]},"category":[{"coding":[{"system":"http://terminology.hl7.org/CodeSystem/condition-category","code":"problem-list-item","display":"Problem List Item"}]}],"code":{"coding":[{"system":"http://snomed.info/sct","code":"371125006","display":"Labile essential hypertension (disorder)"}]},"subject":{"reference":"Patient/4ade2900-b5fd-4bed-bacb-1e048c83366f"},"onsetDateTime":"2025-06-30T23:59:59.000Z"},"request":{"method":"PUT","url":"Condition/c42208c5-31e5-4a7e-8639-8a5bbf7d7a64"}},{"fullUrl":"https://madie.cms.gov/Procedure/Procedure-3-1","resource":{"resourceType":"Procedure","id":"a6e5d428-00d7-4190-87ba-4666ab0f1502","meta":{"profile":["http://hl7.org/fhir/us/qicore/StructureDefinition/qicore-procedure"]},"extension":[{"url":"http://hl7.org/fhir/us/qicore/StructureDefinition/qicore-recorded","valueDateTime":"2024-12-31T00:00:00.000Z"}],"status":"completed","code":{"coding":[{"system":"http://snomed.info/sct","code":"108241001","display":"Dialysis procedure (procedure)"}]},"subject":{"reference":"Patient/4ade2900-b5fd-4bed-bacb-1e048c83366f"},"performedPeriod":{"start":"2025-12-30T00:00:00.000Z","end":"2025-12-30T23:59:59.000Z"}},"request":{"method":"PUT","url":"Procedure/a6e5d428-00d7-4190-87ba-4666ab0f1502"}},{"fullUrl":"https://madie.cms.gov/MeasureReport/cd7ffcbd-76b3-4781-b1d1-e815b5a0ac22","resource":{"resourceType":"MeasureReport","id":"cd7ffcbd-76b3-4781-b1d1-e815b5a0ac22","meta":{"profile":["http://hl7.org/fhir/us/cqfmeasures/StructureDefinition/test-case-cqfm"]},"contained":[{"resourceType":"Parameters","id":"645877e7-a12c-42fb-9377-ca575f3755be-parameters","parameter":[{"name":"subject","valueString":"4ade2900-b5fd-4bed-bacb-1e048c83366f"}]}],"extension":[{"url":"http://hl7.org/fhir/us/cqfmeasures/StructureDefinition/cqfm-inputParameters","valueReference":{"reference":"#645877e7-a12c-42fb-9377-ca575f3755be-parameters"}},{"url":"http://hl7.org/fhir/us/cqfmeasures/StructureDefinition/cqfm-testCaseDescription","valueMarkdown":"Dialysis service during MP"}],"modifierExtension":[{"url":"http://hl7.org/fhir/us/cqfmeasures/StructureDefinition/cqfm-isTestCase","valueBoolean":true}],"status":"complete","type":"individual","measure":"https://madie.cms.gov/Measure/ControllingHighBloodPressureFHIR","period":{"start":"2025-01-01","end":"2025-12-31"},"group":[{"population":[{"code":{"coding":[{"system":"http://terminology.hl7.org/CodeSystem/measure-population","code":"initial-population","display":"Initial Population"}]},"count":1},{"code":{"coding":[{"system":"http://terminology.hl7.org/CodeSystem/measure-population","code":"denominator","display":"Denominator"}]},"count":1},{"code":{"coding":[{"system":"http://terminology.hl7.org/CodeSystem/measure-population","code":"denominator-exclusion","display":"Denominator Exclusion"}]},"count":1},{"code":{"coding":[{"system":"http://terminology.hl7.org/CodeSystem/measure-population","code":"numerator","display":"Numerator"}]},"count":0}]}]},"request":{"method":"PUT","url":"MeasureReport/cd7ffcbd-76b3-4781-b1d1-e815b5a0ac22"}}]}