{"resourceType":"Bundle","id":"tests-67ee2f03-89c1-4edb-b0fa-7e07effb4477-bundle","type":"transaction","entry":[{"fullUrl":"https://madie.cms.gov/Patient/67ee2f03-89c1-4edb-b0fa-7e07effb4477","resource":{"resourceType":"Patient","id":"67ee2f03-89c1-4edb-b0fa-7e07effb4477","meta":{"profile":["http://hl7.org/fhir/us/qicore/StructureDefinition/qicore-patient"]},"extension":[{"url":"http://hl7.org/fhir/us/core/StructureDefinition/us-core-race","extension":[{"url":"ombCategory","valueCoding":{"system":"urn:oid:2.16.840.1.113883.6.238","code":"2028-9","display":"Asian"}},{"url":"text","valueString":"Asian"}]},{"url":"http://hl7.org/fhir/us/core/StructureDefinition/us-core-ethnicity","extension":[{"url":"ombCategory","valueCoding":{"system":"urn:oid:2.16.840.1.113883.6.238","code":"2135-2","display":"Hispanic or Latino"}},{"url":"text","valueString":"Hispanic or Latino"}]}],"identifier":[{"system":"http://hospital.smarthealthit.org","value":"999999995"}],"name":[{"family":"IPFail","given":["HospiceProcedureStartsAfterMP"]}],"gender":"female","birthDate":"2006-12-31"},"request":{"method":"PUT","url":"Patient/67ee2f03-89c1-4edb-b0fa-7e07effb4477"}},{"fullUrl":"https://madie.cms.gov/Encounter/Encounter-1","resource":{"resourceType":"Encounter","id":"edb9bbcc-4252-4c02-91ea-e12b65e5777f","meta":{"profile":["http://hl7.org/fhir/us/qicore/StructureDefinition/qicore-encounter"]},"status":"finished","class":{"system":"http://terminology.hl7.org/CodeSystem/v3-ActCode","code":"AMB","display":"ambulatory"},"type":[{"coding":[{"system":"http://snomed.info/sct","code":"3391000175108","display":"Office visit for pediatric care and assessment (procedure)"}]}],"subject":{"reference":"Patient/67ee2f03-89c1-4edb-b0fa-7e07effb4477"},"period":{"start":"2025-01-01T00:00:00.000Z","end":"2025-01-01T01:00:00.000Z"}},"request":{"method":"PUT","url":"Encounter/edb9bbcc-4252-4c02-91ea-e12b65e5777f"}},{"fullUrl":"https://madie.cms.gov/Condition/Condition-1","resource":{"resourceType":"Condition","id":"c6ed0717-665b-450c-8910-1c0d484166dc","meta":{"profile":["http://hl7.org/fhir/us/qicore/StructureDefinition/qicore-condition"]},"clinicalStatus":{"coding":[{"system":"http://terminology.hl7.org/CodeSystem/condition-clinical","code":"active"}]},"category":[{"coding":[{"system":"http://terminology.hl7.org/CodeSystem/condition-category","code":"problem-list-item","display":"Problem List Item"}]}],"code":{"coding":[{"system":"http://snomed.info/sct","code":"371125006","display":"Labile essential hypertension (disorder)"}]},"subject":{"reference":"Patient/67ee2f03-89c1-4edb-b0fa-7e07effb4477"},"onsetDateTime":"2025-06-30T23:59:59.000Z"},"request":{"method":"PUT","url":"Condition/c6ed0717-665b-450c-8910-1c0d484166dc"}},{"fullUrl":"https://madie.cms.gov/Procedure/Procedure-1","resource":{"resourceType":"Procedure","id":"61a22ee8-7e53-41b0-b35e-243f4bdf31fd","meta":{"profile":["http://hl7.org/fhir/us/qicore/StructureDefinition/qicore-procedure"]},"extension":[{"url":"http://hl7.org/fhir/us/qicore/StructureDefinition/qicore-recorded","valueDateTime":"2025-12-31T00:00:00.000Z"}],"status":"completed","code":{"coding":[{"system":"http://snomed.info/sct","code":"385763009","display":"Hospice care (regime/therapy)"}]},"subject":{"reference":"Patient/67ee2f03-89c1-4edb-b0fa-7e07effb4477"},"performedPeriod":{"start":"2026-01-01T00:00:00.000Z","end":"2026-01-01T01:00:00.000Z"}},"request":{"method":"PUT","url":"Procedure/61a22ee8-7e53-41b0-b35e-243f4bdf31fd"}},{"fullUrl":"https://madie.cms.gov/MeasureReport/41f23baf-e9be-4de6-9711-71a4399b7e9b","resource":{"resourceType":"MeasureReport","id":"41f23baf-e9be-4de6-9711-71a4399b7e9b","meta":{"profile":["http://hl7.org/fhir/us/cqfmeasures/StructureDefinition/test-case-cqfm"]},"contained":[{"resourceType":"Parameters","id":"b9599655-9b87-4280-b31b-a113385544b0-parameters","parameter":[{"name":"subject","valueString":"67ee2f03-89c1-4edb-b0fa-7e07effb4477"}]}],"extension":[{"url":"http://hl7.org/fhir/us/cqfmeasures/StructureDefinition/cqfm-inputParameters","valueReference":{"reference":"#b9599655-9b87-4280-b31b-a113385544b0-parameters"}},{"url":"http://hl7.org/fhir/us/cqfmeasures/StructureDefinition/cqfm-testCaseDescription","valueMarkdown":"Hospice procedure starts after MP"}],"modifierExtension":[{"url":"http://hl7.org/fhir/us/cqfmeasures/StructureDefinition/cqfm-isTestCase","valueBoolean":true}],"status":"complete","type":"individual","measure":"https://madie.cms.gov/Measure/ControllingHighBloodPressureFHIR","period":{"start":"2025-01-01","end":"2025-12-31"},"group":[{"population":[{"code":{"coding":[{"system":"http://terminology.hl7.org/CodeSystem/measure-population","code":"initial-population","display":"Initial Population"}]},"count":1},{"code":{"coding":[{"system":"http://terminology.hl7.org/CodeSystem/measure-population","code":"denominator","display":"Denominator"}]},"count":1},{"code":{"coding":[{"system":"http://terminology.hl7.org/CodeSystem/measure-population","code":"denominator-exclusion","display":"Denominator Exclusion"}]},"count":0},{"code":{"coding":[{"system":"http://terminology.hl7.org/CodeSystem/measure-population","code":"numerator","display":"Numerator"}]},"count":0}]}]},"request":{"method":"PUT","url":"MeasureReport/41f23baf-e9be-4de6-9711-71a4399b7e9b"}}]}