{"resourceType":"Bundle","id":"tests-17020c0a-0d83-4c1b-a852-74be58de4252-bundle","type":"transaction","entry":[{"fullUrl":"https://madie.cms.gov/Patient/17020c0a-0d83-4c1b-a852-74be58de4252","resource":{"resourceType":"Patient","id":"17020c0a-0d83-4c1b-a852-74be58de4252","meta":{"profile":["http://hl7.org/fhir/us/qicore/StructureDefinition/qicore-patient"]},"extension":[{"url":"http://hl7.org/fhir/us/core/StructureDefinition/us-core-race","extension":[{"url":"ombCategory","valueCoding":{"system":"urn:oid:2.16.840.1.113883.6.238","code":"2106-3","display":"White","userSelected":true}},{"url":"text","valueString":"White"}]},{"url":"http://hl7.org/fhir/us/core/StructureDefinition/us-core-ethnicity","extension":[{"url":"ombCategory","valueCoding":{"system":"urn:oid:2.16.840.1.113883.6.238","code":"2135-2","display":"Hispanic or Latino","userSelected":true}},{"url":"text","valueString":"Hispanic or Latino"}]}],"identifier":[{"type":{"coding":[{"system":"http://terminology.hl7.org/CodeSystem/v2-0203","code":"MR"}]},"system":"https://goodhealth.healthit.gov/","value":"54270cbea7ffa60ebe02488f"}],"name":[{"family":"IPFail","given":["DementiaDxEnteredInError"]}],"gender":"unknown","birthDate":"1948-06-02"},"request":{"method":"PUT","url":"Patient/17020c0a-0d83-4c1b-a852-74be58de4252"}},{"fullUrl":"https://madie.cms.gov/Condition/2300003203","resource":{"resourceType":"Condition","id":"6b1ff7b0-89be-4bda-9b39-ac5e4a8fd9cd","meta":{"profile":["http://hl7.org/fhir/us/qicore/StructureDefinition/qicore-condition"]},"verificationStatus":{"coding":[{"system":"http://terminology.hl7.org/CodeSystem/condition-ver-status","code":"entered-in-error","display":"Entered in Error","userSelected":true}]},"category":[{"coding":[{"system":"http://terminology.hl7.org/CodeSystem/condition-category","code":"encounter-diagnosis","display":"Encounter Diagnosis","userSelected":true}]}],"code":{"coding":[{"system":"http://snomed.info/sct","version":"http://snomed.info/sct/731000124108/version/20230301","code":"191463004","display":"Uncomplicated arteriosclerotic dementia (disorder)"}]},"subject":{"reference":"Patient/17020c0a-0d83-4c1b-a852-74be58de4252"},"onsetPeriod":{"start":"2023-01-15T08:00:00.000+00:00"}},"request":{"method":"PUT","url":"Condition/6b1ff7b0-89be-4bda-9b39-ac5e4a8fd9cd"}},{"fullUrl":"https://madie.cms.gov/Encounter/2300003204","resource":{"resourceType":"Encounter","id":"c066fb8a-0ad8-4360-bd43-f933916ca6bc","meta":{"profile":["http://hl7.org/fhir/us/qicore/StructureDefinition/qicore-encounter"]},"status":"finished","class":{"system":"http://terminology.hl7.org/CodeSystem/v3-ActCode","code":"AMB","display":"ambulatory","userSelected":true},"type":[{"coding":[{"system":"http://www.ama-assn.org/go/cpt","version":"2023","code":"99212","userSelected":true}]}],"subject":{"reference":"Patient/17020c0a-0d83-4c1b-a852-74be58de4252"},"period":{"start":"2025-03-02T08:00:00.000+00:00","end":"2025-03-02T08:35:00.000+00:00"}},"request":{"method":"PUT","url":"Encounter/c066fb8a-0ad8-4360-bd43-f933916ca6bc"}},{"fullUrl":"https://madie.cms.gov/Encounter/23000032017","resource":{"resourceType":"Encounter","id":"7dd21532-3e16-49ac-8328-1d2ab792c64c","meta":{"profile":["http://hl7.org/fhir/us/qicore/StructureDefinition/qicore-encounter"]},"status":"finished","class":{"system":"http://terminology.hl7.org/CodeSystem/v3-ActCode","code":"AMB","display":"ambulatory","userSelected":true},"type":[{"coding":[{"system":"http://snomed.info/sct","version":"http://snomed.info/sct/731000124108/version/20230301","code":"77406008","display":"Confirmatory medical consultation (procedure)"}]}],"subject":{"reference":"Patient/17020c0a-0d83-4c1b-a852-74be58de4252"},"period":{"start":"2025-08-15T08:00:00.000+00:00","end":"2025-08-15T08:35:00.000+00:00"}},"request":{"method":"PUT","url":"Encounter/7dd21532-3e16-49ac-8328-1d2ab792c64c"}},{"fullUrl":"https://madie.cms.gov/MeasureReport/032f67e5-e84c-4730-81e7-bea9e8e66c83","resource":{"resourceType":"MeasureReport","id":"032f67e5-e84c-4730-81e7-bea9e8e66c83","meta":{"profile":["http://hl7.org/fhir/us/cqfmeasures/StructureDefinition/test-case-cqfm"]},"contained":[{"resourceType":"Parameters","id":"51752c08-88ef-4786-ac43-bdc3d1bdf981-parameters","parameter":[{"name":"subject","valueString":"17020c0a-0d83-4c1b-a852-74be58de4252"}]}],"extension":[{"url":"http://hl7.org/fhir/us/cqfmeasures/StructureDefinition/cqfm-inputParameters","valueReference":{"reference":"#51752c08-88ef-4786-ac43-bdc3d1bdf981-parameters"}},{"url":"http://hl7.org/fhir/us/cqfmeasures/StructureDefinition/cqfm-testCaseDescription","valueMarkdown":"Dementia Diagnosis verification status is entered in error and ineligible for Initial Population/Denominator"}],"modifierExtension":[{"url":"http://hl7.org/fhir/us/cqfmeasures/StructureDefinition/cqfm-isTestCase","valueBoolean":true}],"status":"complete","type":"individual","measure":"https://madie.cms.gov/Measure/DementiaCognitiveAssessmentFHIR","period":{"start":"2025-01-01","end":"2025-12-31"},"group":[{"population":[{"code":{"coding":[{"system":"http://terminology.hl7.org/CodeSystem/measure-population","code":"initial-population","display":"Initial Population"}]},"count":0},{"code":{"coding":[{"system":"http://terminology.hl7.org/CodeSystem/measure-population","code":"denominator","display":"Denominator"}]},"count":0},{"code":{"coding":[{"system":"http://terminology.hl7.org/CodeSystem/measure-population","code":"numerator","display":"Numerator"}]},"count":0},{"code":{"coding":[{"system":"http://terminology.hl7.org/CodeSystem/measure-population","code":"denominator-exception","display":"Denominator Exception"}]},"count":0}]}]},"request":{"method":"PUT","url":"MeasureReport/032f67e5-e84c-4730-81e7-bea9e8e66c83"}}]}