{
  "resourceType": "Bundle",
  "id": "465460341631",
  "type": "transaction",
  "entry": [ {
    "fullUrl": "https://madie.cms.gov/Patient/778f4fff-72ca-4cfd-b667-8def5cd3411f",
    "resource": {
      "resourceType": "Patient",
      "id": "778f4fff-72ca-4cfd-b667-8def5cd3411f",
      "meta": {
        "profile": [ "http://hl7.org/fhir/us/qicore/StructureDefinition/qicore-patient" ]
      },
      "extension": [ {
        "url": "http://hl7.org/fhir/us/core/StructureDefinition/us-core-race",
        "extension": [ {
          "url": "ombCategory",
          "valueCoding": {
            "system": "urn:oid:2.16.840.1.113883.6.238",
            "code": "2106-3",
            "display": "White"
          }
        }, {
          "url": "text",
          "valueString": "White"
        } ]
      }, {
        "url": "http://hl7.org/fhir/us/core/StructureDefinition/us-core-ethnicity",
        "extension": [ {
          "url": "ombCategory",
          "valueCoding": {
            "system": "urn:oid:2.16.840.1.113883.6.238",
            "code": "2186-5",
            "display": "Not Hispanic or Latino"
          }
        }, {
          "url": "text",
          "valueString": "Not Hispanic or Latino"
        } ]
      } ],
      "identifier": [ {
        "type": {
          "coding": [ {
            "system": "http://terminology.hl7.org/CodeSystem/v2-0203",
            "code": "MR"
          } ]
        },
        "system": "https://bonnie-fhir.healthit.gov/",
        "value": "41835164313131"
      } ],
      "name": [ {
        "family": "IPFail",
        "given": [ "OVWithWrongCode" ]
      } ],
      "gender": "male",
      "birthDate": "1935-04-01"
    },
    "request": {
      "method": "POST",
      "url": "Patient/778f4fff-72ca-4cfd-b667-8def5cd3411f"
    }
  }, {
    "fullUrl": "https://madie.cms.gov/Encounter/46456131031",
    "resource": {
      "resourceType": "Encounter",
      "id": "46456131031",
      "meta": {
        "profile": [ "http://hl7.org/fhir/us/qicore/StructureDefinition/qicore-encounter" ]
      },
      "status": "finished",
      "class": {
        "system": "http://terminology.hl7.org/CodeSystem/v3-ActCode",
        "code": "AMB",
        "display": "ambulatory"
      },
      "type": [ {
        "coding": [ {
          "system": "http://www.ama-assn.org/go/cpt",
          "version": "2024",
          "code": "99213",
          "display": "Established patient office or other outpatient visit, 20-29 minutes"
        } ]
      } ],
      "subject": {
        "reference": "Patient/778f4fff-72ca-4cfd-b667-8def5cd3411f"
      },
      "period": {
        "start": "2025-01-03T08:00:00.000+00:00",
        "end": "2025-01-03T08:15:00.000+00:00"
      }
    },
    "request": {
      "method": "POST",
      "url": "Encounter/46456131031"
    }
  }, {
    "fullUrl": "https://madie.cms.gov/Condition/6346431354",
    "resource": {
      "resourceType": "Condition",
      "id": "6346431354",
      "meta": {
        "profile": [ "http://hl7.org/fhir/us/qicore/StructureDefinition/qicore-condition" ]
      },
      "clinicalStatus": {
        "coding": [ {
          "system": "http://terminology.hl7.org/CodeSystem/condition-clinical",
          "code": "active",
          "display": "Active"
        } ]
      },
      "verificationStatus": {
        "coding": [ {
          "system": "http://terminology.hl7.org/CodeSystem/condition-ver-status",
          "code": "confirmed",
          "display": "Confirmed"
        } ]
      },
      "category": [ {
        "coding": [ {
          "system": "http://terminology.hl7.org/CodeSystem/condition-category",
          "code": "problem-list-item",
          "display": "Problem List Item"
        } ]
      } ],
      "code": {
        "coding": [ {
          "system": "http://hl7.org/fhir/sid/icd-10-cm",
          "version": "2024",
          "code": "C67.1",
          "display": "Malignant neoplasm of dome of bladder"
        } ]
      },
      "subject": {
        "reference": "Patient/778f4fff-72ca-4cfd-b667-8def5cd3411f"
      },
      "onsetDateTime": "2024-12-20T08:00:00.000+00:00"
    },
    "request": {
      "method": "POST",
      "url": "Condition/6346431354"
    }
  }, {
    "fullUrl": "https://madie.cms.gov/Observation/7496463164",
    "resource": {
      "resourceType": "Observation",
      "id": "7496463164",
      "meta": {
        "profile": [ "http://hl7.org/fhir/us/qicore/StructureDefinition/qicore-observation" ]
      },
      "partOf": [ {
        "reference": "Procedure/313135131"
      } ],
      "status": "final",
      "category": [ {
        "coding": [ {
          "system": "http://terminology.hl7.org/CodeSystem/observation-category",
          "code": "procedure",
          "display": "Procedure"
        } ]
      } ],
      "code": {
        "coding": [ {
          "system": "http://loinc.org",
          "version": "2.76",
          "code": "21903-2",
          "display": "Stage group.pathology Cancer"
        } ]
      },
      "subject": {
        "reference": "Patient/778f4fff-72ca-4cfd-b667-8def5cd3411f"
      },
      "effectivePeriod": {
        "start": "2024-12-22T08:00:00.000+00:00",
        "end": "2024-12-22T08:15:00.000+00:00"
      },
      "issued": "2024-12-22T08:15:00.000+00:00",
      "valueCodeableConcept": {
        "coding": [ {
          "system": "http://snomed.info/sct",
          "version": "http://snomed.info/sct/731000124108/version/20240301",
          "code": "369935001",
          "display": "T1: Urinary tract tumor invades subepithelial connective tissue (finding)"
        } ]
      }
    },
    "request": {
      "method": "POST",
      "url": "Observation/7496463164"
    }
  }, {
    "fullUrl": "https://madie.cms.gov/Procedure/313135131",
    "resource": {
      "resourceType": "Procedure",
      "id": "313135131",
      "meta": {
        "profile": [ "http://hl7.org/fhir/us/qicore/StructureDefinition/qicore-procedure" ]
      },
      "extension": [ {
        "url": "http://hl7.org/fhir/us/qicore/StructureDefinition/qicore-recorded",
        "valueDateTime": "2024-12-22T08:00:00.000+00:00"
      } ],
      "status": "completed",
      "code": {
        "coding": [ {
          "system": "http://snomed.info/sct",
          "version": "http://snomed.info/sct/731000124108/version/20240301",
          "code": "254292007",
          "display": "Tumor staging"
        } ]
      },
      "subject": {
        "reference": "Patient/778f4fff-72ca-4cfd-b667-8def5cd3411f"
      },
      "performedPeriod": {
        "start": "2024-12-22T08:00:00.000+00:00",
        "end": "2024-12-22T08:15:00.000+00:00"
      }
    },
    "request": {
      "method": "POST",
      "url": "Procedure/313135131"
    }
  }, {
    "fullUrl": "https://madie.cms.gov/MeasureReport/23486a76-2308-498b-8ee4-113e87cb2fca",
    "resource": {
      "resourceType": "MeasureReport",
      "id": "23486a76-2308-498b-8ee4-113e87cb2fca",
      "meta": {
        "profile": [ "http://hl7.org/fhir/us/cqfmeasures/StructureDefinition/test-case-cqfm" ]
      },
      "contained": [ {
        "resourceType": "Parameters",
        "id": "3d3232fb-0d9d-4bc5-8bb3-67fc830202d3-parameters",
        "parameter": [ {
          "name": "subject",
          "valueString": "778f4fff-72ca-4cfd-b667-8def5cd3411f"
        } ]
      } ],
      "extension": [ {
        "url": "http://hl7.org/fhir/us/cqfmeasures/StructureDefinition/cqfm-inputParameters",
        "valueReference": {
          "reference": "#3d3232fb-0d9d-4bc5-8bb3-67fc830202d3-parameters"
        }
      }, {
        "url": "http://hl7.org/fhir/us/cqfmeasures/StructureDefinition/cqfm-testCaseDescription",
        "valueMarkdown": "Pt with bladder cancer and encounter with wrong code. Staging done.  Fails IPP as expected."
      } ],
      "modifierExtension": [ {
        "url": "http://hl7.org/fhir/us/cqfmeasures/StructureDefinition/cqfm-isTestCase",
        "valueBoolean": true
      } ],
      "status": "complete",
      "type": "individual",
      "measure": "https://madie.cms.gov/Measure/IntravesicalBacillusCalmetteGuerinForBladderCancerFHIR",
      "period": {
        "start": "2025-01-01",
        "end": "2025-12-31"
      },
      "group": [ {
        "population": [ {
          "code": {
            "coding": [ {
              "system": "http://terminology.hl7.org/CodeSystem/measure-population",
              "code": "initial-population",
              "display": "Initial Population"
            } ]
          },
          "count": 0
        }, {
          "code": {
            "coding": [ {
              "system": "http://terminology.hl7.org/CodeSystem/measure-population",
              "code": "denominator",
              "display": "Denominator"
            } ]
          },
          "count": 0
        }, {
          "code": {
            "coding": [ {
              "system": "http://terminology.hl7.org/CodeSystem/measure-population",
              "code": "denominator-exclusion",
              "display": "Denominator Exclusion"
            } ]
          },
          "count": 0
        }, {
          "code": {
            "coding": [ {
              "system": "http://terminology.hl7.org/CodeSystem/measure-population",
              "code": "numerator",
              "display": "Numerator"
            } ]
          },
          "count": 0
        }, {
          "code": {
            "coding": [ {
              "system": "http://terminology.hl7.org/CodeSystem/measure-population",
              "code": "denominator-exception",
              "display": "Denominator Exception"
            } ]
          },
          "count": 0
        } ]
      } ],
      "evaluatedResource": [ {
        "reference": "https://madie.cms.gov/Patient/778f4fff-72ca-4cfd-b667-8def5cd3411f"
      }, {
        "reference": "https://madie.cms.gov/Encounter/46456131031"
      }, {
        "reference": "https://madie.cms.gov/Condition/6346431354"
      }, {
        "reference": "https://madie.cms.gov/Observation/7496463164"
      }, {
        "reference": "https://madie.cms.gov/Procedure/313135131"
      } ]
    },
    "request": {
      "method": "POST",
      "url": "MeasureReport/23486a76-2308-498b-8ee4-113e87cb2fca"
    }
  } ]
}