{
  "resourceType": "Bundle",
  "id": "633b3f9f0968f80122503cea",
  "type": "transaction",
  "entry": [ {
    "fullUrl": "https://madie.cms.gov/Patient/a8615f09-8387-4b16-8637-76ebabb4d9f5",
    "resource": {
      "resourceType": "Patient",
      "id": "a8615f09-8387-4b16-8637-76ebabb4d9f5",
      "meta": {
        "profile": [ "http://hl7.org/fhir/us/qicore/StructureDefinition/qicore-patient" ]
      },
      "text": {
        "status": "generated",
        "div": "<div xmlns=\"http://www.w3.org/1999/xhtml\"><div class=\"hapiHeaderText\">AssPrfDELRsltDtTime_EQIPEndMinus1Min <b>DENOMPASS </b></div><table class=\"hapiPropertyTable\"><tbody><tr><td>Date of birth</td><td><span>01 February 2004</span></td></tr></tbody></table></div>"
      },
      "extension": [ {
        "url": "http://hl7.org/fhir/us/core/StructureDefinition/us-core-race",
        "extension": [ {
          "url": "ombCategory",
          "valueCoding": {
            "system": "urn:oid:2.16.840.1.113883.6.238",
            "code": "1002-5",
            "display": "American Indian or Alaska Native",
            "userSelected": true
          }
        }, {
          "url": "text",
          "valueString": "American Indian or Alaska Native"
        } ]
      }, {
        "url": "http://hl7.org/fhir/us/core/StructureDefinition/us-core-ethnicity",
        "extension": [ {
          "url": "ombCategory",
          "valueCoding": {
            "system": "urn:oid:2.16.840.1.113883.6.238",
            "code": "2135-2",
            "display": "Hispanic or Latino",
            "userSelected": true
          }
        }, {
          "url": "text",
          "valueString": "Hispanic or Latino"
        } ]
      } ],
      "identifier": [ {
        "type": {
          "coding": [ {
            "system": "http://terminology.hl7.org/CodeSystem/v2-0203",
            "code": "MR"
          } ]
        },
        "system": "https://bonnie-fhir.healthit.gov/",
        "value": "633b3f9f0968f80122503cea"
      } ],
      "active": true,
      "name": [ {
        "use": "usual",
        "family": "DENOMPass",
        "given": [ "AssPrfDELRsltDtTime_EQIPEndMinus1Min" ]
      } ],
      "gender": "female",
      "birthDate": "2004-02-01"
    },
    "request": {
      "method": "POST",
      "url": "Patient/a8615f09-8387-4b16-8637-76ebabb4d9f5"
    }
  }, {
    "fullUrl": "https://madie.cms.gov/Observation/5f29baa26f0b7100008d8af1",
    "resource": {
      "resourceType": "Observation",
      "id": "5f29baa26f0b7100008d8af1",
      "meta": {
        "profile": [ "http://hl7.org/fhir/us/qicore/StructureDefinition/qicore-observation" ]
      },
      "status": "final",
      "category": [ {
        "coding": [ {
          "system": "http://terminology.hl7.org/CodeSystem/observation-category",
          "code": "exam",
          "display": "exam",
          "userSelected": true
        } ]
      } ],
      "code": {
        "coding": [ {
          "system": "http://loinc.org",
          "code": "93857-1"
        } ]
      },
      "subject": {
        "reference": "Patient/a8615f09-8387-4b16-8637-76ebabb4d9f5"
      },
      "effectiveDateTime": "2025-02-05T08:14:00.000+00:00",
      "valueDateTime": "2025-02-05T08:14:00+00:00"
    },
    "request": {
      "method": "POST",
      "url": "Observation/5f29baa26f0b7100008d8af1"
    }
  }, {
    "fullUrl": "https://madie.cms.gov/Observation/5f29bb016f0b7100008d8b15",
    "resource": {
      "resourceType": "Observation",
      "id": "5f29bb016f0b7100008d8b15",
      "meta": {
        "profile": [ "http://hl7.org/fhir/us/qicore/StructureDefinition/qicore-observation" ]
      },
      "status": "final",
      "category": [ {
        "coding": [ {
          "system": "http://terminology.hl7.org/CodeSystem/observation-category",
          "code": "exam",
          "display": "exam",
          "userSelected": true
        } ]
      } ],
      "code": {
        "coding": [ {
          "system": "http://loinc.org",
          "code": "11778-8"
        } ]
      },
      "subject": {
        "reference": "Patient/a8615f09-8387-4b16-8637-76ebabb4d9f5"
      },
      "effectiveDateTime": "2025-02-05T08:00:00.000+00:00",
      "valueDateTime": "2025-02-01T08:00:00.000+00:00"
    },
    "request": {
      "method": "POST",
      "url": "Observation/5f29bb016f0b7100008d8b15"
    }
  }, {
    "fullUrl": "https://madie.cms.gov/Encounter/5f21e66daca3e40000cb86cf",
    "resource": {
      "resourceType": "Encounter",
      "id": "5f21e66daca3e40000cb86cf",
      "meta": {
        "profile": [ "http://hl7.org/fhir/us/qicore/StructureDefinition/qicore-encounter" ]
      },
      "status": "finished",
      "class": {
        "system": "http://terminology.hl7.org/CodeSystem/v3-ActCode",
        "code": "IMP",
        "display": "inpatient encounter"
      },
      "type": [ {
        "coding": [ {
          "system": "http://snomed.info/sct",
          "code": "183452005"
        } ]
      } ],
      "subject": {
        "reference": "Patient/a8615f09-8387-4b16-8637-76ebabb4d9f5"
      },
      "period": {
        "start": "2025-02-01T08:00:00.000Z",
        "end": "2025-02-05T08:15:00.000Z"
      }
    },
    "request": {
      "method": "POST",
      "url": "Encounter/5f21e66daca3e40000cb86cf"
    }
  }, {
    "fullUrl": "https://madie.cms.gov/Procedure/5f21e716aca3e40000cb87ee",
    "resource": {
      "resourceType": "Procedure",
      "id": "5f21e716aca3e40000cb87ee",
      "meta": {
        "profile": [ "http://hl7.org/fhir/us/qicore/StructureDefinition/qicore-procedure" ]
      },
      "extension": [ {
        "url": "http://hl7.org/fhir/us/qicore/StructureDefinition/qicore-recorded",
        "valueDateTime": "2013-04-05T09:35:00-04:00"
      } ],
      "status": "completed",
      "code": {
        "coding": [ {
          "system": "http://snomed.info/sct",
          "code": "10745001"
        } ]
      },
      "subject": {
        "reference": "Patient/a8615f09-8387-4b16-8637-76ebabb4d9f5"
      },
      "performedPeriod": {
        "start": "2025-02-01T08:00:00.000Z",
        "end": "2025-02-05T08:15:00.000Z"
      }
    },
    "request": {
      "method": "POST",
      "url": "Procedure/5f21e716aca3e40000cb87ee"
    }
  }, {
    "fullUrl": "https://madie.cms.gov/Coverage/1",
    "resource": {
      "resourceType": "Coverage",
      "id": "1",
      "meta": {
        "profile": [ "http://hl7.org/fhir/us/qicore/StructureDefinition/qicore-coverage" ]
      },
      "status": "active",
      "beneficiary": {
        "reference": "Patient/a8615f09-8387-4b16-8637-76ebabb4d9f5"
      },
      "payor": [ {
        "reference": "Organization/123456"
      } ]
    },
    "request": {
      "method": "POST",
      "url": "Coverage/1"
    }
  }, {
    "fullUrl": "https://madie.cms.gov/Organization/123456",
    "resource": {
      "resourceType": "Organization",
      "id": "123456",
      "meta": {
        "profile": [ "http://hl7.org/fhir/us/qicore/StructureDefinition/qicore-organization" ]
      },
      "identifier": [ {
        "use": "temp",
        "system": "urn:oid:2.16.840.1.113883.4.4",
        "value": "21-3259825"
      } ],
      "active": true,
      "type": [ {
        "coding": [ {
          "system": "http://terminology.hl7.org/CodeSystem/organization-type",
          "code": "pay",
          "display": "Payer"
        } ]
      } ],
      "name": "Blue Cross Blue Shield of Texas",
      "telecom": [ {
        "system": "phone",
        "value": "(+1) 972-766-6900"
      } ],
      "address": [ {
        "use": "billing",
        "type": "postal",
        "line": [ "P.O. Box 660044" ],
        "city": "Dallas",
        "state": "TX",
        "postalCode": "75266-0044",
        "country": "USA"
      } ]
    },
    "request": {
      "method": "POST",
      "url": "Organization/123456"
    }
  }, {
    "fullUrl": "https://madie.cms.gov/Practitioner/practitioner-123456",
    "resource": {
      "resourceType": "Practitioner",
      "id": "practitioner-123456",
      "identifier": [ {
        "system": "http://hl7.org/fhir/sid/us-npi",
        "value": "123456"
      } ],
      "name": [ {
        "family": "Evil",
        "prefix": [ "Dr" ]
      } ]
    },
    "request": {
      "method": "POST",
      "url": "Practitioner/practitioner-123456"
    }
  }, {
    "fullUrl": "https://madie.cms.gov/MeasureReport/122ab6f8-c451-4685-a5ca-d647ae4f26d9",
    "resource": {
      "resourceType": "MeasureReport",
      "id": "122ab6f8-c451-4685-a5ca-d647ae4f26d9",
      "meta": {
        "profile": [ "http://hl7.org/fhir/us/cqfmeasures/StructureDefinition/test-case-cqfm" ]
      },
      "contained": [ {
        "resourceType": "Parameters",
        "id": "f3dbe24e-8188-4eb1-86a2-4d715d66b527-parameters",
        "parameter": [ {
          "name": "subject",
          "valueString": "a8615f09-8387-4b16-8637-76ebabb4d9f5"
        } ]
      } ],
      "extension": [ {
        "url": "http://hl7.org/fhir/us/cqfmeasures/StructureDefinition/cqfm-inputParameters",
        "valueReference": {
          "reference": "#f3dbe24e-8188-4eb1-86a2-4d715d66b527-parameters"
        }
      }, {
        "url": "http://hl7.org/fhir/us/cqfmeasures/StructureDefinition/cqfm-testCaseDescription",
        "valueMarkdown": "Result date/Time of delivery (based on assessment performed) is equal to encounter end minus one minute\n"
      } ],
      "modifierExtension": [ {
        "url": "http://hl7.org/fhir/us/cqfmeasures/StructureDefinition/cqfm-isTestCase",
        "valueBoolean": true
      } ],
      "status": "complete",
      "type": "individual",
      "measure": "https://madie.cms.gov/Measure/SevereObstetricComplicationsFHIR",
      "period": {
        "start": "2025-01-01",
        "end": "2025-12-31"
      },
      "group": [ {
        "population": [ {
          "code": {
            "coding": [ {
              "system": "http://terminology.hl7.org/CodeSystem/measure-population",
              "code": "initial-population",
              "display": "Initial Population"
            } ]
          },
          "count": 1
        }, {
          "code": {
            "coding": [ {
              "system": "http://terminology.hl7.org/CodeSystem/measure-population",
              "code": "denominator",
              "display": "Denominator"
            } ]
          },
          "count": 1
        }, {
          "code": {
            "coding": [ {
              "system": "http://terminology.hl7.org/CodeSystem/measure-population",
              "code": "denominator-exclusion",
              "display": "Denominator Exclusion"
            } ]
          },
          "count": 0
        }, {
          "code": {
            "coding": [ {
              "system": "http://terminology.hl7.org/CodeSystem/measure-population",
              "code": "numerator",
              "display": "Numerator"
            } ]
          },
          "count": 0
        }, {
          "code": {
            "coding": [ {
              "system": "http://terminology.hl7.org/CodeSystem/measure-population",
              "code": "numerator-exclusion",
              "display": "Numerator Exclusion"
            } ]
          },
          "count": 0
        } ]
      } ],
      "evaluatedResource": [ {
        "reference": "https://madie.cms.gov/Patient/a8615f09-8387-4b16-8637-76ebabb4d9f5"
      }, {
        "reference": "https://madie.cms.gov/Observation/5f29baa26f0b7100008d8af1"
      }, {
        "reference": "https://madie.cms.gov/Observation/5f29bb016f0b7100008d8b15"
      }, {
        "reference": "https://madie.cms.gov/Encounter/5f21e66daca3e40000cb86cf"
      }, {
        "reference": "https://madie.cms.gov/Procedure/5f21e716aca3e40000cb87ee"
      }, {
        "reference": "https://madie.cms.gov/Coverage/1"
      }, {
        "reference": "https://madie.cms.gov/Organization/123456"
      }, {
        "reference": "https://madie.cms.gov/Practitioner/practitioner-123456"
      } ]
    },
    "request": {
      "method": "POST",
      "url": "MeasureReport/122ab6f8-c451-4685-a5ca-d647ae4f26d9"
    }
  } ]
}