{
  "resourceType": "Bundle",
  "id": "Patient-30-DENEXPass-MajorTransplantDurMP",
  "type": "transaction",
  "entry": [ {
    "fullUrl": "https://madie.cms.gov/Patient/e95e9a84-2d46-4e9d-aad6-bcaf93b84c8c",
    "resource": {
      "resourceType": "Patient",
      "id": "e95e9a84-2d46-4e9d-aad6-bcaf93b84c8c",
      "meta": {
        "profile": [ "http://hl7.org/fhir/us/qicore/StructureDefinition/qicore-patient" ]
      },
      "extension": [ {
        "url": "http://hl7.org/fhir/us/core/StructureDefinition/us-core-race",
        "extension": [ {
          "url": "ombCategory",
          "valueCoding": {
            "system": "urn:oid:2.16.840.1.113883.6.238",
            "code": "2028-9",
            "display": "Asian"
          }
        }, {
          "url": "text",
          "valueString": "Asian"
        } ]
      }, {
        "url": "http://hl7.org/fhir/us/core/StructureDefinition/us-core-ethnicity",
        "extension": [ {
          "url": "ombCategory",
          "valueCoding": {
            "system": "urn:oid:2.16.840.1.113883.6.238",
            "code": "2135-2",
            "display": "Hispanic or Latino"
          }
        }, {
          "url": "text",
          "valueString": "Hispanic or Latino"
        } ]
      } ],
      "identifier": [ {
        "system": "http://hospital.smarthealthit.org",
        "value": "999999995"
      } ],
      "name": [ {
        "family": "Bertha",
        "given": [ "Betty" ]
      } ],
      "gender": "female",
      "birthDate": "1975-01-01"
    },
    "request": {
      "method": "POST",
      "url": "Patient/e95e9a84-2d46-4e9d-aad6-bcaf93b84c8c"
    }
  }, {
    "fullUrl": "https://madie.cms.gov/Encounter/Encounter-30",
    "resource": {
      "resourceType": "Encounter",
      "id": "Encounter-30",
      "meta": {
        "profile": [ "http://hl7.org/fhir/us/qicore/StructureDefinition/qicore-encounter" ]
      },
      "status": "finished",
      "class": {
        "system": "http://terminology.hl7.org/CodeSystem/v3-ActCode",
        "code": "AMB",
        "display": "ambulatory"
      },
      "type": [ {
        "coding": [ {
          "system": "http://snomed.info/sct",
          "code": "185317003",
          "display": "Telephone encounter (procedure)"
        } ]
      } ],
      "subject": {
        "reference": "Patient/e95e9a84-2d46-4e9d-aad6-bcaf93b84c8c"
      },
      "period": {
        "start": "2025-01-01T00:00:00.000Z",
        "end": "2025-01-01T01:15:00.000Z"
      }
    },
    "request": {
      "method": "POST",
      "url": "Encounter/Encounter-30"
    }
  }, {
    "fullUrl": "https://madie.cms.gov/Procedure/Procedure-30",
    "resource": {
      "resourceType": "Procedure",
      "id": "Procedure-30",
      "meta": {
        "profile": [ "http://hl7.org/fhir/us/qicore/StructureDefinition/qicore-procedure" ]
      },
      "extension": [ {
        "url": "http://hl7.org/fhir/us/qicore/StructureDefinition/qicore-recorded",
        "valueDateTime": "2025-12-31T00:00:00.000Z"
      } ],
      "status": "completed",
      "code": {
        "coding": [ {
          "system": "http://snomed.info/sct",
          "code": "128531006",
          "display": "Islet cell transplant (procedure)"
        } ]
      },
      "subject": {
        "reference": "Patient/e95e9a84-2d46-4e9d-aad6-bcaf93b84c8c"
      },
      "performedPeriod": {
        "start": "2025-12-31T00:00:00.000Z",
        "end": "2025-12-31T23:59:00.000Z"
      }
    },
    "request": {
      "method": "POST",
      "url": "Procedure/Procedure-30"
    }
  }, {
    "fullUrl": "https://madie.cms.gov/MeasureReport/92252ccf-82b8-45ec-a2b5-6c6d658ae93e",
    "resource": {
      "resourceType": "MeasureReport",
      "id": "92252ccf-82b8-45ec-a2b5-6c6d658ae93e",
      "meta": {
        "profile": [ "http://hl7.org/fhir/us/cqfmeasures/StructureDefinition/test-case-cqfm" ]
      },
      "contained": [ {
        "resourceType": "Parameters",
        "id": "e12e32f0-b892-4e8a-9435-2c4ebf955522-parameters",
        "parameter": [ {
          "name": "subject",
          "valueString": "e95e9a84-2d46-4e9d-aad6-bcaf93b84c8c"
        } ]
      } ],
      "extension": [ {
        "url": "http://hl7.org/fhir/us/cqfmeasures/StructureDefinition/cqfm-inputParameters",
        "valueReference": {
          "reference": "#e12e32f0-b892-4e8a-9435-2c4ebf955522-parameters"
        }
      }, {
        "url": "http://hl7.org/fhir/us/cqfmeasures/StructureDefinition/cqfm-testCaseDescription",
        "valueMarkdown": "Patient has a major transplant during the measurement period."
      } ],
      "modifierExtension": [ {
        "url": "http://hl7.org/fhir/us/cqfmeasures/StructureDefinition/cqfm-isTestCase",
        "valueBoolean": true
      } ],
      "status": "complete",
      "type": "individual",
      "measure": "https://madie.cms.gov/Measure/AppropriateDXAScansForWomenUnder65FHIR",
      "period": {
        "start": "2025-01-01",
        "end": "2025-12-31"
      },
      "group": [ {
        "population": [ {
          "code": {
            "coding": [ {
              "system": "http://terminology.hl7.org/CodeSystem/measure-population",
              "code": "initial-population",
              "display": "Initial Population"
            } ]
          },
          "count": 1
        }, {
          "code": {
            "coding": [ {
              "system": "http://terminology.hl7.org/CodeSystem/measure-population",
              "code": "denominator",
              "display": "Denominator"
            } ]
          },
          "count": 1
        }, {
          "code": {
            "coding": [ {
              "system": "http://terminology.hl7.org/CodeSystem/measure-population",
              "code": "denominator-exclusion",
              "display": "Denominator Exclusion"
            } ]
          },
          "count": 1
        }, {
          "code": {
            "coding": [ {
              "system": "http://terminology.hl7.org/CodeSystem/measure-population",
              "code": "numerator",
              "display": "Numerator"
            } ]
          },
          "count": 0
        }, {
          "code": {
            "coding": [ {
              "system": "http://terminology.hl7.org/CodeSystem/measure-population",
              "code": "numerator-exclusion",
              "display": "Numerator Exclusion"
            } ]
          },
          "count": 0
        } ]
      } ],
      "evaluatedResource": [ {
        "reference": "https://madie.cms.gov/Patient/e95e9a84-2d46-4e9d-aad6-bcaf93b84c8c"
      }, {
        "reference": "https://madie.cms.gov/Encounter/Encounter-30"
      }, {
        "reference": "https://madie.cms.gov/Procedure/Procedure-30"
      } ]
    },
    "request": {
      "method": "POST",
      "url": "MeasureReport/92252ccf-82b8-45ec-a2b5-6c6d658ae93e"
    }
  } ]
}