{
  "resourceType": "Bundle",
  "id": "6179ead0ad1a790b7af75253",
  "type": "transaction",
  "entry": [ {
    "fullUrl": "https://madie.cms.gov/Patient/f7d55d17-b25e-4923-a880-dd79ef092ba6",
    "resource": {
      "resourceType": "Patient",
      "id": "f7d55d17-b25e-4923-a880-dd79ef092ba6",
      "meta": {
        "profile": [ "http://hl7.org/fhir/us/qicore/StructureDefinition/qicore-patient" ]
      },
      "extension": [ {
        "url": "http://hl7.org/fhir/us/core/StructureDefinition/us-core-race",
        "extension": [ {
          "url": "ombCategory",
          "valueCoding": {
            "system": "urn:oid:2.16.840.1.113883.6.238",
            "code": "2076-8",
            "display": "Native Hawaiian or Other Pacific Islander",
            "userSelected": true
          }
        }, {
          "url": "text",
          "valueString": "Native Hawaiian or Other Pacific Islander"
        } ]
      }, {
        "url": "http://hl7.org/fhir/us/core/StructureDefinition/us-core-ethnicity",
        "extension": [ {
          "url": "ombCategory",
          "valueCoding": {
            "system": "urn:oid:2.16.840.1.113883.6.238",
            "code": "2186-5",
            "display": "Not Hispanic or Latino",
            "userSelected": true
          }
        }, {
          "url": "text",
          "valueString": "Not Hispanic or Latino"
        } ]
      } ],
      "identifier": [ {
        "type": {
          "coding": [ {
            "system": "http://terminology.hl7.org/CodeSystem/v2-0203",
            "code": "MR"
          } ]
        },
        "system": "https://bonnie-fhir.healthit.gov/",
        "value": "6179ead0ad1a790b7af75253"
      } ],
      "name": [ {
        "family": "DenExcl2Pass",
        "given": [ "PxExclStartsDuringEDNoEnd" ]
      } ],
      "gender": "female",
      "birthDate": "1984-12-02"
    },
    "request": {
      "method": "POST",
      "url": "Patient/f7d55d17-b25e-4923-a880-dd79ef092ba6"
    }
  }, {
    "fullUrl": "https://madie.cms.gov/Encounter/emergency-department-visit-330a",
    "resource": {
      "resourceType": "Encounter",
      "id": "emergency-department-visit-330a",
      "meta": {
        "profile": [ "http://hl7.org/fhir/us/qicore/StructureDefinition/qicore-encounter" ]
      },
      "status": "finished",
      "class": {
        "system": "http://terminology.hl7.org/CodeSystem/v3-ActCode",
        "code": "EMER",
        "display": "emergency",
        "userSelected": true
      },
      "type": [ {
        "coding": [ {
          "system": "http://snomed.info/sct",
          "version": "2020-09",
          "code": "4525004",
          "display": "Emergency department patient visit (procedure)",
          "userSelected": true
        } ]
      } ],
      "subject": {
        "reference": "Patient/f7d55d17-b25e-4923-a880-dd79ef092ba6"
      },
      "period": {
        "start": "2025-10-09T08:05:00.000+00:00",
        "end": "2025-10-10T07:15:00.000+00:00"
      }
    },
    "request": {
      "method": "POST",
      "url": "Encounter/emergency-department-visit-330a"
    }
  }, {
    "fullUrl": "https://madie.cms.gov/Condition/stemi-330b",
    "resource": {
      "resourceType": "Condition",
      "id": "stemi-330b",
      "meta": {
        "profile": [ "http://hl7.org/fhir/us/qicore/StructureDefinition/qicore-condition" ]
      },
      "clinicalStatus": {
        "coding": [ {
          "system": "http://terminology.hl7.org/CodeSystem/condition-clinical",
          "code": "active",
          "display": "active",
          "userSelected": true
        } ]
      },
      "category": [ {
        "coding": [ {
          "system": "http://terminology.hl7.org/CodeSystem/condition-category",
          "code": "encounter-diagnosis",
          "display": "Encounter Diagnosis",
          "userSelected": true
        } ]
      } ],
      "code": {
        "coding": [ {
          "system": "http://snomed.info/sct",
          "version": "2020-09",
          "code": "401303003",
          "display": "Acute ST segment elevation myocardial infarction (disorder)",
          "userSelected": true
        } ]
      },
      "subject": {
        "reference": "Patient/f7d55d17-b25e-4923-a880-dd79ef092ba6"
      },
      "onsetDateTime": "2025-10-09T08:30:00.000+00:00"
    },
    "request": {
      "method": "POST",
      "url": "Condition/stemi-330b"
    }
  }, {
    "fullUrl": "https://madie.cms.gov/Procedure/endotracheal-intubation-524f",
    "resource": {
      "resourceType": "Procedure",
      "id": "endotracheal-intubation-524f",
      "meta": {
        "profile": [ "http://hl7.org/fhir/us/qicore/StructureDefinition/qicore-procedure" ]
      },
      "extension": [ {
        "url": "http://hl7.org/fhir/us/qicore/StructureDefinition/qicore-recorded",
        "valueDateTime": "2025-10-09T14:00:00.000+00:00"
      } ],
      "status": "completed",
      "category": {
        "coding": [ {
          "system": "http://snomed.info/sct",
          "code": "387713003",
          "display": "Surgical procedure",
          "userSelected": true
        } ]
      },
      "code": {
        "coding": [ {
          "system": "http://snomed.info/sct",
          "code": "429161001",
          "userSelected": true
        } ]
      },
      "subject": {
        "reference": "Patient/f7d55d17-b25e-4923-a880-dd79ef092ba6"
      },
      "performedPeriod": {
        "start": "2025-10-09T13:15:00.000+00:00"
      }
    },
    "request": {
      "method": "POST",
      "url": "Procedure/endotracheal-intubation-524f"
    }
  }, {
    "fullUrl": "https://madie.cms.gov/MeasureReport/5aee1e93-c08d-4f14-9430-5b97c8885963",
    "resource": {
      "resourceType": "MeasureReport",
      "id": "5aee1e93-c08d-4f14-9430-5b97c8885963",
      "meta": {
        "profile": [ "http://hl7.org/fhir/us/cqfmeasures/StructureDefinition/test-case-cqfm" ]
      },
      "contained": [ {
        "resourceType": "Parameters",
        "id": "58e2d6db-a74b-4e51-bacc-6173c031da0d-parameters",
        "parameter": [ {
          "name": "subject",
          "valueString": "f7d55d17-b25e-4923-a880-dd79ef092ba6"
        } ]
      } ],
      "extension": [ {
        "url": "http://hl7.org/fhir/us/cqfmeasures/StructureDefinition/cqfm-inputParameters",
        "valueReference": {
          "reference": "#58e2d6db-a74b-4e51-bacc-6173c031da0d-parameters"
        }
      }, {
        "url": "http://hl7.org/fhir/us/cqfmeasures/StructureDefinition/cqfm-testCaseDescription",
        "valueMarkdown": "Patient has endotracheal intubation (exclusion procedure) that starts during the ED encounter and no end"
      } ],
      "modifierExtension": [ {
        "url": "http://hl7.org/fhir/us/cqfmeasures/StructureDefinition/cqfm-isTestCase",
        "valueBoolean": true
      } ],
      "status": "complete",
      "type": "individual",
      "measure": "https://madie.cms.gov/Measure/AppropriateTreatmentforSTEMIFHIR",
      "period": {
        "start": "2025-01-01",
        "end": "2025-12-31"
      },
      "group": [ {
        "population": [ {
          "code": {
            "coding": [ {
              "system": "http://terminology.hl7.org/CodeSystem/measure-population",
              "code": "initial-population",
              "display": "Initial Population"
            } ]
          },
          "count": 1
        }, {
          "code": {
            "coding": [ {
              "system": "http://terminology.hl7.org/CodeSystem/measure-population",
              "code": "denominator",
              "display": "Denominator"
            } ]
          },
          "count": 1
        }, {
          "code": {
            "coding": [ {
              "system": "http://terminology.hl7.org/CodeSystem/measure-population",
              "code": "denominator-exclusion",
              "display": "Denominator Exclusion"
            } ]
          },
          "count": 1
        }, {
          "code": {
            "coding": [ {
              "system": "http://terminology.hl7.org/CodeSystem/measure-population",
              "code": "numerator",
              "display": "Numerator"
            } ]
          },
          "count": 0
        }, {
          "code": {
            "coding": [ {
              "system": "http://terminology.hl7.org/CodeSystem/measure-population",
              "code": "denominator-exception",
              "display": "Denominator Exception"
            } ]
          },
          "count": 0
        } ]
      } ],
      "evaluatedResource": [ {
        "reference": "Patient/f7d55d17-b25e-4923-a880-dd79ef092ba6"
      }, {
        "reference": "Encounter/emergency-department-visit-330a"
      }, {
        "reference": "Condition/stemi-330b"
      }, {
        "reference": "Procedure/endotracheal-intubation-524f"
      } ]
    },
    "request": {
      "method": "POST",
      "url": "MeasureReport/5aee1e93-c08d-4f14-9430-5b97c8885963"
    }
  } ]
}