{"resourceType":"Bundle","id":"tests-126b75b3-33c7-4a11-a022-380caa526676-bundle","type":"transaction","entry":[{"fullUrl":"https://madie.cms.gov/Patient/126b75b3-33c7-4a11-a022-380caa526676","resource":{"resourceType":"Patient","id":"126b75b3-33c7-4a11-a022-380caa526676","meta":{"profile":["http://hl7.org/fhir/us/qicore/StructureDefinition/qicore-patient"]},"text":{"status":"generated","div":"<div xmlns=\"http://www.w3.org/1999/xhtml\"><div class=\"hapiHeaderText\">EncNoMDD <b>IPPFAIL </b></div><table class=\"hapiPropertyTable\"><tbody><tr><td>Identifier</td><td>dff6b3557f4efbb68b5a08f138a69ac6cd872b3d18ad0c346f101eaac06ae9f9</td></tr><tr><td>Date of birth</td><td><span>21 December 2004</span></td></tr></tbody></table></div>"},"extension":[{"url":"http://hl7.org/fhir/us/core/StructureDefinition/us-core-race","extension":[{"url":"ombCategory","valueCoding":{"system":"urn:oid:2.16.840.1.113883.6.238","code":"1002-5","display":"American Indian or Alaska Native","userSelected":true}},{"url":"text","valueString":"American Indian or Alaska Native"}]},{"url":"http://hl7.org/fhir/us/core/StructureDefinition/us-core-ethnicity","extension":[{"url":"ombCategory","valueCoding":{"system":"urn:oid:2.16.840.1.113883.6.238","code":"2135-2","display":"Hispanic or Latino","userSelected":true}},{"url":"text","valueString":"Hispanic or Latino"}]}],"identifier":[{"type":{"coding":[{"system":"http://terminology.hl7.org/CodeSystem/v2-0203","code":"MR"}]},"system":"https://bonnie-fhir.healthit.gov/","value":"6109650598086b538055a104"}],"active":true,"name":[{"use":"usual","family":"IPFail","given":["EncWNoDx"]}],"gender":"other","birthDate":"2015-02-11"},"request":{"method":"PUT","url":"Patient/126b75b3-33c7-4a11-a022-380caa526676"}},{"fullUrl":"https://madie.cms.gov/Encounter/office-visit-c3ad","resource":{"resourceType":"Encounter","id":"b6539723-bdd5-419d-8c83-e1cffc5d7b0c","meta":{"profile":["http://hl7.org/fhir/us/qicore/StructureDefinition/qicore-encounter"]},"status":"finished","class":{"system":"http://terminology.hl7.org/CodeSystem/v3-ActCode","code":"AMB","display":"ambulatory","userSelected":true},"type":[{"coding":[{"system":"http://snomed.info/sct","code":"3391000175108","userSelected":true}]}],"subject":{"reference":"Patient/126b75b3-33c7-4a11-a022-380caa526676"},"period":{"start":"2025-01-21T09:30:00.000+00:00","end":"2025-01-21T10:05:00.000+00:00"}},"request":{"method":"PUT","url":"Encounter/b6539723-bdd5-419d-8c83-e1cffc5d7b0c"}},{"fullUrl":"https://madie.cms.gov/Coverage/1","resource":{"resourceType":"Coverage","id":"7eb53b98-6109-42bc-9452-78b5b4a00c98","meta":{"profile":["http://hl7.org/fhir/us/qicore/StructureDefinition/qicore-coverage"]},"identifier":[{"system":"http://benefitsinc.com/certificate","value":"12345"}],"status":"active","type":{"coding":[{"system":"https://nahdo.org/sopt","code":"2","userSelected":true}]},"beneficiary":{"reference":"Patient/126b75b3-33c7-4a11-a022-380caa526676"},"period":{"start":"2025-01-01T08:00:00.000+00:00","end":"2025-03-29T08:15:00.000+00:00"},"payor":[{"reference":"Organization/26111c91-b0e2-476c-a20b-e3f39799f8f5"}]},"request":{"method":"PUT","url":"Coverage/7eb53b98-6109-42bc-9452-78b5b4a00c98"}},{"fullUrl":"https://madie.cms.gov/Organization/123456","resource":{"resourceType":"Organization","id":"26111c91-b0e2-476c-a20b-e3f39799f8f5","meta":{"profile":["http://hl7.org/fhir/us/qicore/StructureDefinition/qicore-organization"]},"identifier":[{"use":"temp","system":"urn:oid:2.16.840.1.113883.4.4","value":"21-3259825"}],"active":true,"type":[{"coding":[{"system":"http://terminology.hl7.org/CodeSystem/organization-type","code":"pay","display":"Payer"}]}],"name":"Blue Cross Blue Shield of Texas","telecom":[{"system":"phone","value":"(+1) 972-766-6900"}],"address":[{"use":"billing","type":"postal","line":["P.O. Box 660044"],"city":"Dallas","state":"TX","postalCode":"75266-0044","country":"USA"}]},"request":{"method":"PUT","url":"Organization/26111c91-b0e2-476c-a20b-e3f39799f8f5"}},{"fullUrl":"https://madie.cms.gov/Practitioner/practitioner-123456","resource":{"resourceType":"Practitioner","id":"2422616a-edd2-400e-9ec3-7cbd3ec01cd3","meta":{"profile":["http://hl7.org/fhir/us/qicore/StructureDefinition/qicore-practitioner"]},"identifier":[{"system":"http://hl7.org/fhir/sid/us-npi","value":"123456"}],"name":[{"family":"Evil","prefix":["Dr"]}]},"request":{"method":"PUT","url":"Practitioner/2422616a-edd2-400e-9ec3-7cbd3ec01cd3"}},{"fullUrl":"https://madie.cms.gov/MeasureReport/0c135301-b90e-4a1d-9ad4-00eb0d8d8fc1","resource":{"resourceType":"MeasureReport","id":"0c135301-b90e-4a1d-9ad4-00eb0d8d8fc1","meta":{"profile":["http://hl7.org/fhir/us/cqfmeasures/StructureDefinition/test-case-cqfm"]},"contained":[{"resourceType":"Parameters","id":"7e17d424-b0d4-41a5-9056-a0ef2b5284b3-parameters","parameter":[{"name":"subject","valueString":"126b75b3-33c7-4a11-a022-380caa526676"}]}],"extension":[{"url":"http://hl7.org/fhir/us/cqfmeasures/StructureDefinition/cqfm-inputParameters","valueReference":{"reference":"#7e17d424-b0d4-41a5-9056-a0ef2b5284b3-parameters"}},{"url":"http://hl7.org/fhir/us/cqfmeasures/StructureDefinition/cqfm-testCaseDescription","valueMarkdown":"Patient with Office Visit during measurement period, but with no diagnosis of MDD to test Invalid Data"}],"modifierExtension":[{"url":"http://hl7.org/fhir/us/cqfmeasures/StructureDefinition/cqfm-isTestCase","valueBoolean":true}],"status":"complete","type":"individual","measure":"https://madie.cms.gov/Measure/ChildandAdolescentMajorDepressiveDisorderMDDSuicideRiskAssessmentFHIR","period":{"start":"2025-01-01","end":"2025-12-31"},"group":[{"population":[{"code":{"coding":[{"system":"http://terminology.hl7.org/CodeSystem/measure-population","code":"initial-population","display":"Initial Population"}]},"count":0},{"code":{"coding":[{"system":"http://terminology.hl7.org/CodeSystem/measure-population","code":"denominator","display":"Denominator"}]},"count":0},{"code":{"coding":[{"system":"http://terminology.hl7.org/CodeSystem/measure-population","code":"numerator","display":"Numerator"}]},"count":0}]}]},"request":{"method":"PUT","url":"MeasureReport/0c135301-b90e-4a1d-9ad4-00eb0d8d8fc1"}}]}