{"resourceType":"Bundle","id":"tests-dfbb41c5-26aa-4d9f-988b-8f02910ac5c4-bundle","type":"transaction","entry":[{"fullUrl":"https://madie.cms.gov/Patient/dfbb41c5-26aa-4d9f-988b-8f02910ac5c4","resource":{"resourceType":"Patient","id":"dfbb41c5-26aa-4d9f-988b-8f02910ac5c4","meta":{"profile":["http://hl7.org/fhir/us/qicore/StructureDefinition/qicore-patient"]},"extension":[{"url":"http://hl7.org/fhir/us/core/StructureDefinition/us-core-race","extension":[{"url":"ombCategory","valueCoding":{"system":"urn:oid:2.16.840.1.113883.6.238","code":"1002-5","display":"American Indian or Alaska Native","userSelected":true}},{"url":"text","valueString":"American Indian or Alaska Native"}]},{"url":"http://hl7.org/fhir/us/core/StructureDefinition/us-core-ethnicity","extension":[{"url":"ombCategory","valueCoding":{"system":"urn:oid:2.16.840.1.113883.6.238","code":"2186-5","display":"Not Hispanic or Latino","userSelected":true}},{"url":"text","valueString":"Not Hispanic or Latino"}]}],"identifier":[{"type":{"coding":[{"system":"http://terminology.hl7.org/CodeSystem/v2-0203","code":"MR"}]},"system":"https://bonnie-fhir.healthit.gov/","value":"64d1201f1252352a0771c3bd"}],"name":[{"family":"IPFail","given":["Age17YrOnJan1Edge"]}],"gender":"female","birthDate":"2009-01-01"},"request":{"method":"PUT","url":"Patient/dfbb41c5-26aa-4d9f-988b-8f02910ac5c4"}},{"fullUrl":"https://madie.cms.gov/Encounter/outpatient-consultation-c3be","resource":{"resourceType":"Encounter","id":"3dc8e3b5-6858-4d7b-95a0-da3c71f3fde2","status":"finished","class":{"system":"http://terminology.hl7.org/CodeSystem/v3-ActCode","code":"AMB","display":"ambulatory","userSelected":true},"type":[{"coding":[{"system":"http://www.ama-assn.org/go/cpt","code":"99242","userSelected":true}]}],"subject":{"reference":"Patient/dfbb41c5-26aa-4d9f-988b-8f02910ac5c4"},"period":{"start":"2026-11-15T09:00:00.000+00:00","end":"2026-11-15T09:48:00.000+00:00"},"diagnosis":[{"condition":{"reference":"Condition/major-depressive-disorder-active-c3bf"},"use":{"coding":[{"system":"http://snomed.info/sct","version":"2022-09","code":"77911002","display":"Severe major depression, single episode, with psychotic features, mood-congruent (disorder)","userSelected":true}]}}]},"request":{"method":"PUT","url":"Encounter/3dc8e3b5-6858-4d7b-95a0-da3c71f3fde2"}},{"fullUrl":"https://madie.cms.gov/Condition/major-depressive-disorder-active-c3bf","resource":{"resourceType":"Condition","id":"9e260480-87d5-4cd1-a07c-d901aa38b1ef","category":[{"coding":[{"system":"http://terminology.hl7.org/CodeSystem/condition-category","code":"encounter-diagnosis","display":"encounter-diagnosis","userSelected":true}]}],"code":{"coding":[{"system":"http://snomed.info/sct","version":"2022-09","code":"10811121000119102","display":"Major depressive disorder in mother complicating childbirth (disorder)","userSelected":true}]},"subject":{"reference":"Patient/dfbb41c5-26aa-4d9f-988b-8f02910ac5c4"},"recordedDate":"2026-08-07T08:00:00.000+00:00"},"request":{"method":"PUT","url":"Condition/9e260480-87d5-4cd1-a07c-d901aa38b1ef"}},{"fullUrl":"https://madie.cms.gov/Coverage/payer-6182","resource":{"resourceType":"Coverage","id":"a561011f-c87d-41f3-94e5-782444114042","status":"active","type":{"coding":[{"system":"http://www.nlm.nih.gov/research/umls/sop","version":"9.2","code":"1","display":"MEDICARE","userSelected":true}]},"beneficiary":{"reference":"Patient/dfbb41c5-26aa-4d9f-988b-8f02910ac5c4"},"period":{"start":"2026-01-01T08:00:00.000+00:00","end":"2026-12-31T08:15:00.000+00:00"},"payor":[{"reference":"Organization/26111c91-b0e2-476c-a20b-e3f39799f8f5"}]},"request":{"method":"PUT","url":"Coverage/a561011f-c87d-41f3-94e5-782444114042"}},{"fullUrl":"https://madie.cms.gov/Organization/123456","resource":{"resourceType":"Organization","id":"26111c91-b0e2-476c-a20b-e3f39799f8f5","meta":{"profile":["http://hl7.org/fhir/us/qicore/StructureDefinition/qicore-organization"]},"identifier":[{"use":"temp","system":"urn:oid:2.16.840.1.113883.4.4","value":"21-3259825"}],"active":true,"type":[{"coding":[{"system":"http://terminology.hl7.org/CodeSystem/organization-type","code":"pay","display":"Payer"}]}],"name":"Blue Cross Blue Shield of Texas","telecom":[{"system":"phone","value":"(+1) 972-766-6900"}],"address":[{"use":"billing","type":"postal","line":["P.O. Box 660044"],"city":"Dallas","state":"TX","postalCode":"75266-0044","country":"USA"}]},"request":{"method":"PUT","url":"Organization/26111c91-b0e2-476c-a20b-e3f39799f8f5"}},{"fullUrl":"https://madie.cms.gov/Practitioner/practitioner-123456","resource":{"resourceType":"Practitioner","id":"16f2a8c0-3e9f-46e7-9762-824d19d6d63c","identifier":[{"system":"http://hl7.org/fhir/sid/us-npi","value":"123456"}],"name":[{"family":"Evil","prefix":["Dr"]}]},"request":{"method":"PUT","url":"Practitioner/16f2a8c0-3e9f-46e7-9762-824d19d6d63c"}},{"fullUrl":"https://madie.cms.gov/MeasureReport/ab7b644e-5985-4917-ad95-b130af65a9f1","resource":{"resourceType":"MeasureReport","id":"ab7b644e-5985-4917-ad95-b130af65a9f1","meta":{"profile":["http://hl7.org/fhir/us/cqfmeasures/StructureDefinition/test-case-cqfm"]},"contained":[{"resourceType":"Parameters","id":"50e3b478-4e6e-439e-b403-b7f9a2466fa9-parameters","parameter":[{"name":"subject","valueString":"dfbb41c5-26aa-4d9f-988b-8f02910ac5c4"}]}],"extension":[{"url":"http://hl7.org/fhir/us/cqfmeasures/StructureDefinition/cqfm-inputParameters","valueReference":{"reference":"#50e3b478-4e6e-439e-b403-b7f9a2466fa9-parameters"}},{"url":"http://hl7.org/fhir/us/cqfmeasures/StructureDefinition/cqfm-testCaseDescription","valueMarkdown":"Patient is 17 years 0 months 0 days on Jan 1"}],"modifierExtension":[{"url":"http://hl7.org/fhir/us/cqfmeasures/StructureDefinition/cqfm-isTestCase","valueBoolean":true}],"status":"complete","type":"individual","measure":"https://madie.cms.gov/Measure/ChildandAdolescentMajorDepressiveDisorderMDDSuicideRiskAssessmentFHIR","period":{"start":"2025-01-01","end":"2025-12-31"},"group":[{"population":[{"code":{"coding":[{"system":"http://terminology.hl7.org/CodeSystem/measure-population","code":"initial-population","display":"Initial Population"}]},"count":0},{"code":{"coding":[{"system":"http://terminology.hl7.org/CodeSystem/measure-population","code":"denominator","display":"Denominator"}]},"count":0},{"code":{"coding":[{"system":"http://terminology.hl7.org/CodeSystem/measure-population","code":"numerator","display":"Numerator"}]},"count":0}]}]},"request":{"method":"PUT","url":"MeasureReport/ab7b644e-5985-4917-ad95-b130af65a9f1"}}]}