{"resourceType":"Bundle","id":"tests-b14e5a78-7cd5-4f46-ba9d-eba382000cd5-bundle","type":"transaction","entry":[{"fullUrl":"https://madie.cms.gov/Patient/b14e5a78-7cd5-4f46-ba9d-eba382000cd5","resource":{"resourceType":"Patient","id":"b14e5a78-7cd5-4f46-ba9d-eba382000cd5","meta":{"profile":["http://hl7.org/fhir/us/qicore/StructureDefinition/qicore-patient"]},"text":{"status":"generated","div":"<div xmlns=\"http://www.w3.org/1999/xhtml\"><div class=\"hapiHeaderText\">RiskAssessPsychotherapyEncrelevantDatetime <b>NUMERPASS </b></div><table class=\"hapiPropertyTable\"><tbody><tr><td>Identifier</td><td>93c3e66aae1f7f1a8106f95a744c120c</td></tr><tr><td>Date of birth</td><td><span>24 March 2001</span></td></tr></tbody></table></div>"},"extension":[{"url":"http://hl7.org/fhir/us/core/StructureDefinition/us-core-race","extension":[{"url":"ombCategory","valueCoding":{"system":"urn:oid:2.16.840.1.113883.6.238","code":"1002-5","display":"American Indian or Alaska Native","userSelected":true}},{"url":"text","valueString":"American Indian or Alaska Native"}]},{"url":"http://hl7.org/fhir/us/core/StructureDefinition/us-core-ethnicity","extension":[{"url":"ombCategory","valueCoding":{"system":"urn:oid:2.16.840.1.113883.6.238","code":"2186-5","display":"Not Hispanic or Latino","userSelected":true}},{"url":"text","valueString":"Not Hispanic or Latino"}]}],"identifier":[{"type":{"coding":[{"system":"http://terminology.hl7.org/CodeSystem/v2-0203","code":"MR"}]},"system":"https://bonnie-fhir.healthit.gov/","value":"6109650598086b538055a0dz"}],"active":true,"name":[{"use":"usual","family":"NUMPass","given":["RiskAssmtEncrelevantDatetime"]}],"gender":"male","birthDate":"2016-03-24"},"request":{"method":"PUT","url":"Patient/b14e5a78-7cd5-4f46-ba9d-eba382000cd5"}},{"fullUrl":"https://madie.cms.gov/Encounter/5c98fd1ab848464ed33e9e86","resource":{"resourceType":"Encounter","id":"e9d35ce2-52b4-4ef7-b10b-6d6be845b287","meta":{"profile":["http://hl7.org/fhir/us/qicore/StructureDefinition/qicore-encounter"]},"status":"finished","class":{"system":"http://terminology.hl7.org/CodeSystem/v3-ActCode","code":"AMB","display":"ambulatory","userSelected":true},"type":[{"coding":[{"system":"http://www.ama-assn.org/go/cpt","code":"90832"}]}],"subject":{"reference":"Patient/b14e5a78-7cd5-4f46-ba9d-eba382000cd5"},"period":{"start":"2025-07-12T11:45:00.000+00:00","end":"2025-07-12T12:15:00.000+00:00"},"length":{"value":0,"unit":"days"},"reasonCode":[{"coding":[{"system":"http://snomed.info/sct","version":"2023-09","code":"10811161000119107","display":"Major depressive disorder in mother complicating pregnancy (disorder)","userSelected":true}]}],"diagnosis":[{"condition":{"reference":"Condition/major-depressive-disorder-active-3995"},"use":{"coding":[{"system":"http://snomed.info/sct","version":"2023-09","code":"10811161000119107","display":"Major depressive disorder in mother complicating pregnancy (disorder)","userSelected":true}]}}]},"request":{"method":"PUT","url":"Encounter/e9d35ce2-52b4-4ef7-b10b-6d6be845b287"}},{"fullUrl":"https://madie.cms.gov/Condition/major-depressive-disorder-active-3995","resource":{"resourceType":"Condition","id":"eed4759b-01a4-42aa-ac7d-a8ba33a436fa","meta":{"profile":["http://hl7.org/fhir/us/qicore/StructureDefinition/qicore-condition"]},"category":[{"coding":[{"system":"http://terminology.hl7.org/CodeSystem/condition-category","code":"encounter-diagnosis","display":"Encounter Diagnosis"}]}],"code":{"coding":[{"system":"http://snomed.info/sct","version":"2023-09","code":"10811121000119102","display":"Major depressive disorder in mother complicating childbirth (disorder)","userSelected":true}]},"subject":{"reference":"Patient/b14e5a78-7cd5-4f46-ba9d-eba382000cd5"},"recordedDate":"2025-07-12T11:45:00.000+00:00"},"request":{"method":"PUT","url":"Condition/eed4759b-01a4-42aa-ac7d-a8ba33a436fa"}},{"fullUrl":"https://madie.cms.gov/Encounter/5c98fd1ab848464ed33e9e80","resource":{"resourceType":"Encounter","id":"5cd9d928-1271-4b72-873c-a3e385f61052","meta":{"profile":["http://hl7.org/fhir/us/qicore/StructureDefinition/qicore-encounter"]},"status":"finished","class":{"system":"http://terminology.hl7.org/CodeSystem/v3-ActCode","code":"AMB","display":"ambulatory","userSelected":true},"type":[{"coding":[{"system":"http://www.ama-assn.org/go/cpt","code":"99443"}]}],"subject":{"reference":"Patient/b14e5a78-7cd5-4f46-ba9d-eba382000cd5"},"period":{"start":"2025-07-14T11:45:00.000+00:00","end":"2025-07-14T12:15:00.000+00:00"},"length":{"value":0,"unit":"days"},"reasonCode":[{"coding":[{"system":"http://snomed.info/sct","version":"2023-09","code":"10811161000119107","display":"Major depressive disorder in mother complicating pregnancy (disorder)","userSelected":true}]}],"diagnosis":[{"condition":{"reference":"Condition/major-depressive-disorder-active-3995"},"use":{"coding":[{"system":"http://snomed.info/sct","version":"2023-09","code":"10811161000119107","display":"Major depressive disorder in mother complicating pregnancy (disorder)","userSelected":true}]}}]},"request":{"method":"PUT","url":"Encounter/5cd9d928-1271-4b72-873c-a3e385f61052"}},{"fullUrl":"https://madie.cms.gov/Coverage/payer-ae6a","resource":{"resourceType":"Coverage","id":"92f543d7-49ba-49eb-a2d4-efbd116734fd","meta":{"profile":["http://hl7.org/fhir/us/qicore/StructureDefinition/qicore-coverage"]},"identifier":[{"system":"http://benefitsinc.com/certificate","value":"12345"}],"status":"active","type":{"coding":[{"system":"https://nahdo.org/sopt","code":"19","userSelected":true}]},"beneficiary":{"reference":"Patient/b14e5a78-7cd5-4f46-ba9d-eba382000cd5"},"period":{"start":"2025-04-01T08:00:00.000+00:00","end":"2025-10-01T08:15:00.000+00:00"},"payor":[{"reference":"Organization/26111c91-b0e2-476c-a20b-e3f39799f8f5"}]},"request":{"method":"PUT","url":"Coverage/92f543d7-49ba-49eb-a2d4-efbd116734fd"}},{"fullUrl":"https://madie.cms.gov/Organization/123456","resource":{"resourceType":"Organization","id":"26111c91-b0e2-476c-a20b-e3f39799f8f5","meta":{"profile":["http://hl7.org/fhir/us/qicore/StructureDefinition/qicore-organization"]},"identifier":[{"use":"temp","system":"urn:oid:2.16.840.1.113883.4.4","value":"21-3259825"}],"active":true,"type":[{"coding":[{"system":"http://terminology.hl7.org/CodeSystem/organization-type","code":"pay","display":"Payer"}]}],"name":"Blue Cross Blue Shield of Texas","telecom":[{"system":"phone","value":"(+1) 972-766-6900"}],"address":[{"use":"billing","type":"postal","line":["P.O. Box 660044"],"city":"Dallas","state":"TX","postalCode":"75266-0044","country":"USA"}]},"request":{"method":"PUT","url":"Organization/26111c91-b0e2-476c-a20b-e3f39799f8f5"}},{"fullUrl":"https://madie.cms.gov/Practitioner/practitioner-123456","resource":{"resourceType":"Practitioner","id":"7e17b495-35fc-4fc0-869c-5197b205c4f4","meta":{"profile":["http://hl7.org/fhir/us/qicore/StructureDefinition/qicore-practitioner"]},"identifier":[{"system":"http://hl7.org/fhir/sid/us-npi","value":"123456"}],"name":[{"family":"Evil","prefix":["Dr"]}]},"request":{"method":"PUT","url":"Practitioner/7e17b495-35fc-4fc0-869c-5197b205c4f4"}},{"fullUrl":"https://madie.cms.gov/MeasureReport/995078b5-28ed-4839-841a-fd11f2c3b893","resource":{"resourceType":"MeasureReport","id":"995078b5-28ed-4839-841a-fd11f2c3b893","meta":{"profile":["http://hl7.org/fhir/us/cqfmeasures/StructureDefinition/test-case-cqfm"]},"contained":[{"resourceType":"Parameters","id":"61ae5497-89cb-4a94-9132-97ec55077212-parameters","parameter":[{"name":"subject","valueString":"b14e5a78-7cd5-4f46-ba9d-eba382000cd5"}]}],"extension":[{"url":"http://hl7.org/fhir/us/cqfmeasures/StructureDefinition/cqfm-inputParameters","valueReference":{"reference":"#61ae5497-89cb-4a94-9132-97ec55077212-parameters"}},{"url":"http://hl7.org/fhir/us/cqfmeasures/StructureDefinition/cqfm-testCaseDescription","valueMarkdown":"Patient has multiple encounters with MDD diagnosis during the measurement period with no suicide risk assessment. "}],"modifierExtension":[{"url":"http://hl7.org/fhir/us/cqfmeasures/StructureDefinition/cqfm-isTestCase","valueBoolean":true}],"status":"complete","type":"individual","measure":"https://madie.cms.gov/Measure/ChildandAdolescentMajorDepressiveDisorderMDDSuicideRiskAssessmentFHIR","period":{"start":"2025-01-01","end":"2025-12-31"},"group":[{"population":[{"code":{"coding":[{"system":"http://terminology.hl7.org/CodeSystem/measure-population","code":"initial-population","display":"Initial Population"}]},"count":2},{"code":{"coding":[{"system":"http://terminology.hl7.org/CodeSystem/measure-population","code":"denominator","display":"Denominator"}]},"count":2},{"code":{"coding":[{"system":"http://terminology.hl7.org/CodeSystem/measure-population","code":"numerator","display":"Numerator"}]},"count":0}]}]},"request":{"method":"PUT","url":"MeasureReport/995078b5-28ed-4839-841a-fd11f2c3b893"}}]}