{
  "resourceType": "Bundle",
  "id": "63530623224f3b053967124d",
  "type": "transaction",
  "entry": [ {
    "fullUrl": "https://madie.cms.gov/Patient/f8c34d1e-dfbb-4459-b7c7-ecf0dc6f7c2f",
    "resource": {
      "resourceType": "Patient",
      "id": "f8c34d1e-dfbb-4459-b7c7-ecf0dc6f7c2f",
      "meta": {
        "profile": [ "http://hl7.org/fhir/us/qicore/StructureDefinition/qicore-patient" ]
      },
      "extension": [ {
        "url": "http://hl7.org/fhir/us/core/StructureDefinition/us-core-race",
        "extension": [ {
          "url": "ombCategory",
          "valueCoding": {
            "system": "urn:oid:2.16.840.1.113883.6.238",
            "code": "1002-5",
            "display": "American Indian or Alaska Native",
            "userSelected": true
          }
        }, {
          "url": "text",
          "valueString": "American Indian or Alaska Native"
        } ]
      }, {
        "url": "http://hl7.org/fhir/us/core/StructureDefinition/us-core-ethnicity",
        "extension": [ {
          "url": "ombCategory",
          "valueCoding": {
            "system": "urn:oid:2.16.840.1.113883.6.238",
            "code": "2135-2",
            "display": "Hispanic or Latino",
            "userSelected": true
          }
        }, {
          "url": "text",
          "valueString": "Hispanic or Latino"
        } ]
      } ],
      "identifier": [ {
        "type": {
          "coding": [ {
            "system": "http://terminology.hl7.org/CodeSystem/v2-0203",
            "code": "MR"
          } ]
        },
        "system": "https://bonnie-fhir.healthit.gov/",
        "value": "63530623224f3b053967124d"
      } ],
      "name": [ {
        "family": "DENOMPass",
        "given": [ "EDD24HrsB4TimeOfDel " ]
      } ],
      "gender": "female",
      "birthDate": "2004-02-01"
    },
    "request": {
      "method": "POST",
      "url": "Patient/f8c34d1e-dfbb-4459-b7c7-ecf0dc6f7c2f"
    }
  }, {
    "fullUrl": "https://madie.cms.gov/Encounter/encounter-inpatient-1248",
    "resource": {
      "resourceType": "Encounter",
      "id": "encounter-inpatient-1248",
      "meta": {
        "profile": [ "http://hl7.org/fhir/us/qicore/StructureDefinition/qicore-encounter" ]
      },
      "status": "finished",
      "class": {
        "system": "http://terminology.hl7.org/CodeSystem/v3-ActCode",
        "code": "IMP",
        "display": "inpatient encounter"
      },
      "type": [ {
        "coding": [ {
          "system": "http://snomed.info/sct",
          "version": "2022-09",
          "code": "183452005",
          "display": "Emergency hospital admission (procedure)",
          "userSelected": true
        } ]
      } ],
      "subject": {
        "reference": "Patient/f8c34d1e-dfbb-4459-b7c7-ecf0dc6f7c2f"
      },
      "period": {
        "start": "2025-02-01T08:00:00.000+00:00",
        "end": "2025-02-05T08:15:00.000+00:00"
      },
      "diagnosis": [ {
        "condition": {
          "reference": "Condition/delivery-of-singleton-f83c"
        },
        "use": {
          "coding": [ {
            "system": "http://snomed.info/sct",
            "code": "169826009",
            "display": "Delivery of Singleton"
          } ]
        }
      } ]
    },
    "request": {
      "method": "POST",
      "url": "Encounter/encounter-inpatient-1248"
    }
  }, {
    "fullUrl": "https://madie.cms.gov/Procedure/delivery-procedures-1249",
    "resource": {
      "resourceType": "Procedure",
      "id": "delivery-procedures-1249",
      "meta": {
        "profile": [ "http://hl7.org/fhir/us/qicore/StructureDefinition/qicore-procedure" ]
      },
      "extension": [ {
        "url": "http://hl7.org/fhir/us/qicore/StructureDefinition/qicore-recorded",
        "valueDateTime": "2013-04-05T09:35:00-04:00"
      } ],
      "status": "completed",
      "code": {
        "coding": [ {
          "system": "http://www.cms.gov/Medicare/Coding/ICD10",
          "code": "10D07Z3"
        }, {
          "system": "http://www.icd10data.com/icd10pcs",
          "code": "10D07Z3",
          "userSelected": true
        } ]
      },
      "subject": {
        "reference": "Patient/f8c34d1e-dfbb-4459-b7c7-ecf0dc6f7c2f"
      },
      "performedPeriod": {
        "start": "2025-02-01T08:00:00.000+00:00",
        "end": "2025-02-05T08:15:00.000+00:00"
      }
    },
    "request": {
      "method": "POST",
      "url": "Procedure/delivery-procedures-1249"
    }
  }, {
    "fullUrl": "https://madie.cms.gov/Observation/date-and-time-of-obstetric-delivery-124a",
    "resource": {
      "resourceType": "Observation",
      "id": "date-and-time-of-obstetric-delivery-124a",
      "meta": {
        "profile": [ "http://hl7.org/fhir/us/qicore/StructureDefinition/qicore-observation" ]
      },
      "status": "final",
      "category": [ {
        "coding": [ {
          "system": "http://terminology.hl7.org/CodeSystem/observation-category",
          "code": "exam",
          "display": "exam",
          "userSelected": true
        } ]
      } ],
      "code": {
        "coding": [ {
          "system": "http://loinc.org",
          "code": "93857-1",
          "display": "Date and time of obstetric delivery",
          "userSelected": true
        } ]
      },
      "subject": {
        "reference": "Patient/f8c34d1e-dfbb-4459-b7c7-ecf0dc6f7c2f"
      },
      "effectiveDateTime": "2025-02-01T08:00:00.000+00:00",
      "valueDateTime": "2025-02-01T08:00:00.000+00:00"
    },
    "request": {
      "method": "POST",
      "url": "Observation/date-and-time-of-obstetric-delivery-124a"
    }
  }, {
    "fullUrl": "https://madie.cms.gov/Observation/delivery-date-estimated-124b",
    "resource": {
      "resourceType": "Observation",
      "id": "delivery-date-estimated-124b",
      "meta": {
        "profile": [ "http://hl7.org/fhir/us/qicore/StructureDefinition/qicore-observation" ]
      },
      "status": "final",
      "category": [ {
        "coding": [ {
          "system": "http://terminology.hl7.org/CodeSystem/observation-category",
          "code": "exam",
          "display": "exam",
          "userSelected": true
        } ]
      } ],
      "code": {
        "coding": [ {
          "system": "http://loinc.org",
          "code": "11778-8",
          "display": "Delivery date Estimated",
          "userSelected": true
        } ]
      },
      "subject": {
        "reference": "Patient/f8c34d1e-dfbb-4459-b7c7-ecf0dc6f7c2f"
      },
      "effectiveDateTime": "2025-01-31T08:00:00.000+00:00",
      "valueDateTime": "2025-01-31T08:00:00.000+00:00"
    },
    "request": {
      "method": "POST",
      "url": "Observation/delivery-date-estimated-124b"
    }
  }, {
    "fullUrl": "https://madie.cms.gov/Coverage/1",
    "resource": {
      "resourceType": "Coverage",
      "id": "1",
      "meta": {
        "profile": [ "http://hl7.org/fhir/us/qicore/StructureDefinition/qicore-coverage" ]
      },
      "status": "active",
      "beneficiary": {
        "reference": "Patient/f8c34d1e-dfbb-4459-b7c7-ecf0dc6f7c2f"
      },
      "payor": [ {
        "reference": "Organization/123456"
      } ]
    },
    "request": {
      "method": "POST",
      "url": "Coverage/1"
    }
  }, {
    "fullUrl": "https://madie.cms.gov/Organization/123456",
    "resource": {
      "resourceType": "Organization",
      "id": "123456",
      "meta": {
        "profile": [ "http://hl7.org/fhir/us/qicore/StructureDefinition/qicore-organization" ]
      },
      "identifier": [ {
        "use": "temp",
        "system": "urn:oid:2.16.840.1.113883.4.4",
        "value": "21-3259825"
      } ],
      "active": true,
      "type": [ {
        "coding": [ {
          "system": "http://terminology.hl7.org/CodeSystem/organization-type",
          "code": "pay",
          "display": "Payer"
        } ]
      } ],
      "name": "Blue Cross Blue Shield of Texas",
      "telecom": [ {
        "system": "phone",
        "value": "(+1) 972-766-6900"
      } ],
      "address": [ {
        "use": "billing",
        "type": "postal",
        "line": [ "P.O. Box 660044" ],
        "city": "Dallas",
        "state": "TX",
        "postalCode": "75266-0044",
        "country": "USA"
      } ]
    },
    "request": {
      "method": "POST",
      "url": "Organization/123456"
    }
  }, {
    "fullUrl": "https://madie.cms.gov/Practitioner/practitioner-123456",
    "resource": {
      "resourceType": "Practitioner",
      "id": "practitioner-123456",
      "identifier": [ {
        "system": "http://hl7.org/fhir/sid/us-npi",
        "value": "123456"
      } ],
      "name": [ {
        "family": "Evil",
        "prefix": [ "Dr" ]
      } ]
    },
    "request": {
      "method": "POST",
      "url": "Practitioner/practitioner-123456"
    }
  }, {
    "fullUrl": "https://madie.cms.gov/MeasureReport/00c010e0-d3f2-40fa-a9d9-838197aa7ab9",
    "resource": {
      "resourceType": "MeasureReport",
      "id": "00c010e0-d3f2-40fa-a9d9-838197aa7ab9",
      "meta": {
        "profile": [ "http://hl7.org/fhir/us/cqfmeasures/StructureDefinition/test-case-cqfm" ]
      },
      "contained": [ {
        "resourceType": "Parameters",
        "id": "7f9a8b17-e848-4071-8bf7-9aa1b0096007-parameters",
        "parameter": [ {
          "name": "subject",
          "valueString": "f8c34d1e-dfbb-4459-b7c7-ecf0dc6f7c2f"
        } ]
      } ],
      "extension": [ {
        "url": "http://hl7.org/fhir/us/cqfmeasures/StructureDefinition/cqfm-inputParameters",
        "valueReference": {
          "reference": "#7f9a8b17-e848-4071-8bf7-9aa1b0096007-parameters"
        }
      }, {
        "url": "http://hl7.org/fhir/us/cqfmeasures/StructureDefinition/cqfm-testCaseDescription",
        "valueMarkdown": "Last assessment Performed, Estimated Delivery Date, Relevant time, 24 hours before Delivery Result Date/Time.  EDD has date/time\n"
      } ],
      "modifierExtension": [ {
        "url": "http://hl7.org/fhir/us/cqfmeasures/StructureDefinition/cqfm-isTestCase",
        "valueBoolean": true
      } ],
      "status": "complete",
      "type": "individual",
      "measure": "https://madie.cms.gov/Measure/SevereObstetricComplicationsFHIR",
      "period": {
        "start": "2025-01-01",
        "end": "2025-12-31"
      },
      "group": [ {
        "population": [ {
          "code": {
            "coding": [ {
              "system": "http://terminology.hl7.org/CodeSystem/measure-population",
              "code": "initial-population",
              "display": "Initial Population"
            } ]
          },
          "count": 1
        }, {
          "code": {
            "coding": [ {
              "system": "http://terminology.hl7.org/CodeSystem/measure-population",
              "code": "denominator",
              "display": "Denominator"
            } ]
          },
          "count": 1
        }, {
          "code": {
            "coding": [ {
              "system": "http://terminology.hl7.org/CodeSystem/measure-population",
              "code": "denominator-exclusion",
              "display": "Denominator Exclusion"
            } ]
          },
          "count": 0
        }, {
          "code": {
            "coding": [ {
              "system": "http://terminology.hl7.org/CodeSystem/measure-population",
              "code": "numerator",
              "display": "Numerator"
            } ]
          },
          "count": 0
        }, {
          "code": {
            "coding": [ {
              "system": "http://terminology.hl7.org/CodeSystem/measure-population",
              "code": "numerator-exclusion",
              "display": "Numerator Exclusion"
            } ]
          },
          "count": 0
        } ]
      } ],
      "evaluatedResource": [ {
        "reference": "https://madie.cms.gov/Patient/f8c34d1e-dfbb-4459-b7c7-ecf0dc6f7c2f"
      }, {
        "reference": "https://madie.cms.gov/Encounter/encounter-inpatient-1248"
      }, {
        "reference": "https://madie.cms.gov/Procedure/delivery-procedures-1249"
      }, {
        "reference": "https://madie.cms.gov/Observation/date-and-time-of-obstetric-delivery-124a"
      }, {
        "reference": "https://madie.cms.gov/Observation/delivery-date-estimated-124b"
      }, {
        "reference": "https://madie.cms.gov/Coverage/1"
      }, {
        "reference": "https://madie.cms.gov/Organization/123456"
      }, {
        "reference": "https://madie.cms.gov/Practitioner/practitioner-123456"
      } ]
    },
    "request": {
      "method": "POST",
      "url": "MeasureReport/00c010e0-d3f2-40fa-a9d9-838197aa7ab9"
    }
  } ]
}