{"resourceType":"Bundle","id":"tests-fd8d8328-c766-4c9f-a463-ec53957e0276-bundle","type":"transaction","entry":[{"fullUrl":"https://madie.cms.gov/Patient/fd8d8328-c766-4c9f-a463-ec53957e0276","resource":{"resourceType":"Patient","id":"fd8d8328-c766-4c9f-a463-ec53957e0276","meta":{"profile":["http://hl7.org/fhir/us/qicore/StructureDefinition/qicore-patient"]},"extension":[{"url":"http://hl7.org/fhir/us/core/StructureDefinition/us-core-race","extension":[{"url":"ombCategory","valueCoding":{"system":"urn:oid:2.16.840.1.113883.6.238","code":"2028-9","display":"Asian"}},{"url":"text","valueString":"Asian"}]},{"url":"http://hl7.org/fhir/us/core/StructureDefinition/us-core-ethnicity","extension":[{"url":"ombCategory","valueCoding":{"system":"urn:oid:2.16.840.1.113883.6.238","code":"2135-2","display":"Hispanic or Latino"}},{"url":"text","valueString":"Hispanic or Latino"}]}],"identifier":[{"system":"http://hospital.smarthealthit.org","value":"999999995"}],"name":[{"family":"Bertha","given":["Betty"]}],"gender":"female","birthDate":"1979-12-31"},"request":{"method":"PUT","url":"Patient/fd8d8328-c766-4c9f-a463-ec53957e0276"}},{"fullUrl":"https://madie.cms.gov/Encounter/Encounter-5","resource":{"resourceType":"Encounter","id":"211d4d42-d3e2-442e-98d4-d2f14b6f2aa9","meta":{"profile":["http://hl7.org/fhir/us/qicore/StructureDefinition/qicore-encounter"]},"status":"finished","class":{"system":"http://terminology.hl7.org/CodeSystem/v3-ActCode","code":"AMB","display":"ambulatory"},"type":[{"coding":[{"system":"http://snomed.info/sct","code":"185317003","display":"Telephone encounter (procedure)"}]}],"subject":{"reference":"Patient/fd8d8328-c766-4c9f-a463-ec53957e0276"},"period":{"start":"2025-01-01T01:00:00.000Z","end":"2025-01-01T01:15:00.000Z"}},"request":{"method":"PUT","url":"Encounter/211d4d42-d3e2-442e-98d4-d2f14b6f2aa9"}},{"fullUrl":"https://madie.cms.gov/Encounter/Encounter-6","resource":{"resourceType":"Encounter","id":"41480aa5-235c-43af-901e-39d76cfbdf60","meta":{"profile":["http://hl7.org/fhir/us/qicore/StructureDefinition/qicore-encounter"]},"status":"finished","class":{"system":"http://terminology.hl7.org/CodeSystem/v3-ActCode","code":"AMB","display":"ambulatory"},"type":[{"coding":[{"system":"http://snomed.info/sct","code":"305336008","display":"Admission to hospice (procedure)"}]}],"subject":{"reference":"Patient/fd8d8328-c766-4c9f-a463-ec53957e0276"},"period":{"start":"2024-12-31T23:59:00.000Z","end":"2024-12-31T23:59:00.000Z"}},"request":{"method":"PUT","url":"Encounter/41480aa5-235c-43af-901e-39d76cfbdf60"}},{"fullUrl":"https://madie.cms.gov/MeasureReport/e5fa2af8-8701-4c0d-aec9-97c92083449b","resource":{"resourceType":"MeasureReport","id":"e5fa2af8-8701-4c0d-aec9-97c92083449b","meta":{"profile":["http://hl7.org/fhir/us/cqfmeasures/StructureDefinition/test-case-cqfm"]},"contained":[{"resourceType":"Parameters","id":"8e9e9bc9-5c13-446a-a4d7-89d36186939c-parameters","parameter":[{"name":"subject","valueString":"fd8d8328-c766-4c9f-a463-ec53957e0276"}]}],"extension":[{"url":"http://hl7.org/fhir/us/cqfmeasures/StructureDefinition/cqfm-inputParameters","valueReference":{"reference":"#8e9e9bc9-5c13-446a-a4d7-89d36186939c-parameters"}},{"url":"http://hl7.org/fhir/us/cqfmeasures/StructureDefinition/cqfm-testCaseDescription","valueMarkdown":"Patient has a hospice encounter the year prior to the measurement period."}],"modifierExtension":[{"url":"http://hl7.org/fhir/us/cqfmeasures/StructureDefinition/cqfm-isTestCase","valueBoolean":true}],"status":"complete","type":"individual","measure":"https://madie.cms.gov/Measure/ColonCancerScreeningFHIR","period":{"start":"2025-01-01","end":"2025-12-31"},"group":[{"population":[{"code":{"coding":[{"system":"http://terminology.hl7.org/CodeSystem/measure-population","code":"initial-population","display":"Initial Population"}]},"count":1},{"code":{"coding":[{"system":"http://terminology.hl7.org/CodeSystem/measure-population","code":"denominator","display":"Denominator"}]},"count":1},{"code":{"coding":[{"system":"http://terminology.hl7.org/CodeSystem/measure-population","code":"denominator-exclusion","display":"Denominator Exclusion"}]},"count":0},{"code":{"coding":[{"system":"http://terminology.hl7.org/CodeSystem/measure-population","code":"numerator","display":"Numerator"}]},"count":0}]}]},"request":{"method":"PUT","url":"MeasureReport/e5fa2af8-8701-4c0d-aec9-97c92083449b"}}]}