{"resourceType":"Bundle","id":"tests-be630df2-cc71-47b9-a600-a715912f90be-bundle","type":"transaction","entry":[{"fullUrl":"https://madie.cms.gov/Patient/be630df2-cc71-47b9-a600-a715912f90be","resource":{"resourceType":"Patient","id":"be630df2-cc71-47b9-a600-a715912f90be","meta":{"profile":["http://hl7.org/fhir/us/qicore/StructureDefinition/qicore-patient"]},"extension":[{"url":"http://hl7.org/fhir/us/core/StructureDefinition/us-core-race","extension":[{"url":"ombCategory","valueCoding":{"system":"urn:oid:2.16.840.1.113883.6.238","code":"2028-9","display":"Asian"}},{"url":"text","valueString":"Asian"}]},{"url":"http://hl7.org/fhir/us/core/StructureDefinition/us-core-ethnicity","extension":[{"url":"ombCategory","valueCoding":{"system":"urn:oid:2.16.840.1.113883.6.238","code":"2135-2","display":"Hispanic or Latino"}},{"url":"text","valueString":"Hispanic or Latino"}]}],"identifier":[{"system":"http://hospital.smarthealthit.org","value":"999999995"}],"name":[{"family":"Bertha","given":["Betty"]}],"gender":"female","birthDate":"1979-01-01"},"request":{"method":"PUT","url":"Patient/be630df2-cc71-47b9-a600-a715912f90be"}},{"fullUrl":"https://madie.cms.gov/Encounter/Encounter-19","resource":{"resourceType":"Encounter","id":"1c30f0dd-a97a-49a3-93b9-82bbbb4e79b6","meta":{"profile":["http://hl7.org/fhir/us/qicore/StructureDefinition/qicore-encounter"]},"status":"finished","class":{"system":"http://terminology.hl7.org/CodeSystem/v3-ActCode","code":"AMB","display":"ambulatory"},"type":[{"coding":[{"system":"http://snomed.info/sct","code":"185317003","display":"Telephone encounter (procedure)"}]}],"subject":{"reference":"Patient/be630df2-cc71-47b9-a600-a715912f90be"},"period":{"start":"2025-01-01T01:00:00.000Z","end":"2025-01-01T01:15:00.000Z"}},"request":{"method":"PUT","url":"Encounter/1c30f0dd-a97a-49a3-93b9-82bbbb4e79b6"}},{"fullUrl":"https://madie.cms.gov/Observation/Observation-5","resource":{"resourceType":"Observation","id":"57ae4bf9-51b5-4e3f-b790-851fa7e59d36","meta":{"profile":["http://hl7.org/fhir/us/qicore/StructureDefinition/qicore-observation"]},"status":"corrected","category":[{"coding":[{"system":"http://terminology.hl7.org/CodeSystem/observation-category","code":"laboratory"}]}],"code":{"coding":[{"system":"http://loinc.org","code":"77353-1","display":"Noninvasive colorectal cancer DNA and occult blood screening [Interpretation] in Stool Narrative"}]},"subject":{"reference":"Patient/be630df2-cc71-47b9-a600-a715912f90be"},"effectivePeriod":{"start":"2025-01-01T01:00:00.000Z","end":"2025-01-01T01:15:00.000Z"},"valueCodeableConcept":{"coding":[{"system":"http://snomed.info/sct","code":"373066001","display":"Yes (qualifier value)"}]}},"request":{"method":"PUT","url":"Observation/57ae4bf9-51b5-4e3f-b790-851fa7e59d36"}},{"fullUrl":"https://madie.cms.gov/MeasureReport/fd0ef13b-6be9-4895-a424-231fa3a4b47c","resource":{"resourceType":"MeasureReport","id":"fd0ef13b-6be9-4895-a424-231fa3a4b47c","meta":{"profile":["http://hl7.org/fhir/us/cqfmeasures/StructureDefinition/test-case-cqfm"]},"contained":[{"resourceType":"Parameters","id":"9cc37937-36b3-4b7a-8031-284b53d9618a-parameters","parameter":[{"name":"subject","valueString":"be630df2-cc71-47b9-a600-a715912f90be"}]}],"extension":[{"url":"http://hl7.org/fhir/us/cqfmeasures/StructureDefinition/cqfm-inputParameters","valueReference":{"reference":"#9cc37937-36b3-4b7a-8031-284b53d9618a-parameters"}},{"url":"http://hl7.org/fhir/us/cqfmeasures/StructureDefinition/cqfm-testCaseDescription","valueMarkdown":"Patient has an Stool DNA (sDNA) with FIT test during the measurement period."}],"modifierExtension":[{"url":"http://hl7.org/fhir/us/cqfmeasures/StructureDefinition/cqfm-isTestCase","valueBoolean":true}],"status":"complete","type":"individual","measure":"https://madie.cms.gov/Measure/ColonCancerScreeningFHIR","period":{"start":"2025-01-01","end":"2025-12-31"},"group":[{"population":[{"code":{"coding":[{"system":"http://terminology.hl7.org/CodeSystem/measure-population","code":"initial-population","display":"Initial Population"}]},"count":1},{"code":{"coding":[{"system":"http://terminology.hl7.org/CodeSystem/measure-population","code":"denominator","display":"Denominator"}]},"count":1},{"code":{"coding":[{"system":"http://terminology.hl7.org/CodeSystem/measure-population","code":"denominator-exclusion","display":"Denominator Exclusion"}]},"count":0},{"code":{"coding":[{"system":"http://terminology.hl7.org/CodeSystem/measure-population","code":"numerator","display":"Numerator"}]},"count":1}]}]},"request":{"method":"PUT","url":"MeasureReport/fd0ef13b-6be9-4895-a424-231fa3a4b47c"}}]}