{"resourceType":"Bundle","id":"tests-39fd4a5e-0db2-478d-ba85-4400a1b7e35e-bundle","type":"transaction","entry":[{"fullUrl":"https://madie.cms.gov/Patient/39fd4a5e-0db2-478d-ba85-4400a1b7e35e","resource":{"resourceType":"Patient","id":"39fd4a5e-0db2-478d-ba85-4400a1b7e35e","meta":{"profile":["http://hl7.org/fhir/us/qicore/StructureDefinition/qicore-patient"]},"extension":[{"url":"http://hl7.org/fhir/us/core/StructureDefinition/us-core-race","extension":[{"url":"ombCategory","valueCoding":{"system":"urn:oid:2.16.840.1.113883.6.238","code":"2028-9","display":"Asian"}},{"url":"text","valueString":"Asian"}]},{"url":"http://hl7.org/fhir/us/core/StructureDefinition/us-core-ethnicity","extension":[{"url":"ombCategory","valueCoding":{"system":"urn:oid:2.16.840.1.113883.6.238","code":"2135-2","display":"Hispanic or Latino"}},{"url":"text","valueString":"Hispanic or Latino"}]}],"identifier":[{"system":"http://hospital.smarthealthit.org","value":"999999995"}],"name":[{"family":"Bertha","given":["Betty"]}],"gender":"female","birthDate":"1958-12-31"},"request":{"method":"PUT","url":"Patient/39fd4a5e-0db2-478d-ba85-4400a1b7e35e"}},{"fullUrl":"https://madie.cms.gov/Encounter/Encounter-39","resource":{"resourceType":"Encounter","id":"76a8c303-994e-4720-b285-25c5a25874b7","meta":{"profile":["http://hl7.org/fhir/us/qicore/StructureDefinition/qicore-encounter"]},"status":"finished","class":{"system":"http://terminology.hl7.org/CodeSystem/v3-ActCode","code":"AMB","display":"ambulatory"},"type":[{"coding":[{"system":"http://snomed.info/sct","code":"3391000175108","display":"Office visit for pediatric care and assessment (procedure)"}]}],"subject":{"reference":"Patient/39fd4a5e-0db2-478d-ba85-4400a1b7e35e"},"period":{"start":"2025-01-01T00:00:00.000Z","end":"2025-01-01T01:00:00.000Z"}},"request":{"method":"PUT","url":"Encounter/76a8c303-994e-4720-b285-25c5a25874b7"}},{"fullUrl":"https://madie.cms.gov/Condition/Condition-3","resource":{"resourceType":"Condition","id":"b7a01db5-63a6-4871-913d-bc73ffb6ffc5","meta":{"profile":["http://hl7.org/fhir/us/qicore/StructureDefinition/qicore-condition"]},"clinicalStatus":{"coding":[{"system":"http://terminology.hl7.org/CodeSystem/condition-clinical","code":"active"}]},"category":[{"coding":[{"system":"http://terminology.hl7.org/CodeSystem/condition-category","code":"problem-list-item","display":"Problem List Item"}]}],"code":{"coding":[{"system":"http://snomed.info/sct","code":"371125006","display":"Labile essential hypertension (disorder)"}]},"subject":{"reference":"Patient/39fd4a5e-0db2-478d-ba85-4400a1b7e35e"},"onsetDateTime":"2025-06-30T23:59:59.000Z"},"request":{"method":"PUT","url":"Condition/b7a01db5-63a6-4871-913d-bc73ffb6ffc5"}},{"fullUrl":"https://madie.cms.gov/Condition/Condition-4","resource":{"resourceType":"Condition","id":"bc99871a-498a-466a-ab78-3792d2bfa5ba","meta":{"profile":["http://hl7.org/fhir/us/qicore/StructureDefinition/qicore-condition"]},"clinicalStatus":{"coding":[{"system":"http://terminology.hl7.org/CodeSystem/condition-clinical","code":"active"}]},"category":[{"coding":[{"system":"http://terminology.hl7.org/CodeSystem/condition-category","code":"problem-list-item","display":"Problem List Item"}]}],"code":{"coding":[{"system":"http://snomed.info/sct","code":"101421000119107","display":"Dementia due to Parkinson's disease (disorder)"}]},"subject":{"reference":"Patient/39fd4a5e-0db2-478d-ba85-4400a1b7e35e"},"onsetDateTime":"2024-12-31T23:59:59.000Z"},"request":{"method":"PUT","url":"Condition/bc99871a-498a-466a-ab78-3792d2bfa5ba"}},{"fullUrl":"https://madie.cms.gov/Encounter/Encounter-40","resource":{"resourceType":"Encounter","id":"3d0bd01c-d8b4-4a93-ab3d-1de186db9941","meta":{"profile":["http://hl7.org/fhir/us/qicore/StructureDefinition/qicore-encounter"]},"status":"finished","class":{"system":"http://terminology.hl7.org/CodeSystem/v3-ActCode","code":"AMB","display":"ambulatory"},"type":[{"coding":[{"system":"http://snomed.info/sct","code":"4525004","display":"Emergency department patient visit (procedure)"}]}],"subject":{"reference":"Patient/39fd4a5e-0db2-478d-ba85-4400a1b7e35e"},"period":{"start":"2025-05-01T00:00:00.000Z","end":"2025-05-01T01:00:00.000Z"},"diagnosis":[{"condition":{"reference":"Condition/Condition-4"}}]},"request":{"method":"PUT","url":"Encounter/3d0bd01c-d8b4-4a93-ab3d-1de186db9941"}},{"fullUrl":"https://madie.cms.gov/DeviceRequest/DeviceRequest-2","resource":{"resourceType":"DeviceRequest","id":"a1e717b0-da9a-4949-897f-2f025a826bfe","meta":{"profile":["http://hl7.org/fhir/us/qicore/StructureDefinition/qicore-devicerequest"]},"modifierExtension":[{"url":"http://hl7.org/fhir/us/qicore/StructureDefinition/qicore-doNotPeform","valueBoolean":false}],"status":"completed","intent":"order","codeCodeableConcept":{"coding":[{"system":"http://snomed.info/sct","code":"183240000","display":"Self-propelled wheelchair (physical object)"}]},"subject":{"reference":"Patient/39fd4a5e-0db2-478d-ba85-4400a1b7e35e"},"authoredOn":"2024-11-01T23:59:00.000Z"},"request":{"method":"PUT","url":"DeviceRequest/a1e717b0-da9a-4949-897f-2f025a826bfe"}},{"fullUrl":"https://madie.cms.gov/MeasureReport/029ca03e-611e-40e7-89c6-8296d13b7b04","resource":{"resourceType":"MeasureReport","id":"029ca03e-611e-40e7-89c6-8296d13b7b04","meta":{"profile":["http://hl7.org/fhir/us/cqfmeasures/StructureDefinition/test-case-cqfm"]},"contained":[{"resourceType":"Parameters","id":"31efee87-2b66-4189-81df-56d65b6721f1-parameters","parameter":[{"name":"subject","valueString":"39fd4a5e-0db2-478d-ba85-4400a1b7e35e"}]}],"extension":[{"url":"http://hl7.org/fhir/us/cqfmeasures/StructureDefinition/cqfm-inputParameters","valueReference":{"reference":"#31efee87-2b66-4189-81df-56d65b6721f1-parameters"}},{"url":"http://hl7.org/fhir/us/cqfmeasures/StructureDefinition/cqfm-testCaseDescription","valueMarkdown":"\tPatient has a frailty device before MP"}],"modifierExtension":[{"url":"http://hl7.org/fhir/us/cqfmeasures/StructureDefinition/cqfm-isTestCase","valueBoolean":true}],"status":"complete","type":"individual","measure":"https://madie.cms.gov/Measure/ColonCancerScreeningFHIR","period":{"start":"2025-01-01","end":"2025-12-31"},"group":[{"population":[{"code":{"coding":[{"system":"http://terminology.hl7.org/CodeSystem/measure-population","code":"initial-population","display":"Initial Population"}]},"count":1},{"code":{"coding":[{"system":"http://terminology.hl7.org/CodeSystem/measure-population","code":"denominator","display":"Denominator"}]},"count":1},{"code":{"coding":[{"system":"http://terminology.hl7.org/CodeSystem/measure-population","code":"denominator-exclusion","display":"Denominator Exclusion"}]},"count":0},{"code":{"coding":[{"system":"http://terminology.hl7.org/CodeSystem/measure-population","code":"numerator","display":"Numerator"}]},"count":0}]}]},"request":{"method":"PUT","url":"MeasureReport/029ca03e-611e-40e7-89c6-8296d13b7b04"}}]}