{"resourceType":"Bundle","id":"tests-683cec0c-5368-467b-85f7-4b70c269e8ea-bundle","type":"transaction","entry":[{"fullUrl":"https://madie.cms.gov/Patient/683cec0c-5368-467b-85f7-4b70c269e8ea","resource":{"resourceType":"Patient","id":"683cec0c-5368-467b-85f7-4b70c269e8ea","meta":{"profile":["http://hl7.org/fhir/us/qicore/StructureDefinition/qicore-patient"]},"extension":[{"url":"http://hl7.org/fhir/us/core/StructureDefinition/us-core-race","extension":[{"url":"ombCategory","valueCoding":{"system":"urn:oid:2.16.840.1.113883.6.238","code":"2028-9","display":"Asian"}},{"url":"text","valueString":"Asian"}]},{"url":"http://hl7.org/fhir/us/core/StructureDefinition/us-core-ethnicity","extension":[{"url":"ombCategory","valueCoding":{"system":"urn:oid:2.16.840.1.113883.6.238","code":"2135-2","display":"Hispanic or Latino"}},{"url":"text","valueString":"Hispanic or Latino"}]}],"identifier":[{"system":"http://hospital.smarthealthit.org","value":"999999995"}],"name":[{"family":"Bertha","given":["Betty"]}],"gender":"female","birthDate":"1979-12-31"},"request":{"method":"PUT","url":"Patient/683cec0c-5368-467b-85f7-4b70c269e8ea"}},{"fullUrl":"https://madie.cms.gov/Encounter/Encounter-16","resource":{"resourceType":"Encounter","id":"a911f832-4092-4067-84dc-91e23af4d43d","meta":{"profile":["http://hl7.org/fhir/us/qicore/StructureDefinition/qicore-encounter"]},"status":"finished","class":{"system":"http://terminology.hl7.org/CodeSystem/v3-ActCode","code":"AMB","display":"ambulatory"},"type":[{"coding":[{"system":"http://snomed.info/sct","code":"185317003","display":"Telephone encounter (procedure)"}]}],"subject":{"reference":"Patient/683cec0c-5368-467b-85f7-4b70c269e8ea"},"period":{"start":"2025-01-01T01:00:00.000Z","end":"2025-01-01T01:15:00.000Z"}},"request":{"method":"PUT","url":"Encounter/a911f832-4092-4067-84dc-91e23af4d43d"}},{"fullUrl":"https://madie.cms.gov/Observation/Observation-4","resource":{"resourceType":"Observation","id":"ef96a183-6187-422a-a3ee-6ae7bf08b2d3","meta":{"profile":["http://hl7.org/fhir/us/qicore/StructureDefinition/qicore-observation"]},"status":"corrected","category":[{"coding":[{"system":"http://terminology.hl7.org/CodeSystem/observation-category","code":"laboratory"}]}],"code":{"coding":[{"system":"http://loinc.org","code":"12503-9","display":"Hemoglobin.gastrointestinal [Presence] in Stool --4th specimen"}]},"subject":{"reference":"Patient/683cec0c-5368-467b-85f7-4b70c269e8ea"},"effectivePeriod":{"start":"2024-12-31T23:50:00.000Z","end":"2024-12-31T23:59:00.000Z"},"valueCodeableConcept":{"coding":[{"system":"http://snomed.info/sct","code":"373066001","display":"Yes (qualifier value)"}]}},"request":{"method":"PUT","url":"Observation/ef96a183-6187-422a-a3ee-6ae7bf08b2d3"}},{"fullUrl":"https://madie.cms.gov/MeasureReport/c2bd9458-909e-4a33-88dd-f998624eb475","resource":{"resourceType":"MeasureReport","id":"c2bd9458-909e-4a33-88dd-f998624eb475","meta":{"profile":["http://hl7.org/fhir/us/cqfmeasures/StructureDefinition/test-case-cqfm"]},"contained":[{"resourceType":"Parameters","id":"b2b1bbba-946b-42f1-a4a8-d9dde22fb44c-parameters","parameter":[{"name":"subject","valueString":"683cec0c-5368-467b-85f7-4b70c269e8ea"}]}],"extension":[{"url":"http://hl7.org/fhir/us/cqfmeasures/StructureDefinition/cqfm-inputParameters","valueReference":{"reference":"#b2b1bbba-946b-42f1-a4a8-d9dde22fb44c-parameters"}},{"url":"http://hl7.org/fhir/us/cqfmeasures/StructureDefinition/cqfm-testCaseDescription","valueMarkdown":"Patient has a FOBT before the measurement period."}],"modifierExtension":[{"url":"http://hl7.org/fhir/us/cqfmeasures/StructureDefinition/cqfm-isTestCase","valueBoolean":true}],"status":"complete","type":"individual","measure":"https://madie.cms.gov/Measure/ColonCancerScreeningFHIR","period":{"start":"2025-01-01","end":"2025-12-31"},"group":[{"population":[{"code":{"coding":[{"system":"http://terminology.hl7.org/CodeSystem/measure-population","code":"initial-population","display":"Initial Population"}]},"count":1},{"code":{"coding":[{"system":"http://terminology.hl7.org/CodeSystem/measure-population","code":"denominator","display":"Denominator"}]},"count":1},{"code":{"coding":[{"system":"http://terminology.hl7.org/CodeSystem/measure-population","code":"denominator-exclusion","display":"Denominator Exclusion"}]},"count":0},{"code":{"coding":[{"system":"http://terminology.hl7.org/CodeSystem/measure-population","code":"numerator","display":"Numerator"}]},"count":0}]}]},"request":{"method":"PUT","url":"MeasureReport/c2bd9458-909e-4a33-88dd-f998624eb475"}}]}