{"resourceType":"Bundle","id":"tests-27da60c8-3729-4b2a-9241-562e1a0aff30-bundle","type":"transaction","entry":[{"fullUrl":"https://madie.cms.gov/Patient/27da60c8-3729-4b2a-9241-562e1a0aff30","resource":{"resourceType":"Patient","id":"27da60c8-3729-4b2a-9241-562e1a0aff30","meta":{"profile":["http://hl7.org/fhir/us/qicore/StructureDefinition/qicore-patient"]},"extension":[{"url":"http://hl7.org/fhir/us/core/StructureDefinition/us-core-race","extension":[{"url":"ombCategory","valueCoding":{"system":"urn:oid:2.16.840.1.113883.6.238","code":"2028-9","display":"Asian"}},{"url":"text","valueString":"Asian"}]},{"url":"http://hl7.org/fhir/us/core/StructureDefinition/us-core-ethnicity","extension":[{"url":"ombCategory","valueCoding":{"system":"urn:oid:2.16.840.1.113883.6.238","code":"2135-2","display":"Hispanic or Latino"}},{"url":"text","valueString":"Hispanic or Latino"}]}],"identifier":[{"system":"http://hospital.smarthealthit.org","value":"999999995"}],"name":[{"family":"Bertha","given":["Betty"]}],"gender":"female","birthDate":"1979-01-01"},"request":{"method":"PUT","url":"Patient/27da60c8-3729-4b2a-9241-562e1a0aff30"}},{"fullUrl":"https://madie.cms.gov/Encounter/Encounter-31","resource":{"resourceType":"Encounter","id":"d0c9dad7-e0bf-48f9-b820-92be51bbcc18","meta":{"profile":["http://hl7.org/fhir/us/qicore/StructureDefinition/qicore-encounter"]},"status":"finished","class":{"system":"http://terminology.hl7.org/CodeSystem/v3-ActCode","code":"AMB","display":"ambulatory"},"type":[{"coding":[{"system":"http://snomed.info/sct","code":"185317003","display":"Telephone encounter (procedure)"}]}],"subject":{"reference":"Patient/27da60c8-3729-4b2a-9241-562e1a0aff30"},"period":{"start":"2025-01-01T01:00:00.000Z","end":"2025-01-01T01:15:00.000Z"}},"request":{"method":"PUT","url":"Encounter/d0c9dad7-e0bf-48f9-b820-92be51bbcc18"}},{"fullUrl":"https://madie.cms.gov/Procedure/Procedure-8","resource":{"resourceType":"Procedure","id":"32e8006f-19ae-496a-8bb0-20edc30102e4","meta":{"profile":["http://hl7.org/fhir/us/qicore/StructureDefinition/qicore-procedure"]},"extension":[{"url":"http://hl7.org/fhir/us/qicore/StructureDefinition/qicore-recorded","valueDateTime":"2025-12-31T23:00:00.000Z"}],"status":"completed","code":{"coding":[{"system":"http://snomed.info/sct","code":"36192008","display":"Total abdominal colectomy with ileoproctostomy (procedure)"}]},"subject":{"reference":"Patient/27da60c8-3729-4b2a-9241-562e1a0aff30"},"performedPeriod":{"start":"2025-12-31T23:00:00.000Z","end":"2025-12-31T23:59:00.000Z"}},"request":{"method":"PUT","url":"Procedure/32e8006f-19ae-496a-8bb0-20edc30102e4"}},{"fullUrl":"https://madie.cms.gov/MeasureReport/fd17b763-b67a-49ad-ba0b-7d002dfcbb65","resource":{"resourceType":"MeasureReport","id":"fd17b763-b67a-49ad-ba0b-7d002dfcbb65","meta":{"profile":["http://hl7.org/fhir/us/cqfmeasures/StructureDefinition/test-case-cqfm"]},"contained":[{"resourceType":"Parameters","id":"55e1b5a0-c59e-400c-a144-53df3c54a0c0-parameters","parameter":[{"name":"subject","valueString":"27da60c8-3729-4b2a-9241-562e1a0aff30"}]}],"extension":[{"url":"http://hl7.org/fhir/us/cqfmeasures/StructureDefinition/cqfm-inputParameters","valueReference":{"reference":"#55e1b5a0-c59e-400c-a144-53df3c54a0c0-parameters"}},{"url":"http://hl7.org/fhir/us/cqfmeasures/StructureDefinition/cqfm-testCaseDescription","valueMarkdown":"Patient has a colectomy during the measurement period."}],"modifierExtension":[{"url":"http://hl7.org/fhir/us/cqfmeasures/StructureDefinition/cqfm-isTestCase","valueBoolean":true}],"status":"complete","type":"individual","measure":"https://madie.cms.gov/Measure/ColonCancerScreeningFHIR","period":{"start":"2025-01-01","end":"2025-12-31"},"group":[{"population":[{"code":{"coding":[{"system":"http://terminology.hl7.org/CodeSystem/measure-population","code":"initial-population","display":"Initial Population"}]},"count":1},{"code":{"coding":[{"system":"http://terminology.hl7.org/CodeSystem/measure-population","code":"denominator","display":"Denominator"}]},"count":1},{"code":{"coding":[{"system":"http://terminology.hl7.org/CodeSystem/measure-population","code":"denominator-exclusion","display":"Denominator Exclusion"}]},"count":1},{"code":{"coding":[{"system":"http://terminology.hl7.org/CodeSystem/measure-population","code":"numerator","display":"Numerator"}]},"count":0}]}]},"request":{"method":"PUT","url":"MeasureReport/fd17b763-b67a-49ad-ba0b-7d002dfcbb65"}}]}