{"resourceType":"Bundle","id":"tests-b819c3b9-fa02-4186-acbc-b18b5e3c1d2f-bundle","type":"transaction","entry":[{"fullUrl":"https://madie.cms.gov/Patient/b819c3b9-fa02-4186-acbc-b18b5e3c1d2f","resource":{"resourceType":"Patient","id":"b819c3b9-fa02-4186-acbc-b18b5e3c1d2f","meta":{"profile":["http://hl7.org/fhir/us/qicore/StructureDefinition/qicore-patient"]},"extension":[{"url":"http://hl7.org/fhir/us/core/StructureDefinition/us-core-race","extension":[{"url":"ombCategory","valueCoding":{"system":"urn:oid:2.16.840.1.113883.6.238","code":"2106-3","display":"White"}},{"url":"detailed","valueCoding":{"system":"urn:oid:2.16.840.1.113883.6.238","code":"2036-2","display":"Filipino"}},{"url":"text","valueString":"mixed"}]},{"url":"http://hl7.org/fhir/us/core/StructureDefinition/us-core-ethnicity","extension":[{"url":"ombCategory","valueCoding":{"system":"urn:oid:2.16.840.1.113883.6.238","code":"2135-2","display":"Hispanic or Latino"}},{"url":"detailed","valueCoding":{"system":"urn:oid:2.16.840.1.113883.6.238","code":"2148-5","display":"Mexican"}},{"url":"text","valueString":"Hispanic or Latino"}]}],"identifier":[{"type":{"coding":[{"system":"http://terminology.hl7.org/CodeSystem/v2-0203","code":"MR"}]},"system":"https://bonnie-fhir.healthit.gov/","value":"46431231346541"}],"active":true,"name":[{"use":"usual","family":"DENOMEXEPPass","given":["BetalBlockerNotOrderedPR"]}],"gender":"male","birthDate":"1972-12-13"},"request":{"method":"PUT","url":"Patient/b819c3b9-fa02-4186-acbc-b18b5e3c1d2f"}},{"fullUrl":"https://madie.cms.gov/Encounter/5c954de8b848462de0ae7670","resource":{"resourceType":"Encounter","id":"a527f3a8-0e99-4eca-ad48-4e585ab92e8b","meta":{"profile":["http://hl7.org/fhir/us/qicore/StructureDefinition/qicore-encounter"]},"status":"finished","class":{"system":"http://terminology.hl7.org/CodeSystem/v3-ActCode","code":"AMB","display":"ambulatory"},"type":[{"coding":[{"system":"http://www.ama-assn.org/go/cpt","version":"2024","code":"99213"}]}],"subject":{"reference":"Patient/b819c3b9-fa02-4186-acbc-b18b5e3c1d2f"},"period":{"start":"2025-04-14T14:40:00.000+00:00","end":"2025-04-14T14:50:00.000+00:00"},"length":{"value":0,"unit":"days"}},"request":{"method":"PUT","url":"Encounter/a527f3a8-0e99-4eca-ad48-4e585ab92e8b"}},{"fullUrl":"https://madie.cms.gov/Encounter/5c954de8b848462de0ae7671","resource":{"resourceType":"Encounter","id":"11342ddc-eb2d-4deb-b834-de99a05dd615","meta":{"profile":["http://hl7.org/fhir/us/qicore/StructureDefinition/qicore-encounter"]},"status":"finished","class":{"system":"http://terminology.hl7.org/CodeSystem/v3-ActCode","code":"AMB","display":"ambulatory"},"type":[{"coding":[{"system":"http://www.ama-assn.org/go/cpt","version":"2024","code":"99213"}]}],"subject":{"reference":"Patient/b819c3b9-fa02-4186-acbc-b18b5e3c1d2f"},"period":{"start":"2025-07-20T11:50:00+00:00","end":"2025-07-20T12:50:00+00:00"},"length":{"value":0,"unit":"days"}},"request":{"method":"PUT","url":"Encounter/11342ddc-eb2d-4deb-b834-de99a05dd615"}},{"fullUrl":"https://madie.cms.gov/MedicationRequest/341652656434634353","resource":{"resourceType":"MedicationRequest","id":"d9c95843-95fa-4152-80cd-b654775ebc59","meta":{"profile":["http://hl7.org/fhir/us/qicore/StructureDefinition/qicore-mednotrequested"]},"status":"completed","intent":"order","doNotPerform":true,"medicationCodeableConcept":{"coding":[{"system":"http://www.nlm.nih.gov/research/umls/rxnorm","version":"08072023","code":"1999033","display":"24 HR metoprolol succinate 200 MG Extended Release Oral Capsule"}]},"subject":{"reference":"Patient/b819c3b9-fa02-4186-acbc-b18b5e3c1d2f"},"authoredOn":"2025-07-20T12:15:00+00:00","requester":{"reference":"Practitioner/341659856413164"},"reasonCode":[{"coding":[{"system":"http://snomed.info/sct","version":"http://snomed.info/sct/731000124108/version/20230301","code":"406149000","display":"Medication declined (situation)"}]}]},"request":{"method":"PUT","url":"MedicationRequest/d9c95843-95fa-4152-80cd-b654775ebc59"}},{"fullUrl":"https://madie.cms.gov/Practitioner/341659856413164","resource":{"resourceType":"Practitioner","id":"a815e8c4-b5e3-4a4b-b361-4061f6f12784","meta":{"profile":["http://hl7.org/fhir/us/qicore/StructureDefinition/qicore-practitioner"]},"identifier":[{"use":"temp","system":"urn:oid:2.16.840.1.113883.4.336","value":"Practitioner-45"}],"active":true,"name":[{"family":"Strangelove","given":["Adam"],"prefix":["Dr"]}],"qualification":[{"identifier":[{"system":"http://example.org/UniversityIdentifier","value":"12345"}],"code":{"coding":[{"system":"http://terminology.hl7.org/CodeSystem/v2-0360|2.7","code":"BS","display":"Bachelor of Science"}],"text":"Bachelor of Science"},"period":{"start":"1995"},"issuer":{"display":"Example University"}}]},"request":{"method":"PUT","url":"Practitioner/a815e8c4-b5e3-4a4b-b361-4061f6f12784"}},{"fullUrl":"https://madie.cms.gov/Condition/5c954de8b848462de0ae766e","resource":{"resourceType":"Condition","id":"6f36ebf1-bc34-4a05-b0da-eec36ce7ff6f","meta":{"profile":["http://hl7.org/fhir/us/qicore/StructureDefinition/qicore-condition"]},"clinicalStatus":{"coding":[{"system":"http://terminology.hl7.org/CodeSystem/condition-clinical","code":"active","display":"Active"}]},"verificationStatus":{"coding":[{"system":"http://terminology.hl7.org/CodeSystem/condition-ver-status","code":"confirmed","display":"Confirmed"}]},"category":[{"coding":[{"system":"http://terminology.hl7.org/CodeSystem/condition-category","code":"problem-list-item","display":"Problem List Item"}]}],"code":{"coding":[{"system":"http://hl7.org/fhir/sid/icd-10-cm","version":"2024","code":"I11.0"}]},"subject":{"reference":"Patient/b819c3b9-fa02-4186-acbc-b18b5e3c1d2f"},"onsetPeriod":{"start":"2025-04-11T10:00:00+00:00"}},"request":{"method":"PUT","url":"Condition/6f36ebf1-bc34-4a05-b0da-eec36ce7ff6f"}},{"fullUrl":"https://madie.cms.gov/Condition/8875100","resource":{"resourceType":"Condition","id":"ab8a0b6f-9371-49bf-937a-0d474b786212","meta":{"profile":["http://hl7.org/fhir/us/qicore/StructureDefinition/qicore-condition"]},"clinicalStatus":{"coding":[{"system":"http://terminology.hl7.org/CodeSystem/condition-clinical","code":"active","display":"Active"}]},"verificationStatus":{"coding":[{"system":"http://terminology.hl7.org/CodeSystem/condition-ver-status","code":"confirmed","display":"Confirmed"}]},"category":[{"coding":[{"system":"http://terminology.hl7.org/CodeSystem/condition-category","code":"problem-list-item","display":"Problem List Item"}]}],"severity":{"coding":[{"system":"http://snomed.info/sct","version":"http://snomed.info/sct/731000124108/version/20240301","code":"24484000","display":"Severe (severity modifier) (qualifier value)"}]},"code":{"coding":[{"system":"http://snomed.info/sct","version":"http://snomed.info/sct/731000124108/version/20240301","code":"134401001","display":"Left ventricular systolic dysfunction (disorder)"}]},"subject":{"reference":"Patient/b819c3b9-fa02-4186-acbc-b18b5e3c1d2f"},"onsetPeriod":{"start":"2025-04-14T14:41:00.000+00:00"}},"request":{"method":"PUT","url":"Condition/ab8a0b6f-9371-49bf-937a-0d474b786212"}},{"fullUrl":"https://madie.cms.gov/MeasureReport/34a60d93-6bbd-4ebf-8f6d-6523b303d991","resource":{"resourceType":"MeasureReport","id":"34a60d93-6bbd-4ebf-8f6d-6523b303d991","meta":{"profile":["http://hl7.org/fhir/us/cqfmeasures/StructureDefinition/test-case-cqfm"]},"contained":[{"resourceType":"Parameters","id":"e463b7c7-16e1-443b-9a98-be92ab613c99-parameters","parameter":[{"name":"subject","valueString":"b819c3b9-fa02-4186-acbc-b18b5e3c1d2f"}]}],"extension":[{"url":"http://hl7.org/fhir/us/cqfmeasures/StructureDefinition/cqfm-inputParameters","valueReference":{"reference":"#e463b7c7-16e1-443b-9a98-be92ab613c99-parameters"}},{"url":"http://hl7.org/fhir/us/cqfmeasures/StructureDefinition/cqfm-testCaseDescription","valueMarkdown":"Beta Blocker was not ordered for LVSD Patient for Patient Reasons. Note: Denominator Exception deselected for now due to negation issue."}],"modifierExtension":[{"url":"http://hl7.org/fhir/us/cqfmeasures/StructureDefinition/cqfm-isTestCase","valueBoolean":true}],"status":"complete","type":"individual","measure":"https://madie.cms.gov/Measure/HFBetaBlockerTherapyforLVSDFHIR","period":{"start":"2025-01-01","end":"2025-12-31"},"group":[{"population":[{"code":{"coding":[{"system":"http://terminology.hl7.org/CodeSystem/measure-population","code":"initial-population","display":"Initial Population"}]},"count":1},{"code":{"coding":[{"system":"http://terminology.hl7.org/CodeSystem/measure-population","code":"denominator","display":"Denominator"}]},"count":1},{"code":{"coding":[{"system":"http://terminology.hl7.org/CodeSystem/measure-population","code":"denominator-exclusion","display":"Denominator Exclusion"}]},"count":0},{"code":{"coding":[{"system":"http://terminology.hl7.org/CodeSystem/measure-population","code":"numerator","display":"Numerator"}]},"count":0},{"code":{"coding":[{"system":"http://terminology.hl7.org/CodeSystem/measure-population","code":"denominator-exception","display":"Denominator Exception"}]},"count":0}]}]},"request":{"method":"PUT","url":"MeasureReport/34a60d93-6bbd-4ebf-8f6d-6523b303d991"}}]}