{"resourceType":"Bundle","id":"tests-f33203eb-1470-4ef1-98b3-68526349d827-bundle","type":"transaction","entry":[{"fullUrl":"https://madie.cms.gov/Patient/f33203eb-1470-4ef1-98b3-68526349d827","resource":{"resourceType":"Patient","id":"f33203eb-1470-4ef1-98b3-68526349d827","meta":{"profile":["http://hl7.org/fhir/us/qicore/StructureDefinition/qicore-patient"]},"extension":[{"url":"http://hl7.org/fhir/us/core/StructureDefinition/us-core-race","extension":[{"url":"ombCategory","valueCoding":{"system":"urn:oid:2.16.840.1.113883.6.238","code":"2076-8","display":"Native Hawaiian or Other Pacific Islander"}},{"url":"text","valueString":"Native Hawaiian or Other Pacific Islander"}]},{"url":"http://hl7.org/fhir/us/core/StructureDefinition/us-core-ethnicity","extension":[{"url":"ombCategory","valueCoding":{"system":"urn:oid:2.16.840.1.113883.6.238","code":"2186-5","display":"Not Hispanic or Latino"}},{"url":"text","valueString":"Not Hispanic or Latino"}]}],"identifier":[{"type":{"coding":[{"system":"http://terminology.hl7.org/CodeSystem/v2-0203","code":"MR"}]},"system":"https://bonnie-fhir.healthit.gov/","value":"46431231346541"}],"active":true,"name":[{"use":"usual","family":"DENOMEXCEPPass","given":["AllergicToBetaAdrenergicReceptorAntagonist"]}],"gender":"male","birthDate":"1971-12-30"},"request":{"method":"PUT","url":"Patient/f33203eb-1470-4ef1-98b3-68526349d827"}},{"fullUrl":"https://madie.cms.gov/Encounter/651asdf65a135163135163","resource":{"resourceType":"Encounter","id":"b8f445e4-66f2-46c5-8b61-daed5393ae4c","meta":{"profile":["http://hl7.org/fhir/us/qicore/StructureDefinition/qicore-encounter"]},"status":"finished","class":{"system":"http://terminology.hl7.org/CodeSystem/v3-ActCode","code":"AMB","display":"ambulatory"},"type":[{"coding":[{"system":"http://www.ama-assn.org/go/cpt","version":"2024","code":"99213"}]}],"subject":{"reference":"Patient/f33203eb-1470-4ef1-98b3-68526349d827"},"period":{"start":"2025-04-14T14:40:00.000+00:00","end":"2025-04-14T14:50:00.000+00:00"},"length":{"value":0,"unit":"days"}},"request":{"method":"PUT","url":"Encounter/b8f445e4-66f2-46c5-8b61-daed5393ae4c"}},{"fullUrl":"https://madie.cms.gov/Encounter/78asdf153as5f1351354684","resource":{"resourceType":"Encounter","id":"3ea273f9-03fe-4d81-8679-853a3fbf5588","meta":{"profile":["http://hl7.org/fhir/us/qicore/StructureDefinition/qicore-encounter"]},"status":"finished","class":{"system":"http://terminology.hl7.org/CodeSystem/v3-ActCode","code":"AMB","display":"ambulatory"},"type":[{"coding":[{"system":"http://www.ama-assn.org/go/cpt","version":"2024","code":"99212"}]}],"subject":{"reference":"Patient/f33203eb-1470-4ef1-98b3-68526349d827"},"period":{"start":"2025-07-20T11:50:00+00:00","end":"2025-07-20T11:50:00+00:00"},"length":{"value":0,"unit":"days"}},"request":{"method":"PUT","url":"Encounter/3ea273f9-03fe-4d81-8679-853a3fbf5588"}},{"fullUrl":"https://madie.cms.gov/Condition/584631asdf35435464335","resource":{"resourceType":"Condition","id":"20f66645-bad1-494b-a7db-3b069805bb76","meta":{"profile":["http://hl7.org/fhir/us/qicore/StructureDefinition/qicore-condition"]},"clinicalStatus":{"coding":[{"system":"http://terminology.hl7.org/CodeSystem/condition-clinical","code":"active","display":"Active"}]},"verificationStatus":{"coding":[{"system":"http://terminology.hl7.org/CodeSystem/condition-ver-status","code":"confirmed","display":"Confirmed"}]},"category":[{"coding":[{"system":"http://terminology.hl7.org/CodeSystem/condition-category","code":"problem-list-item","display":"Problem List Item"}]}],"code":{"coding":[{"system":"http://hl7.org/fhir/sid/icd-10-cm","version":"2024","code":"I11.0"}]},"subject":{"reference":"Patient/f33203eb-1470-4ef1-98b3-68526349d827"},"onsetPeriod":{"start":"2025-04-11T10:00:00+00:00"}},"request":{"method":"PUT","url":"Condition/20f66645-bad1-494b-a7db-3b069805bb76"}},{"fullUrl":"https://madie.cms.gov/Condition/96874641346461351213","resource":{"resourceType":"Condition","id":"94fdc6aa-6b09-43a7-b1f4-ab48aaabb15f","meta":{"profile":["http://hl7.org/fhir/us/qicore/StructureDefinition/qicore-condition"]},"clinicalStatus":{"coding":[{"system":"http://terminology.hl7.org/CodeSystem/condition-clinical","code":"active","display":"Active"}]},"verificationStatus":{"coding":[{"system":"http://terminology.hl7.org/CodeSystem/condition-ver-status","code":"confirmed","display":"Confirmed"}]},"category":[{"coding":[{"system":"http://terminology.hl7.org/CodeSystem/condition-category","code":"problem-list-item","display":"Problem List Item"}]}],"severity":{"coding":[{"system":"http://snomed.info/sct","version":"http://snomed.info/sct/731000124108/version/20240301","code":"24484000","display":"Severe (severity modifier) (qualifier value)"}]},"code":{"coding":[{"system":"http://snomed.info/sct","version":"http://snomed.info/sct/731000124108/version/20240301","code":"134401001","display":"Left ventricular systolic dysfunction (disorder)"}]},"subject":{"reference":"Patient/f33203eb-1470-4ef1-98b3-68526349d827"},"onsetPeriod":{"start":"2025-04-14T14:41:00.000+00:00"}},"request":{"method":"PUT","url":"Condition/94fdc6aa-6b09-43a7-b1f4-ab48aaabb15f"}},{"fullUrl":"https://madie.cms.gov/AllergyIntolerance/684613164643415313","resource":{"resourceType":"AllergyIntolerance","id":"2a1cbfaf-5e3f-41d7-a9be-2ca68274815f","meta":{"profile":["http://hl7.org/fhir/us/qicore/StructureDefinition/qicore-allergyintolerance"]},"clinicalStatus":{"coding":[{"system":"http://terminology.hl7.org/CodeSystem/allergyintolerance-clinical","code":"active","display":"Active"}]},"verificationStatus":{"coding":[{"system":"http://terminology.hl7.org/CodeSystem/allergyintolerance-verification","code":"confirmed","display":"Confirmed"}]},"code":{"coding":[{"system":"http://snomed.info/sct","version":"http://snomed.info/sct/731000124108/version/20240301","code":"373254001","display":"Substance with beta adrenergic receptor antagonist mechanism of action (substance)"}]},"patient":{"reference":"Patient/f33203eb-1470-4ef1-98b3-68526349d827"},"onsetPeriod":{"start":"2025-01-20T14:32:00.000+00:00"}},"request":{"method":"PUT","url":"AllergyIntolerance/2a1cbfaf-5e3f-41d7-a9be-2ca68274815f"}},{"fullUrl":"https://madie.cms.gov/MeasureReport/459de944-0fef-4170-8839-60f2297ad3ce","resource":{"resourceType":"MeasureReport","id":"459de944-0fef-4170-8839-60f2297ad3ce","meta":{"profile":["http://hl7.org/fhir/us/cqfmeasures/StructureDefinition/test-case-cqfm"]},"contained":[{"resourceType":"Parameters","id":"d48543af-9ca2-445e-96b2-edd04e44b318-parameters","parameter":[{"name":"subject","valueString":"f33203eb-1470-4ef1-98b3-68526349d827"}]}],"extension":[{"url":"http://hl7.org/fhir/us/cqfmeasures/StructureDefinition/cqfm-inputParameters","valueReference":{"reference":"#d48543af-9ca2-445e-96b2-edd04e44b318-parameters"}},{"url":"http://hl7.org/fhir/us/cqfmeasures/StructureDefinition/cqfm-testCaseDescription","valueMarkdown":"Patient falls into denominator exception due to allergy to beta adrenergic receptor antagonist diagnosed before last encounter "}],"modifierExtension":[{"url":"http://hl7.org/fhir/us/cqfmeasures/StructureDefinition/cqfm-isTestCase","valueBoolean":true}],"status":"complete","type":"individual","measure":"https://madie.cms.gov/Measure/HFBetaBlockerTherapyforLVSDFHIR","period":{"start":"2025-01-01","end":"2025-12-31"},"group":[{"population":[{"code":{"coding":[{"system":"http://terminology.hl7.org/CodeSystem/measure-population","code":"initial-population","display":"Initial Population"}]},"count":1},{"code":{"coding":[{"system":"http://terminology.hl7.org/CodeSystem/measure-population","code":"denominator","display":"Denominator"}]},"count":1},{"code":{"coding":[{"system":"http://terminology.hl7.org/CodeSystem/measure-population","code":"denominator-exclusion","display":"Denominator Exclusion"}]},"count":0},{"code":{"coding":[{"system":"http://terminology.hl7.org/CodeSystem/measure-population","code":"numerator","display":"Numerator"}]},"count":0},{"code":{"coding":[{"system":"http://terminology.hl7.org/CodeSystem/measure-population","code":"denominator-exception","display":"Denominator Exception"}]},"count":1}]}]},"request":{"method":"PUT","url":"MeasureReport/459de944-0fef-4170-8839-60f2297ad3ce"}}]}