{"resourceType":"Bundle","id":"tests-7c77c353-17ce-474b-8b44-6947b00bfff9-bundle","type":"transaction","entry":[{"fullUrl":"https://madie.cms.gov/Patient/7c77c353-17ce-474b-8b44-6947b00bfff9","resource":{"resourceType":"Patient","id":"7c77c353-17ce-474b-8b44-6947b00bfff9","meta":{"profile":["http://hl7.org/fhir/us/qicore/StructureDefinition/qicore-patient"]},"extension":[{"url":"http://hl7.org/fhir/us/core/StructureDefinition/us-core-race","extension":[{"url":"ombCategory","valueCoding":{"system":"urn:oid:2.16.840.1.113883.6.238","code":"2106-3","display":"White"}},{"url":"text","valueString":"White"}]},{"url":"http://hl7.org/fhir/us/core/StructureDefinition/us-core-ethnicity","extension":[{"url":"ombCategory","valueCoding":{"system":"urn:oid:2.16.840.1.113883.6.238","code":"2186-5","display":"Not Hispanic or Latino"}},{"url":"text","valueString":"Not Hispanic or Latino"}]}],"identifier":[{"type":{"coding":[{"system":"http://terminology.hl7.org/CodeSystem/v2-0203","code":"MR"}]},"system":"https://bonnie-fhir.healthit.gov/","value":"749646313131"}],"active":true,"name":[{"use":"usual","family":"IPPass","given":["OVPtProvEncsHF"]}],"gender":"female","birthDate":"1922-07-08"},"request":{"method":"PUT","url":"Patient/7c77c353-17ce-474b-8b44-6947b00bfff9"}},{"fullUrl":"https://madie.cms.gov/Encounter/5c954de4b848462de0ae73ec","resource":{"resourceType":"Encounter","id":"b67d4942-e991-4d18-8836-68541178d541","meta":{"profile":["http://hl7.org/fhir/us/qicore/StructureDefinition/qicore-encounter"]},"status":"finished","class":{"system":"http://terminology.hl7.org/CodeSystem/v3-ActCode","code":"AMB","display":"ambulatory"},"type":[{"coding":[{"system":"http://www.ama-assn.org/go/cpt","version":"2024","code":"99213"}]}],"subject":{"reference":"Patient/7c77c353-17ce-474b-8b44-6947b00bfff9"},"period":{"start":"2025-05-01T14:40:00+00:00","end":"2025-05-01T14:40:00+00:00"},"length":{"value":0,"unit":"days"}},"request":{"method":"PUT","url":"Encounter/b67d4942-e991-4d18-8836-68541178d541"}},{"fullUrl":"https://madie.cms.gov/Encounter/5c954de4b848462de0ae73ed","resource":{"resourceType":"Encounter","id":"30579940-c7ed-4142-8129-22819b92427c","meta":{"profile":["http://hl7.org/fhir/us/qicore/StructureDefinition/qicore-encounter"]},"status":"finished","class":{"system":"http://terminology.hl7.org/CodeSystem/v3-ActCode","code":"AMB","display":"ambulatory"},"type":[{"coding":[{"system":"http://snomed.info/sct","version":"http://snomed.info/sct/731000124108/version/20240301","code":"401271004"}]}],"subject":{"reference":"Patient/7c77c353-17ce-474b-8b44-6947b00bfff9"},"period":{"start":"2025-07-02T11:50:00+00:00","end":"2025-07-02T11:50:00+00:00"},"length":{"value":0,"unit":"days"}},"request":{"method":"PUT","url":"Encounter/30579940-c7ed-4142-8129-22819b92427c"}},{"fullUrl":"https://madie.cms.gov/AllergyIntolerance/5c954de4b848462de0ae73e9","resource":{"resourceType":"AllergyIntolerance","id":"83e893fa-9ad3-4768-b100-a63a83d6974a","meta":{"profile":["http://hl7.org/fhir/us/qicore/StructureDefinition/qicore-allergyintolerance"]},"clinicalStatus":{"coding":[{"system":"http://terminology.hl7.org/CodeSystem/allergyintolerance-clinical","code":"active","display":"Active"}]},"code":{"coding":[{"system":"http://www.nlm.nih.gov/research/umls/rxnorm","version":"04012024","code":"10600"}]},"patient":{"reference":"Patient/7c77c353-17ce-474b-8b44-6947b00bfff9"},"onsetPeriod":{"start":"2025-07-02T11:50:00+00:00"}},"request":{"method":"PUT","url":"AllergyIntolerance/83e893fa-9ad3-4768-b100-a63a83d6974a"}},{"fullUrl":"https://madie.cms.gov/Condition/5c954de4b848462de0ae73eb","resource":{"resourceType":"Condition","id":"6d7652f5-d17a-4092-97e3-f2d325318aa1","meta":{"profile":["http://hl7.org/fhir/us/qicore/StructureDefinition/qicore-condition"]},"clinicalStatus":{"coding":[{"system":"http://terminology.hl7.org/CodeSystem/condition-clinical","code":"active","display":"Active"}]},"verificationStatus":{"coding":[{"system":"http://terminology.hl7.org/CodeSystem/condition-ver-status","code":"confirmed","display":"Confirmed"}]},"category":[{"coding":[{"system":"http://terminology.hl7.org/CodeSystem/condition-category","code":"problem-list-item","display":"Problem List Item"}]}],"code":{"coding":[{"system":"http://hl7.org/fhir/sid/icd-10-cm","version":"2024","code":"I50.83"}]},"subject":{"reference":"Patient/7c77c353-17ce-474b-8b44-6947b00bfff9"},"onsetPeriod":{"start":"2025-04-21T10:00:00+00:00"}},"request":{"method":"PUT","url":"Condition/6d7652f5-d17a-4092-97e3-f2d325318aa1"}},{"fullUrl":"https://madie.cms.gov/Condition/6344131313513","resource":{"resourceType":"Condition","id":"0423d28e-e969-4049-8e77-20e74eefb185","meta":{"profile":["http://hl7.org/fhir/us/qicore/StructureDefinition/qicore-condition"]},"clinicalStatus":{"coding":[{"system":"http://terminology.hl7.org/CodeSystem/condition-clinical","code":"active","display":"Active"}]},"category":[{"coding":[{"system":"http://terminology.hl7.org/CodeSystem/condition-category","code":"problem-list-item","display":"Problem List Item"}]}],"code":{"coding":[{"system":"http://snomed.info/sct","version":"http://snomed.info/sct/731000124108/version/20240301","code":"134401001","display":"Left ventricular systolic dysfunction (disorder)"}]},"subject":{"reference":"Patient/7c77c353-17ce-474b-8b44-6947b00bfff9"},"onsetPeriod":{"start":"2025-02-14T14:40:00.000+00:00"}},"request":{"method":"PUT","url":"Condition/0423d28e-e969-4049-8e77-20e74eefb185"}},{"fullUrl":"https://madie.cms.gov/MeasureReport/c371c2b9-fae6-44e2-b009-b4b58a6827b0","resource":{"resourceType":"MeasureReport","id":"c371c2b9-fae6-44e2-b009-b4b58a6827b0","meta":{"profile":["http://hl7.org/fhir/us/cqfmeasures/StructureDefinition/test-case-cqfm"]},"contained":[{"resourceType":"Parameters","id":"993eff2c-7c2e-4f30-bfeb-735e0a421176-parameters","parameter":[{"name":"subject","valueString":"7c77c353-17ce-474b-8b44-6947b00bfff9"}]}],"extension":[{"url":"http://hl7.org/fhir/us/cqfmeasures/StructureDefinition/cqfm-inputParameters","valueReference":{"reference":"#993eff2c-7c2e-4f30-bfeb-735e0a421176-parameters"}},{"url":"http://hl7.org/fhir/us/cqfmeasures/StructureDefinition/cqfm-testCaseDescription","valueMarkdown":"Patient with office visit and patient provider interaction encounters and heart failure diagnosis. Patient included in initial population due to 2 encounters and heart failure diagnosis during measurement period. "}],"modifierExtension":[{"url":"http://hl7.org/fhir/us/cqfmeasures/StructureDefinition/cqfm-isTestCase","valueBoolean":true}],"status":"complete","type":"individual","measure":"https://madie.cms.gov/Measure/HFBetaBlockerTherapyforLVSDFHIR","period":{"start":"2025-01-01","end":"2025-12-31"},"group":[{"population":[{"code":{"coding":[{"system":"http://terminology.hl7.org/CodeSystem/measure-population","code":"initial-population","display":"Initial Population"}]},"count":1},{"code":{"coding":[{"system":"http://terminology.hl7.org/CodeSystem/measure-population","code":"denominator","display":"Denominator"}]},"count":0},{"code":{"coding":[{"system":"http://terminology.hl7.org/CodeSystem/measure-population","code":"denominator-exclusion","display":"Denominator Exclusion"}]},"count":0},{"code":{"coding":[{"system":"http://terminology.hl7.org/CodeSystem/measure-population","code":"numerator","display":"Numerator"}]},"count":0},{"code":{"coding":[{"system":"http://terminology.hl7.org/CodeSystem/measure-population","code":"denominator-exception","display":"Denominator Exception"}]},"count":0}]}]},"request":{"method":"PUT","url":"MeasureReport/c371c2b9-fae6-44e2-b009-b4b58a6827b0"}}]}