{"resourceType":"Bundle","id":"tests-36e55241-ce99-42a9-8306-ef79cfed3788-bundle","type":"transaction","entry":[{"fullUrl":"https://madie.cms.gov/Patient/36e55241-ce99-42a9-8306-ef79cfed3788","resource":{"resourceType":"Patient","id":"36e55241-ce99-42a9-8306-ef79cfed3788","meta":{"profile":["http://hl7.org/fhir/us/qicore/StructureDefinition/qicore-patient"]},"extension":[{"url":"http://hl7.org/fhir/us/core/StructureDefinition/us-core-race","extension":[{"url":"ombCategory","valueCoding":{"system":"urn:oid:2.16.840.1.113883.6.238","code":"2076-8","display":"Native Hawaiian or Other Pacific Islander"}},{"url":"text","valueString":"Native Hawaiian or Other Pacific Islander"}]},{"url":"http://hl7.org/fhir/us/core/StructureDefinition/us-core-ethnicity","extension":[{"url":"ombCategory","valueCoding":{"system":"urn:oid:2.16.840.1.113883.6.238","code":"2186-5","display":"Not Hispanic or Latino"}},{"url":"text","valueString":"Not Hispanic or Latino"}]}],"identifier":[{"type":{"coding":[{"system":"http://terminology.hl7.org/CodeSystem/v2-0203","code":"MR"}]},"system":"https://bonnie-fhir.healthit.gov/","value":"46431231346541"}],"active":true,"name":[{"use":"usual","family":"DENEXFail","given":["HeartTransplant1HrAfterEncEdge"]}],"gender":"male","birthDate":"1974-02-10"},"request":{"method":"PUT","url":"Patient/36e55241-ce99-42a9-8306-ef79cfed3788"}},{"fullUrl":"https://madie.cms.gov/Encounter/5c954de8b848462de0ae7670","resource":{"resourceType":"Encounter","id":"d16ab4ed-5e64-4935-8c31-40385b4c6428","meta":{"profile":["http://hl7.org/fhir/us/qicore/StructureDefinition/qicore-encounter"]},"status":"finished","class":{"system":"http://terminology.hl7.org/CodeSystem/v3-ActCode","code":"AMB","display":"ambulatory"},"type":[{"coding":[{"system":"http://www.ama-assn.org/go/cpt","version":"2024","code":"99213"}]}],"subject":{"reference":"Patient/36e55241-ce99-42a9-8306-ef79cfed3788"},"period":{"start":"2025-04-14T14:40:00.000+00:00","end":"2025-04-14T14:50:00.000+00:00"},"length":{"value":0,"unit":"days"}},"request":{"method":"PUT","url":"Encounter/d16ab4ed-5e64-4935-8c31-40385b4c6428"}},{"fullUrl":"https://madie.cms.gov/Procedure/54674981351631510","resource":{"resourceType":"Procedure","id":"0b08fb5f-63f7-4a4e-831d-e32269b8909e","meta":{"profile":["http://hl7.org/fhir/us/qicore/StructureDefinition/qicore-procedure"]},"extension":[{"url":"http://hl7.org/fhir/us/qicore/StructureDefinition/qicore-recorded","valueDateTime":"2024-06-05T08:20:00-04:00"}],"status":"completed","code":{"coding":[{"system":"http://snomed.info/sct","version":"http://snomed.info/sct/731000124108/version/20230301","code":"32413006","display":"Transplantation of heart (procedure)"}]},"subject":{"reference":"Patient/36e55241-ce99-42a9-8306-ef79cfed3788"},"performedPeriod":{"start":"2025-07-20T12:50:00+00:00","end":"2025-07-20T14:50:00+00:00"}},"request":{"method":"PUT","url":"Procedure/0b08fb5f-63f7-4a4e-831d-e32269b8909e"}},{"fullUrl":"https://madie.cms.gov/Encounter/5c954de8b848462de0ae7671","resource":{"resourceType":"Encounter","id":"5a491f39-65b5-407f-8f16-901bd9b4a5af","meta":{"profile":["http://hl7.org/fhir/us/qicore/StructureDefinition/qicore-encounter"]},"status":"finished","class":{"system":"http://terminology.hl7.org/CodeSystem/v3-ActCode","code":"AMB","display":"ambulatory"},"type":[{"coding":[{"system":"http://www.ama-assn.org/go/cpt","version":"2024","code":"99212"}]}],"subject":{"reference":"Patient/36e55241-ce99-42a9-8306-ef79cfed3788"},"period":{"start":"2025-07-20T11:50:00+00:00","end":"2025-07-20T11:50:00+00:00"},"length":{"value":0,"unit":"days"}},"request":{"method":"PUT","url":"Encounter/5a491f39-65b5-407f-8f16-901bd9b4a5af"}},{"fullUrl":"https://madie.cms.gov/Condition/5c954de8b848462de0ae766e","resource":{"resourceType":"Condition","id":"680f3afd-9601-4dd4-bbf2-0efa6e5bc713","meta":{"profile":["http://hl7.org/fhir/us/qicore/StructureDefinition/qicore-condition"]},"clinicalStatus":{"coding":[{"system":"http://terminology.hl7.org/CodeSystem/condition-clinical","code":"active","display":"Active"}]},"verificationStatus":{"coding":[{"system":"http://terminology.hl7.org/CodeSystem/condition-ver-status","code":"confirmed","display":"Confirmed"}]},"category":[{"coding":[{"system":"http://terminology.hl7.org/CodeSystem/condition-category","code":"problem-list-item","display":"Problem List Item"}]}],"code":{"coding":[{"system":"http://hl7.org/fhir/sid/icd-10-cm","version":"2024","code":"I11.0"}]},"subject":{"reference":"Patient/36e55241-ce99-42a9-8306-ef79cfed3788"},"onsetPeriod":{"start":"2025-04-11T10:00:00+00:00"}},"request":{"method":"PUT","url":"Condition/680f3afd-9601-4dd4-bbf2-0efa6e5bc713"}},{"fullUrl":"https://madie.cms.gov/Condition/8875100","resource":{"resourceType":"Condition","id":"457c55fa-e89f-48e5-bdc4-0e23d2f594cc","meta":{"profile":["http://hl7.org/fhir/us/qicore/StructureDefinition/qicore-condition"]},"clinicalStatus":{"coding":[{"system":"http://terminology.hl7.org/CodeSystem/condition-clinical","code":"active","display":"Active"}]},"verificationStatus":{"coding":[{"system":"http://terminology.hl7.org/CodeSystem/condition-ver-status","code":"confirmed","display":"Confirmed"}]},"category":[{"coding":[{"system":"http://terminology.hl7.org/CodeSystem/condition-category","code":"problem-list-item","display":"Problem List Item"}]}],"severity":{"coding":[{"system":"http://snomed.info/sct","version":"http://snomed.info/sct/731000124108/version/20240301","code":"24484000","display":"Severe (severity modifier) (qualifier value)"}]},"code":{"coding":[{"system":"http://snomed.info/sct","version":"http://snomed.info/sct/731000124108/version/20240301","code":"134401001","display":"Left ventricular systolic dysfunction (disorder)"}]},"subject":{"reference":"Patient/36e55241-ce99-42a9-8306-ef79cfed3788"},"onsetPeriod":{"start":"2025-04-14T14:41:00.000+00:00"}},"request":{"method":"PUT","url":"Condition/457c55fa-e89f-48e5-bdc4-0e23d2f594cc"}},{"fullUrl":"https://madie.cms.gov/MeasureReport/badacc3f-7b72-47be-845e-b181a77880e3","resource":{"resourceType":"MeasureReport","id":"badacc3f-7b72-47be-845e-b181a77880e3","meta":{"profile":["http://hl7.org/fhir/us/cqfmeasures/StructureDefinition/test-case-cqfm"]},"contained":[{"resourceType":"Parameters","id":"d6e0b2dc-27ad-4429-9886-d70ce327dc15-parameters","parameter":[{"name":"subject","valueString":"36e55241-ce99-42a9-8306-ef79cfed3788"}]}],"extension":[{"url":"http://hl7.org/fhir/us/cqfmeasures/StructureDefinition/cqfm-inputParameters","valueReference":{"reference":"#d6e0b2dc-27ad-4429-9886-d70ce327dc15-parameters"}},{"url":"http://hl7.org/fhir/us/cqfmeasures/StructureDefinition/cqfm-testCaseDescription","valueMarkdown":"Does not meet denominator exclusion criteria for Heart Transplant due to edge outside of qualifying encounter"}],"modifierExtension":[{"url":"http://hl7.org/fhir/us/cqfmeasures/StructureDefinition/cqfm-isTestCase","valueBoolean":true}],"status":"complete","type":"individual","measure":"https://madie.cms.gov/Measure/HFBetaBlockerTherapyforLVSDFHIR","period":{"start":"2025-01-01","end":"2025-12-31"},"group":[{"population":[{"code":{"coding":[{"system":"http://terminology.hl7.org/CodeSystem/measure-population","code":"initial-population","display":"Initial Population"}]},"count":1},{"code":{"coding":[{"system":"http://terminology.hl7.org/CodeSystem/measure-population","code":"denominator","display":"Denominator"}]},"count":1},{"code":{"coding":[{"system":"http://terminology.hl7.org/CodeSystem/measure-population","code":"denominator-exclusion","display":"Denominator Exclusion"}]},"count":0},{"code":{"coding":[{"system":"http://terminology.hl7.org/CodeSystem/measure-population","code":"numerator","display":"Numerator"}]},"count":0},{"code":{"coding":[{"system":"http://terminology.hl7.org/CodeSystem/measure-population","code":"denominator-exception","display":"Denominator Exception"}]},"count":0}]}]},"request":{"method":"PUT","url":"MeasureReport/badacc3f-7b72-47be-845e-b181a77880e3"}}]}