{
  "resourceType": "Bundle",
  "id": "NUMERPass-Colonography4YearsPrior",
  "type": "transaction",
  "entry": [ {
    "fullUrl": "https://madie.cms.gov/Patient/bf3f2c9a-a802-4522-8e38-d1c806e71483",
    "resource": {
      "resourceType": "Patient",
      "id": "bf3f2c9a-a802-4522-8e38-d1c806e71483",
      "meta": {
        "profile": [ "http://hl7.org/fhir/us/qicore/StructureDefinition/qicore-patient" ]
      },
      "extension": [ {
        "url": "http://hl7.org/fhir/us/core/StructureDefinition/us-core-race",
        "extension": [ {
          "url": "ombCategory",
          "valueCoding": {
            "system": "urn:oid:2.16.840.1.113883.6.238",
            "code": "2028-9",
            "display": "Asian"
          }
        }, {
          "url": "text",
          "valueString": "Asian"
        } ]
      }, {
        "url": "http://hl7.org/fhir/us/core/StructureDefinition/us-core-ethnicity",
        "extension": [ {
          "url": "ombCategory",
          "valueCoding": {
            "system": "urn:oid:2.16.840.1.113883.6.238",
            "code": "2135-2",
            "display": "Hispanic or Latino"
          }
        }, {
          "url": "text",
          "valueString": "Hispanic or Latino"
        } ]
      } ],
      "identifier": [ {
        "system": "http://hospital.smarthealthit.org",
        "value": "999999995"
      } ],
      "name": [ {
        "family": "Bertha",
        "given": [ "Betty" ]
      } ],
      "gender": "female",
      "birthDate": "1979-01-01"
    },
    "request": {
      "method": "POST",
      "url": "Patient/bf3f2c9a-a802-4522-8e38-d1c806e71483"
    }
  }, {
    "fullUrl": "https://madie.cms.gov/Encounter/Encounter-26",
    "resource": {
      "resourceType": "Encounter",
      "id": "Encounter-26",
      "meta": {
        "profile": [ "http://hl7.org/fhir/us/qicore/StructureDefinition/qicore-encounter" ]
      },
      "status": "finished",
      "class": {
        "system": "http://terminology.hl7.org/CodeSystem/v3-ActCode",
        "code": "AMB",
        "display": "ambulatory"
      },
      "type": [ {
        "coding": [ {
          "system": "http://snomed.info/sct",
          "code": "185317003",
          "display": "Telephone encounter (procedure)"
        } ]
      } ],
      "subject": {
        "reference": "Patient/bf3f2c9a-a802-4522-8e38-d1c806e71483"
      },
      "period": {
        "start": "2025-01-01T01:00:00.000Z",
        "end": "2025-01-01T01:15:00.000Z"
      }
    },
    "request": {
      "method": "POST",
      "url": "Encounter/Encounter-26"
    }
  }, {
    "fullUrl": "https://madie.cms.gov/Observation/Observation-9",
    "resource": {
      "resourceType": "Observation",
      "id": "Observation-9",
      "meta": {
        "profile": [ "http://hl7.org/fhir/us/qicore/StructureDefinition/qicore-observation" ]
      },
      "status": "corrected",
      "category": [ {
        "coding": [ {
          "system": "http://terminology.hl7.org/CodeSystem/observation-category",
          "code": "laboratory"
        } ]
      } ],
      "code": {
        "coding": [ {
          "system": "http://loinc.org",
          "code": "60515-4",
          "display": "CT Colon and Rectum W air contrast PR"
        } ]
      },
      "subject": {
        "reference": "Patient/bf3f2c9a-a802-4522-8e38-d1c806e71483"
      },
      "effectivePeriod": {
        "start": "2021-01-01T01:00:00.000Z",
        "end": "2021-01-01T01:15:00.000Z"
      },
      "valueCodeableConcept": {
        "coding": [ {
          "system": "http://snomed.info/sct",
          "code": "373066001",
          "display": "Yes (qualifier value)"
        } ]
      }
    },
    "request": {
      "method": "POST",
      "url": "Observation/Observation-9"
    }
  }, {
    "fullUrl": "https://madie.cms.gov/MeasureReport/16dd27d7-0bc1-4db3-a13a-753d7413457d",
    "resource": {
      "resourceType": "MeasureReport",
      "id": "16dd27d7-0bc1-4db3-a13a-753d7413457d",
      "meta": {
        "profile": [ "http://hl7.org/fhir/us/cqfmeasures/StructureDefinition/test-case-cqfm" ]
      },
      "contained": [ {
        "resourceType": "Parameters",
        "id": "4d5eb34d-8465-4f8a-a649-8c50dfa67c7d-parameters",
        "parameter": [ {
          "name": "subject",
          "valueString": "bf3f2c9a-a802-4522-8e38-d1c806e71483"
        } ]
      } ],
      "extension": [ {
        "url": "http://hl7.org/fhir/us/cqfmeasures/StructureDefinition/cqfm-inputParameters",
        "valueReference": {
          "reference": "#4d5eb34d-8465-4f8a-a649-8c50dfa67c7d-parameters"
        }
      }, {
        "url": "http://hl7.org/fhir/us/cqfmeasures/StructureDefinition/cqfm-testCaseDescription",
        "valueMarkdown": "Patient has a CT colonography four years prior to the measurement period."
      } ],
      "modifierExtension": [ {
        "url": "http://hl7.org/fhir/us/cqfmeasures/StructureDefinition/cqfm-isTestCase",
        "valueBoolean": true
      } ],
      "status": "complete",
      "type": "individual",
      "measure": "https://madie.cms.gov/Measure/ColonCancerScreeningFHIR",
      "period": {
        "start": "2025-01-01",
        "end": "2025-12-31"
      },
      "group": [ {
        "population": [ {
          "code": {
            "coding": [ {
              "system": "http://terminology.hl7.org/CodeSystem/measure-population",
              "code": "initial-population",
              "display": "Initial Population"
            } ]
          },
          "count": 1
        }, {
          "code": {
            "coding": [ {
              "system": "http://terminology.hl7.org/CodeSystem/measure-population",
              "code": "denominator",
              "display": "Denominator"
            } ]
          },
          "count": 1
        }, {
          "code": {
            "coding": [ {
              "system": "http://terminology.hl7.org/CodeSystem/measure-population",
              "code": "denominator-exclusion",
              "display": "Denominator Exclusion"
            } ]
          },
          "count": 0
        }, {
          "code": {
            "coding": [ {
              "system": "http://terminology.hl7.org/CodeSystem/measure-population",
              "code": "numerator",
              "display": "Numerator"
            } ]
          },
          "count": 1
        } ]
      } ],
      "evaluatedResource": [ {
        "reference": "https://madie.cms.gov/Patient/bf3f2c9a-a802-4522-8e38-d1c806e71483"
      }, {
        "reference": "https://madie.cms.gov/Encounter/Encounter-26"
      }, {
        "reference": "https://madie.cms.gov/Observation/Observation-9"
      } ]
    },
    "request": {
      "method": "POST",
      "url": "MeasureReport/16dd27d7-0bc1-4db3-a13a-753d7413457d"
    }
  } ]
}