{
  "resourceType": "Bundle",
  "id": "c5b2c76c-cc6a-11ed-894b-325096b39f47",
  "type": "transaction",
  "entry": [ {
    "fullUrl": "https://madie.cms.gov/Patient/e90d90a7-3071-44de-8089-ad7b6f5f3e5d",
    "resource": {
      "resourceType": "Patient",
      "id": "e90d90a7-3071-44de-8089-ad7b6f5f3e5d",
      "meta": {
        "profile": [ "http://hl7.org/fhir/us/qicore/StructureDefinition/qicore-patient" ]
      },
      "extension": [ {
        "url": "http://hl7.org/fhir/us/core/StructureDefinition/us-core-race",
        "extension": [ {
          "url": "ombCategory",
          "valueCoding": {
            "system": "urn:oid:2.16.840.1.113883.6.238",
            "code": "2106-3",
            "display": "White"
          }
        }, {
          "url": "text",
          "valueString": "White"
        } ]
      }, {
        "url": "http://hl7.org/fhir/us/core/StructureDefinition/us-core-ethnicity",
        "extension": [ {
          "url": "ombCategory",
          "valueCoding": {
            "system": "urn:oid:2.16.840.1.113883.6.238",
            "code": "2135-2",
            "display": "Hispanic or Latino",
            "userSelected": true
          }
        }, {
          "url": "text",
          "valueString": "Hispanic or Latino"
        } ]
      } ],
      "identifier": [ {
        "type": {
          "coding": [ {
            "system": "http://terminology.hl7.org/CodeSystem/v2-0203",
            "code": "MR"
          } ]
        },
        "system": "https://smarthealth.com",
        "value": "900082319426"
      } ],
      "name": [ {
        "family": "DENEXFail",
        "given": [ "MorbidObesityDx1After2ndUSS" ]
      } ],
      "gender": "male",
      "birthDate": "1965-01-02"
    },
    "request": {
      "method": "POST",
      "url": "Patient/e90d90a7-3071-44de-8089-ad7b6f5f3e5d"
    }
  }, {
    "fullUrl": "https://madie.cms.gov/Encounter/55509231",
    "resource": {
      "resourceType": "Encounter",
      "id": "55509231",
      "meta": {
        "profile": [ "http://hl7.org/fhir/us/qicore/StructureDefinition/qicore-encounter" ]
      },
      "status": "finished",
      "class": {
        "system": "http://terminology.hl7.org/CodeSystem/v3-ActCode",
        "code": "AMB",
        "display": "ambulatory"
      },
      "type": [ {
        "coding": [ {
          "system": "http://snomed.info/sct",
          "version": "http://snomed.info/sct/731000124108/version/20240301",
          "code": "439740005",
          "display": "Postoperative follow-up visit (procedure)",
          "userSelected": true
        } ]
      } ],
      "subject": {
        "reference": "Patient/e90d90a7-3071-44de-8089-ad7b6f5f3e5d"
      },
      "period": {
        "start": "2025-05-01T08:00:00.000+00:00",
        "end": "2025-05-01T08:30:00.000+00:00"
      }
    },
    "request": {
      "method": "POST",
      "url": "Encounter/55509231"
    }
  }, {
    "fullUrl": "https://madie.cms.gov/Condition/55509232",
    "resource": {
      "resourceType": "Condition",
      "id": "55509232",
      "meta": {
        "profile": [ "http://hl7.org/fhir/us/qicore/StructureDefinition/qicore-condition" ]
      },
      "clinicalStatus": {
        "coding": [ {
          "system": "http://terminology.hl7.org/CodeSystem/condition-clinical",
          "code": "active",
          "display": "active",
          "userSelected": true
        } ]
      },
      "verificationStatus": {
        "coding": [ {
          "system": "http://terminology.hl7.org/CodeSystem/condition-ver-status",
          "code": "confirmed",
          "display": "Confirmed",
          "userSelected": true
        } ]
      },
      "category": [ {
        "coding": [ {
          "system": "http://terminology.hl7.org/CodeSystem/condition-category",
          "code": "encounter-diagnosis",
          "display": "Encounter Diagnosis"
        } ]
      } ],
      "code": {
        "coding": [ {
          "system": "http://hl7.org/fhir/sid/icd-10-cm",
          "version": "2024",
          "code": "N40.1",
          "display": "Benign prostatic hyperplasia with lower urinary tract symptoms",
          "userSelected": true
        } ]
      },
      "subject": {
        "reference": "Patient/e90d90a7-3071-44de-8089-ad7b6f5f3e5d"
      },
      "onsetPeriod": {
        "start": "2024-12-14T15:00:00.000+00:00"
      }
    },
    "request": {
      "method": "POST",
      "url": "Condition/55509232"
    }
  }, {
    "fullUrl": "https://madie.cms.gov/Condition/55509600",
    "resource": {
      "resourceType": "Condition",
      "id": "55509600",
      "meta": {
        "profile": [ "http://hl7.org/fhir/us/qicore/StructureDefinition/qicore-condition" ]
      },
      "clinicalStatus": {
        "coding": [ {
          "system": "http://terminology.hl7.org/CodeSystem/condition-clinical",
          "code": "active",
          "display": "active",
          "userSelected": true
        } ]
      },
      "verificationStatus": {
        "coding": [ {
          "system": "http://terminology.hl7.org/CodeSystem/condition-ver-status",
          "code": "confirmed",
          "display": "Confirmed",
          "userSelected": true
        } ]
      },
      "category": [ {
        "coding": [ {
          "system": "http://terminology.hl7.org/CodeSystem/condition-category",
          "code": "encounter-diagnosis",
          "display": "Encounter Diagnosis"
        } ]
      } ],
      "code": {
        "coding": [ {
          "system": "http://snomed.info/sct",
          "version": "http://snomed.info/sct/731000124108/version/20240301",
          "code": "238136002",
          "display": "Morbid obesity (disorder)"
        } ]
      },
      "subject": {
        "reference": "Patient/e90d90a7-3071-44de-8089-ad7b6f5f3e5d"
      },
      "onsetPeriod": {
        "start": "2026-01-01T00:00:00.000+00:00"
      }
    },
    "request": {
      "method": "POST",
      "url": "Condition/55509600"
    }
  }, {
    "fullUrl": "https://madie.cms.gov/Observation/55509233",
    "resource": {
      "resourceType": "Observation",
      "id": "55509233",
      "meta": {
        "profile": [ "http://hl7.org/fhir/us/qicore/StructureDefinition/qicore-observation" ]
      },
      "status": "final",
      "category": [ {
        "coding": [ {
          "system": "http://terminology.hl7.org/CodeSystem/observation-category",
          "code": "survey",
          "display": "Survey"
        } ]
      } ],
      "code": {
        "coding": [ {
          "system": "http://loinc.org",
          "version": "2.76",
          "code": "80976-4",
          "display": "International Prostate Symptom Score [IPSS]",
          "userSelected": true
        } ]
      },
      "subject": {
        "reference": "Patient/e90d90a7-3071-44de-8089-ad7b6f5f3e5d"
      },
      "effectiveDateTime": "2025-01-02T08:15:00.000+00:00",
      "valueInteger": 5
    },
    "request": {
      "method": "POST",
      "url": "Observation/55509233"
    }
  }, {
    "fullUrl": "https://madie.cms.gov/Observation/55509234",
    "resource": {
      "resourceType": "Observation",
      "id": "55509234",
      "meta": {
        "profile": [ "http://hl7.org/fhir/us/qicore/StructureDefinition/qicore-observation" ]
      },
      "status": "final",
      "category": [ {
        "coding": [ {
          "system": "http://terminology.hl7.org/CodeSystem/observation-category",
          "code": "survey",
          "display": "Survey"
        } ]
      } ],
      "code": {
        "coding": [ {
          "system": "http://loinc.org",
          "version": "2.76",
          "code": "80976-4",
          "display": "International Prostate Symptom Score [IPSS]",
          "userSelected": true
        } ]
      },
      "subject": {
        "reference": "Patient/e90d90a7-3071-44de-8089-ad7b6f5f3e5d"
      },
      "effectiveDateTime": "2025-12-01T08:15:00.000+00:00",
      "valueInteger": 2
    },
    "request": {
      "method": "POST",
      "url": "Observation/55509234"
    }
  }, {
    "fullUrl": "https://madie.cms.gov/MeasureReport/7d93f8f9-f064-48b2-adc2-28fe4d1d333c",
    "resource": {
      "resourceType": "MeasureReport",
      "id": "7d93f8f9-f064-48b2-adc2-28fe4d1d333c",
      "meta": {
        "profile": [ "http://hl7.org/fhir/us/cqfmeasures/StructureDefinition/test-case-cqfm" ]
      },
      "contained": [ {
        "resourceType": "Parameters",
        "id": "cbfceef5-ab2d-432d-b4f0-11591f8c0708-parameters",
        "parameter": [ {
          "name": "subject",
          "valueString": "e90d90a7-3071-44de-8089-ad7b6f5f3e5d"
        } ]
      } ],
      "extension": [ {
        "url": "http://hl7.org/fhir/us/cqfmeasures/StructureDefinition/cqfm-inputParameters",
        "valueReference": {
          "reference": "#cbfceef5-ab2d-432d-b4f0-11591f8c0708-parameters"
        }
      }, {
        "url": "http://hl7.org/fhir/us/cqfmeasures/StructureDefinition/cqfm-testCaseDescription",
        "valueMarkdown": "Patient with Morbid Obesity Dx which would qualify them for denominator exclusion except that the criteria that the diagnosis occur before the followup urinary assessment is not met."
      } ],
      "modifierExtension": [ {
        "url": "http://hl7.org/fhir/us/cqfmeasures/StructureDefinition/cqfm-isTestCase",
        "valueBoolean": true
      } ],
      "status": "complete",
      "type": "individual",
      "measure": "https://madie.cms.gov/Measure/UrinarySymptomScoreChangeAfterBenignProstaticHyperplasiaFHIR",
      "period": {
        "start": "2025-01-01",
        "end": "2025-12-31"
      },
      "group": [ {
        "population": [ {
          "code": {
            "coding": [ {
              "system": "http://terminology.hl7.org/CodeSystem/measure-population",
              "code": "initial-population",
              "display": "Initial Population"
            } ]
          },
          "count": 1
        }, {
          "code": {
            "coding": [ {
              "system": "http://terminology.hl7.org/CodeSystem/measure-population",
              "code": "denominator",
              "display": "Denominator"
            } ]
          },
          "count": 1
        }, {
          "code": {
            "coding": [ {
              "system": "http://terminology.hl7.org/CodeSystem/measure-population",
              "code": "denominator-exclusion",
              "display": "Denominator Exclusion"
            } ]
          },
          "count": 0
        }, {
          "code": {
            "coding": [ {
              "system": "http://terminology.hl7.org/CodeSystem/measure-population",
              "code": "numerator",
              "display": "Numerator"
            } ]
          },
          "count": 1
        } ]
      } ],
      "evaluatedResource": [ {
        "reference": "https://madie.cms.gov/Patient/e90d90a7-3071-44de-8089-ad7b6f5f3e5d"
      }, {
        "reference": "https://madie.cms.gov/Encounter/55509231"
      }, {
        "reference": "https://madie.cms.gov/Condition/55509232"
      }, {
        "reference": "https://madie.cms.gov/Condition/55509600"
      }, {
        "reference": "https://madie.cms.gov/Observation/55509233"
      }, {
        "reference": "https://madie.cms.gov/Observation/55509234"
      } ]
    },
    "request": {
      "method": "POST",
      "url": "MeasureReport/7d93f8f9-f064-48b2-adc2-28fe4d1d333c"
    }
  } ]
}