{
  "resourceType": "Bundle",
  "id": "62fd0b5a85b0356a7c28532c",
  "type": "transaction",
  "entry": [ {
    "fullUrl": "https://madie.cms.gov/Patient/fbb7e799-8727-4125-97e3-8e891f71c4ac",
    "resource": {
      "resourceType": "Patient",
      "id": "fbb7e799-8727-4125-97e3-8e891f71c4ac",
      "meta": {
        "profile": [ "http://hl7.org/fhir/us/qicore/StructureDefinition/qicore-patient" ]
      },
      "extension": [ {
        "url": "http://hl7.org/fhir/us/core/StructureDefinition/us-core-race",
        "extension": [ {
          "url": "ombCategory",
          "valueCoding": {
            "system": "urn:oid:2.16.840.1.113883.6.238",
            "code": "1002-5",
            "display": "American Indian or Alaska Native",
            "userSelected": true
          }
        }, {
          "url": "text",
          "valueString": "American Indian or Alaska Native"
        } ]
      }, {
        "url": "http://hl7.org/fhir/us/core/StructureDefinition/us-core-ethnicity",
        "extension": [ {
          "url": "ombCategory",
          "valueCoding": {
            "system": "urn:oid:2.16.840.1.113883.6.238",
            "code": "2135-2",
            "display": "Hispanic or Latino",
            "userSelected": true
          }
        }, {
          "url": "text",
          "valueString": "Hispanic or Latino"
        } ]
      } ],
      "identifier": [ {
        "type": {
          "coding": [ {
            "system": "http://terminology.hl7.org/CodeSystem/v2-0203",
            "code": "MR"
          } ]
        },
        "system": "https://bonnie-fhir.healthit.gov/",
        "value": "62fd0b5a85b0356a7c28532c"
      } ],
      "name": [ {
        "family": "IPFail",
        "given": [ "NoDiagnosis" ]
      } ],
      "gender": "male",
      "birthDate": "1979-12-31"
    },
    "request": {
      "method": "POST",
      "url": "Patient/fbb7e799-8727-4125-97e3-8e891f71c4ac"
    }
  }, {
    "fullUrl": "https://madie.cms.gov/Procedure/prostate-cancer-treatment-a8d9",
    "resource": {
      "resourceType": "Procedure",
      "id": "prostate-cancer-treatment-a8d9",
      "meta": {
        "profile": [ "http://hl7.org/fhir/us/qicore/StructureDefinition/qicore-procedure" ]
      },
      "extension": [ {
        "url": "http://hl7.org/fhir/us/qicore/StructureDefinition/qicore-recorded",
        "valueDateTime": "2025-02-01T09:00:00.000+00:00"
      } ],
      "status": "completed",
      "code": {
        "coding": [ {
          "system": "http://snomed.info/sct",
          "version": "2022-03",
          "code": "10492003",
          "display": "Radionuclide therapy for glandular suppression (procedure)",
          "userSelected": true
        } ]
      },
      "subject": {
        "reference": "Patient/fbb7e799-8727-4125-97e3-8e891f71c4ac"
      },
      "performedDateTime": "2025-04-28T08:00:00.000+00:00"
    },
    "request": {
      "method": "POST",
      "url": "Procedure/prostate-cancer-treatment-a8d9"
    }
  }, {
    "fullUrl": "https://madie.cms.gov/Observation/prostate-specific-antigen-test-a8da",
    "resource": {
      "resourceType": "Observation",
      "id": "prostate-specific-antigen-test-a8da",
      "meta": {
        "profile": [ "http://hl7.org/fhir/us/qicore/StructureDefinition/qicore-observation" ]
      },
      "status": "final",
      "category": [ {
        "coding": [ {
          "system": "http://terminology.hl7.org/CodeSystem/observation-category",
          "code": "procedure",
          "display": "Procedure"
        } ]
      } ],
      "code": {
        "coding": [ {
          "system": "http://loinc.org",
          "version": "2.72",
          "code": "10508-0",
          "display": "Prostate specific Ag [Presence] in Tissue by Immune stain",
          "userSelected": true
        } ]
      },
      "subject": {
        "reference": "Patient/fbb7e799-8727-4125-97e3-8e891f71c4ac"
      },
      "issued": "2025-04-22T08:00:00.000+00:00",
      "valueQuantity": {
        "value": 11.0,
        "system": "http://unitsofmeasure.org",
        "code": "ng/mL"
      }
    },
    "request": {
      "method": "POST",
      "url": "Observation/prostate-specific-antigen-test-a8da"
    }
  }, {
    "fullUrl": "https://madie.cms.gov/Observation/prostate-specific-antigen-test-a8db",
    "resource": {
      "resourceType": "Observation",
      "id": "prostate-specific-antigen-test-a8db",
      "meta": {
        "profile": [ "http://hl7.org/fhir/us/qicore/StructureDefinition/qicore-observation" ]
      },
      "status": "corrected",
      "category": [ {
        "coding": [ {
          "system": "http://terminology.hl7.org/CodeSystem/observation-category",
          "code": "procedure",
          "display": "Procedure"
        } ]
      } ],
      "code": {
        "coding": [ {
          "system": "http://loinc.org",
          "version": "2.72",
          "code": "10508-0",
          "display": "Prostate specific Ag [Presence] in Tissue by Immune stain",
          "userSelected": true
        } ]
      },
      "subject": {
        "reference": "Patient/fbb7e799-8727-4125-97e3-8e891f71c4ac"
      },
      "effectiveDateTime": "2025-04-24T08:00:00.000+00:00",
      "valueQuantity": {
        "value": 8.0,
        "system": "http://unitsofmeasure.org",
        "code": "ng/mL"
      }
    },
    "request": {
      "method": "POST",
      "url": "Observation/prostate-specific-antigen-test-a8db"
    }
  }, {
    "fullUrl": "https://madie.cms.gov/Observation/gleason-score-in-specimen-qualitative-a8dc",
    "resource": {
      "resourceType": "Observation",
      "id": "gleason-score-in-specimen-qualitative-a8dc",
      "meta": {
        "profile": [ "http://hl7.org/fhir/us/qicore/StructureDefinition/qicore-observation" ]
      },
      "status": "final",
      "category": [ {
        "coding": [ {
          "system": "http://terminology.hl7.org/CodeSystem/observation-category",
          "code": "procedure",
          "display": "Procedure"
        } ]
      } ],
      "code": {
        "coding": [ {
          "system": "http://loinc.org",
          "code": "35266-6",
          "display": "Gleason score in Specimen Qualitative",
          "userSelected": true
        } ]
      },
      "subject": {
        "reference": "Patient/fbb7e799-8727-4125-97e3-8e891f71c4ac"
      },
      "effectiveDateTime": "2025-01-02T08:00:00.000+00:00",
      "valueInteger": 5
    },
    "request": {
      "method": "POST",
      "url": "Observation/gleason-score-in-specimen-qualitative-a8dc"
    }
  }, {
    "fullUrl": "https://madie.cms.gov/Observation/tumor-staging-tumor-staging-a8dd",
    "resource": {
      "resourceType": "Observation",
      "id": "tumor-staging-tumor-staging-a8dd",
      "meta": {
        "profile": [ "http://hl7.org/fhir/us/qicore/StructureDefinition/qicore-observation" ]
      },
      "status": "final",
      "category": [ {
        "coding": [ {
          "system": "http://terminology.hl7.org/CodeSystem/observation-category",
          "code": "procedure",
          "display": "Procedure"
        } ]
      } ],
      "code": {
        "coding": [ {
          "system": "http://snomed.info/sct",
          "code": "254292007",
          "display": "Tumor staging (tumor staging)",
          "userSelected": true
        } ]
      },
      "subject": {
        "reference": "Patient/fbb7e799-8727-4125-97e3-8e891f71c4ac"
      },
      "effectiveDateTime": "2025-04-26T08:00:00.000+00:00",
      "valueCodeableConcept": {
        "coding": [ {
          "system": "http://snomed.info/sct",
          "code": "433361000124104",
          "display": "Neoplasm of prostate primary tumor staging category T2a: Involves one-half of one lobe or less (finding)",
          "userSelected": true
        } ]
      }
    },
    "request": {
      "method": "POST",
      "url": "Observation/tumor-staging-tumor-staging-a8dd"
    }
  }, {
    "fullUrl": "https://madie.cms.gov/Observation/bone-scan-fbea",
    "resource": {
      "resourceType": "Observation",
      "id": "bone-scan-fbea",
      "meta": {
        "profile": [ "http://hl7.org/fhir/us/qicore/StructureDefinition/qicore-observation" ]
      },
      "status": "final",
      "category": [ {
        "coding": [ {
          "system": "http://terminology.hl7.org/CodeSystem/observation-category",
          "code": "procedure",
          "display": "Procedure"
        } ]
      } ],
      "code": {
        "coding": [ {
          "system": "http://loinc.org",
          "version": "2.72",
          "code": "25031-6",
          "display": "NM Bone Views",
          "userSelected": true
        } ]
      },
      "subject": {
        "reference": "Patient/fbb7e799-8727-4125-97e3-8e891f71c4ac"
      },
      "effectiveDateTime": "2025-06-07T08:00:00.000+00:00"
    },
    "request": {
      "method": "POST",
      "url": "Observation/bone-scan-fbea"
    }
  }, {
    "fullUrl": "https://madie.cms.gov/Coverage/1",
    "resource": {
      "resourceType": "Coverage",
      "id": "1",
      "meta": {
        "profile": [ "http://hl7.org/fhir/us/qicore/StructureDefinition/qicore-coverage" ]
      },
      "status": "active",
      "beneficiary": {
        "reference": "Patient/fbb7e799-8727-4125-97e3-8e891f71c4ac"
      },
      "payor": [ {
        "reference": "Organization/123456"
      } ]
    },
    "request": {
      "method": "POST",
      "url": "Coverage/1"
    }
  }, {
    "fullUrl": "https://madie.cms.gov/Organization/123456",
    "resource": {
      "resourceType": "Organization",
      "id": "123456",
      "meta": {
        "profile": [ "http://hl7.org/fhir/us/qicore/StructureDefinition/qicore-organization" ]
      },
      "identifier": [ {
        "use": "temp",
        "system": "urn:oid:2.16.840.1.113883.4.4",
        "value": "21-3259825"
      } ],
      "active": true,
      "type": [ {
        "coding": [ {
          "system": "http://terminology.hl7.org/CodeSystem/organization-type",
          "code": "pay",
          "display": "Payer"
        } ]
      } ],
      "name": "Blue Cross Blue Shield of Texas",
      "telecom": [ {
        "system": "phone",
        "value": "(+1) 972-766-6900"
      } ],
      "address": [ {
        "use": "billing",
        "type": "postal",
        "line": [ "P.O. Box 660044" ],
        "city": "Dallas",
        "state": "TX",
        "postalCode": "75266-0044",
        "country": "USA"
      } ]
    },
    "request": {
      "method": "POST",
      "url": "Organization/123456"
    }
  }, {
    "fullUrl": "https://madie.cms.gov/Practitioner/practitioner-123456",
    "resource": {
      "resourceType": "Practitioner",
      "id": "practitioner-123456",
      "meta": {
        "profile": [ "http://hl7.org/fhir/us/qicore/StructureDefinition/qicore-practitioner" ]
      },
      "identifier": [ {
        "system": "http://hl7.org/fhir/sid/us-npi",
        "value": "123456"
      } ],
      "name": [ {
        "family": "Evil",
        "prefix": [ "Dr" ]
      } ]
    },
    "request": {
      "method": "POST",
      "url": "Practitioner/practitioner-123456"
    }
  }, {
    "fullUrl": "https://madie.cms.gov/MeasureReport/f44c5196-d3e2-4960-ae87-a1c9056ae31a",
    "resource": {
      "resourceType": "MeasureReport",
      "id": "f44c5196-d3e2-4960-ae87-a1c9056ae31a",
      "meta": {
        "profile": [ "http://hl7.org/fhir/us/cqfmeasures/StructureDefinition/test-case-cqfm" ]
      },
      "contained": [ {
        "resourceType": "Parameters",
        "id": "54969716-15ad-4636-8b62-ec89b7306ed2-parameters",
        "parameter": [ {
          "name": "subject",
          "valueString": "fbb7e799-8727-4125-97e3-8e891f71c4ac"
        } ]
      } ],
      "extension": [ {
        "url": "http://hl7.org/fhir/us/cqfmeasures/StructureDefinition/cqfm-inputParameters",
        "valueReference": {
          "reference": "#54969716-15ad-4636-8b62-ec89b7306ed2-parameters"
        }
      }, {
        "url": "http://hl7.org/fhir/us/cqfmeasures/StructureDefinition/cqfm-testCaseDescription",
        "valueMarkdown": "No Prostate Cancer Diagnosis. Meets all other denominator criteria (first treatment, tumor staging, PSA test, Gleason).\n"
      } ],
      "modifierExtension": [ {
        "url": "http://hl7.org/fhir/us/cqfmeasures/StructureDefinition/cqfm-isTestCase",
        "valueBoolean": true
      } ],
      "status": "complete",
      "type": "individual",
      "measure": "https://madie.cms.gov/Measure/ProstateCaAvoidanceBoneScanOveruseFHIR",
      "period": {
        "start": "2025-01-01",
        "end": "2025-12-31"
      },
      "group": [ {
        "population": [ {
          "code": {
            "coding": [ {
              "system": "http://terminology.hl7.org/CodeSystem/measure-population",
              "code": "initial-population",
              "display": "Initial Population"
            } ]
          },
          "count": 0
        }, {
          "code": {
            "coding": [ {
              "system": "http://terminology.hl7.org/CodeSystem/measure-population",
              "code": "denominator",
              "display": "Denominator"
            } ]
          },
          "count": 0
        }, {
          "code": {
            "coding": [ {
              "system": "http://terminology.hl7.org/CodeSystem/measure-population",
              "code": "numerator",
              "display": "Numerator"
            } ]
          },
          "count": 0
        }, {
          "code": {
            "coding": [ {
              "system": "http://terminology.hl7.org/CodeSystem/measure-population",
              "code": "denominator-exception",
              "display": "Denominator Exception"
            } ]
          },
          "count": 0
        } ]
      } ],
      "evaluatedResource": [ {
        "reference": "https://madie.cms.gov/Patient/fbb7e799-8727-4125-97e3-8e891f71c4ac"
      }, {
        "reference": "https://madie.cms.gov/Procedure/prostate-cancer-treatment-a8d9"
      }, {
        "reference": "https://madie.cms.gov/Observation/prostate-specific-antigen-test-a8da"
      }, {
        "reference": "https://madie.cms.gov/Observation/prostate-specific-antigen-test-a8db"
      }, {
        "reference": "https://madie.cms.gov/Observation/gleason-score-in-specimen-qualitative-a8dc"
      }, {
        "reference": "https://madie.cms.gov/Observation/tumor-staging-tumor-staging-a8dd"
      }, {
        "reference": "https://madie.cms.gov/Observation/bone-scan-fbea"
      }, {
        "reference": "https://madie.cms.gov/Coverage/1"
      }, {
        "reference": "https://madie.cms.gov/Organization/123456"
      }, {
        "reference": "https://madie.cms.gov/Practitioner/practitioner-123456"
      } ]
    },
    "request": {
      "method": "POST",
      "url": "MeasureReport/f44c5196-d3e2-4960-ae87-a1c9056ae31a"
    }
  } ]
}