{"resourceType":"Bundle","id":"tests-a800d0dd-2ded-404b-9489-43ecafbe8529-bundle","type":"transaction","entry":[{"fullUrl":"https://madie.cms.gov/Patient/a800d0dd-2ded-404b-9489-43ecafbe8529","resource":{"resourceType":"Patient","id":"a800d0dd-2ded-404b-9489-43ecafbe8529","meta":{"profile":["http://hl7.org/fhir/us/qicore/StructureDefinition/qicore-patient"]},"extension":[{"url":"http://hl7.org/fhir/us/core/StructureDefinition/us-core-race","extension":[{"url":"ombCategory","valueCoding":{"system":"urn:oid:2.16.840.1.113883.6.238","code":"2076-8","display":"Native Hawaiian or Other Pacific Islander"}},{"url":"text","valueString":"Native Hawaiian or Other Pacific Islander"}]},{"url":"http://hl7.org/fhir/us/core/StructureDefinition/us-core-ethnicity","extension":[{"url":"ombCategory","valueCoding":{"system":"urn:oid:2.16.840.1.113883.6.238","code":"2186-5","display":"Not Hispanic or Latino"}},{"url":"text","valueString":"Not Hispanic or Latino"}]}],"identifier":[{"type":{"coding":[{"system":"http://terminology.hl7.org/CodeSystem/v2-0203","code":"MR"}]},"system":"https://bonnie-fhir.healthit.gov/","value":"164351346463131"}],"name":[{"family":"DENEXFail","given":["AcuteTBEndsBeforeStaging"]}],"gender":"female","birthDate":"1946-11-03"},"request":{"method":"PUT","url":"Patient/a800d0dd-2ded-404b-9489-43ecafbe8529"}},{"fullUrl":"https://madie.cms.gov/Encounter/64313354313","resource":{"resourceType":"Encounter","id":"d9a072ae-bd4f-4763-9516-6f456511b2dc","meta":{"profile":["http://hl7.org/fhir/us/qicore/StructureDefinition/qicore-encounter"]},"status":"finished","class":{"system":"http://terminology.hl7.org/CodeSystem/v3-ActCode","code":"AMB","display":"ambulatory"},"type":[{"coding":[{"system":"http://snomed.info/sct","version":"http://snomed.info/sct/731000124108/version/20240301","code":"185463005","display":"Visit out of hours (procedure)"}]}],"subject":{"reference":"Patient/a800d0dd-2ded-404b-9489-43ecafbe8529"},"period":{"start":"2025-04-06T08:00:00.000+00:00","end":"2025-04-06T09:15:00.000+00:00"}},"request":{"method":"PUT","url":"Encounter/d9a072ae-bd4f-4763-9516-6f456511b2dc"}},{"fullUrl":"https://madie.cms.gov/Condition/16411313543","resource":{"resourceType":"Condition","id":"c73c7530-d3b2-4a94-80b1-32fd4be0f0bc","meta":{"profile":["http://hl7.org/fhir/us/qicore/StructureDefinition/qicore-condition"]},"clinicalStatus":{"coding":[{"system":"http://terminology.hl7.org/CodeSystem/condition-clinical","code":"active","display":"Active"}]},"verificationStatus":{"coding":[{"system":"http://terminology.hl7.org/CodeSystem/condition-ver-status","code":"confirmed","display":"Confirmed"}]},"category":[{"coding":[{"system":"http://terminology.hl7.org/CodeSystem/condition-category","code":"problem-list-item","display":"Problem List Item"}]}],"code":{"coding":[{"system":"http://hl7.org/fhir/sid/icd-10-cm","version":"2024","code":"C67.1","display":"Malignant neoplasm of dome of bladder"}]},"subject":{"reference":"Patient/a800d0dd-2ded-404b-9489-43ecafbe8529"},"onsetPeriod":{"start":"2025-04-06T08:00:00.000+00:00"}},"request":{"method":"PUT","url":"Condition/c73c7530-d3b2-4a94-80b1-32fd4be0f0bc"}},{"fullUrl":"https://madie.cms.gov/Condition/46435131341","resource":{"resourceType":"Condition","id":"49839666-d623-421d-976d-72fdc4f63af4","meta":{"profile":["http://hl7.org/fhir/us/qicore/StructureDefinition/qicore-condition"]},"clinicalStatus":{"coding":[{"system":"http://terminology.hl7.org/CodeSystem/condition-clinical","code":"resolved","display":"Resolved"}]},"verificationStatus":{"coding":[{"system":"http://terminology.hl7.org/CodeSystem/condition-ver-status","code":"confirmed","display":"Confirmed"}]},"category":[{"coding":[{"system":"http://terminology.hl7.org/CodeSystem/condition-category","code":"problem-list-item","display":"Problem List Item"}]}],"code":{"coding":[{"system":"http://snomed.info/sct","version":"http://snomed.info/sct/731000124108/version/20240301","code":"25629007","display":"Acute tuberculosis (disorder)"}]},"subject":{"reference":"Patient/a800d0dd-2ded-404b-9489-43ecafbe8529"},"onsetPeriod":{"start":"2004-04-06"},"abatementDateTime":"2004-08-06"},"request":{"method":"PUT","url":"Condition/49839666-d623-421d-976d-72fdc4f63af4"}},{"fullUrl":"https://madie.cms.gov/Procedure/6413133435","resource":{"resourceType":"Procedure","id":"3d701ef2-ed67-4ee3-bf4b-98fc271c03b5","meta":{"profile":["http://hl7.org/fhir/us/qicore/StructureDefinition/qicore-procedure"]},"extension":[{"url":"http://hl7.org/fhir/us/qicore/StructureDefinition/qicore-recorded","valueDateTime":"2025-04-06T08:00:00.000+00:00"}],"status":"completed","code":{"coding":[{"system":"http://snomed.info/sct","version":"http://snomed.info/sct/731000124108/version/20240301","code":"254292007","display":"Tumor staging"}]},"subject":{"reference":"Patient/a800d0dd-2ded-404b-9489-43ecafbe8529"},"performedDateTime":"2025-04-06T08:00:00.000+00:00"},"request":{"method":"PUT","url":"Procedure/3d701ef2-ed67-4ee3-bf4b-98fc271c03b5"}},{"fullUrl":"https://madie.cms.gov/Observation/9876131531","resource":{"resourceType":"Observation","id":"a491a801-64ac-4006-9cff-3ac0b8f3d044","meta":{"profile":["http://hl7.org/fhir/us/qicore/StructureDefinition/qicore-observation"]},"partOf":[{"reference":"Procedure/6413133435"}],"status":"final","category":[{"coding":[{"system":"http://terminology.hl7.org/CodeSystem/observation-category","code":"procedure","display":"Procedure"}]}],"code":{"coding":[{"system":"http://loinc.org","version":"2.76","code":"21902-2","display":"Stage group.pathology Cancer"}]},"subject":{"reference":"Patient/a800d0dd-2ded-404b-9489-43ecafbe8529"},"effectiveDateTime":"2025-04-06T08:00:00.000+00:00","issued":"2025-04-06T08:10:00.000+00:00","valueCodeableConcept":{"coding":[{"system":"http://snomed.info/sct","version":"http://snomed.info/sct/731000124108/version/20240301","code":"1228883000","display":"American Joint Committee on Cancer cTa (qualifier value)"}]}},"request":{"method":"PUT","url":"Observation/a491a801-64ac-4006-9cff-3ac0b8f3d044"}},{"fullUrl":"https://madie.cms.gov/MeasureReport/dc9b59ec-4e6b-47c2-812f-60ca52446556","resource":{"resourceType":"MeasureReport","id":"dc9b59ec-4e6b-47c2-812f-60ca52446556","meta":{"profile":["http://hl7.org/fhir/us/cqfmeasures/StructureDefinition/test-case-cqfm"]},"contained":[{"resourceType":"Parameters","id":"d8c45a0b-695b-4784-8003-643678839850-parameters","parameter":[{"name":"subject","valueString":"a800d0dd-2ded-404b-9489-43ecafbe8529"}]}],"extension":[{"url":"http://hl7.org/fhir/us/cqfmeasures/StructureDefinition/cqfm-inputParameters","valueReference":{"reference":"#d8c45a0b-695b-4784-8003-643678839850-parameters"}},{"url":"http://hl7.org/fhir/us/cqfmeasures/StructureDefinition/cqfm-testCaseDescription","valueMarkdown":"Female with OV in MP. Has Bladder Cancer and Bladder Cancer staging with  Active TB ends 1 day before bladder Ca staging ends.. TB prevalencePeriod ends before staging and DENEX should fail."}],"modifierExtension":[{"url":"http://hl7.org/fhir/us/cqfmeasures/StructureDefinition/cqfm-isTestCase","valueBoolean":true}],"status":"complete","type":"individual","measure":"https://madie.cms.gov/Measure/IntravesicalBacillusCalmetteGuerinForBladderCancerFHIR","period":{"start":"2025-01-01","end":"2025-12-31"},"group":[{"population":[{"code":{"coding":[{"system":"http://terminology.hl7.org/CodeSystem/measure-population","code":"initial-population","display":"Initial Population"}]},"count":1},{"code":{"coding":[{"system":"http://terminology.hl7.org/CodeSystem/measure-population","code":"denominator","display":"Denominator"}]},"count":1},{"code":{"coding":[{"system":"http://terminology.hl7.org/CodeSystem/measure-population","code":"denominator-exclusion","display":"Denominator Exclusion"}]},"count":0},{"code":{"coding":[{"system":"http://terminology.hl7.org/CodeSystem/measure-population","code":"numerator","display":"Numerator"}]},"count":0},{"code":{"coding":[{"system":"http://terminology.hl7.org/CodeSystem/measure-population","code":"denominator-exception","display":"Denominator Exception"}]},"count":0}]}]},"request":{"method":"PUT","url":"MeasureReport/dc9b59ec-4e6b-47c2-812f-60ca52446556"}}]}