{"resourceType":"Bundle","id":"tests-06c71e6e-18fd-4cef-a68d-960ef84a56f7-bundle","type":"transaction","entry":[{"fullUrl":"https://madie.cms.gov/Patient/06c71e6e-18fd-4cef-a68d-960ef84a56f7","resource":{"resourceType":"Patient","id":"06c71e6e-18fd-4cef-a68d-960ef84a56f7","meta":{"profile":["http://hl7.org/fhir/us/qicore/StructureDefinition/qicore-patient"]},"extension":[{"url":"http://hl7.org/fhir/us/core/StructureDefinition/us-core-race","extension":[{"url":"ombCategory","valueCoding":{"system":"urn:oid:2.16.840.1.113883.6.238","code":"2076-8","display":"Native Hawaiian or Other Pacific Islander"}},{"url":"text","valueString":"Native Hawaiian or Other Pacific Islander"}]},{"url":"http://hl7.org/fhir/us/core/StructureDefinition/us-core-ethnicity","extension":[{"url":"ombCategory","valueCoding":{"system":"urn:oid:2.16.840.1.113883.6.238","code":"2186-5","display":"Not Hispanic or Latino"}},{"url":"text","valueString":"Not Hispanic or Latino"}]}],"identifier":[{"type":{"coding":[{"system":"http://terminology.hl7.org/CodeSystem/v2-0203","code":"MR"}]},"system":"https://bonnie-fhir.healthit.gov/","value":"7843135463165262"}],"name":[{"family":"DENEXFail","given":["HIVDxAfterStaging"]}],"gender":"female","birthDate":"1946-11-03"},"request":{"method":"PUT","url":"Patient/06c71e6e-18fd-4cef-a68d-960ef84a56f7"}},{"fullUrl":"https://madie.cms.gov/Encounter/6431313497641","resource":{"resourceType":"Encounter","id":"e42e5ab0-c2ce-4765-b1cf-e7ae1cfea597","meta":{"profile":["http://hl7.org/fhir/us/qicore/StructureDefinition/qicore-encounter"]},"status":"finished","class":{"system":"http://terminology.hl7.org/CodeSystem/v3-ActCode","code":"AMB","display":"ambulatory"},"type":[{"coding":[{"system":"http://snomed.info/sct","version":"http://snomed.info/sct/731000124108/version/20240301","code":"185463005","display":"Visit out of hours (procedure)"}]}],"subject":{"reference":"Patient/06c71e6e-18fd-4cef-a68d-960ef84a56f7"},"period":{"start":"2025-04-06T08:00:00.000+00:00","end":"2025-04-06T09:15:00.000+00:00"}},"request":{"method":"PUT","url":"Encounter/e42e5ab0-c2ce-4765-b1cf-e7ae1cfea597"}},{"fullUrl":"https://madie.cms.gov/Condition/416135131310","resource":{"resourceType":"Condition","id":"8554754c-15f8-43ac-99da-1fb4323a4f13","meta":{"profile":["http://hl7.org/fhir/us/qicore/StructureDefinition/qicore-condition"]},"clinicalStatus":{"coding":[{"system":"http://terminology.hl7.org/CodeSystem/condition-clinical","code":"active","display":"Active"}]},"verificationStatus":{"coding":[{"system":"http://terminology.hl7.org/CodeSystem/condition-ver-status","code":"confirmed","display":"Confirmed"}]},"category":[{"coding":[{"system":"http://terminology.hl7.org/CodeSystem/condition-category","code":"problem-list-item","display":"Problem List Item"}]}],"code":{"coding":[{"system":"http://hl7.org/fhir/sid/icd-10-cm","version":"2024","code":"C67.1","display":"Malignant neoplasm of dome of bladder"}]},"subject":{"reference":"Patient/06c71e6e-18fd-4cef-a68d-960ef84a56f7"},"onsetPeriod":{"start":"2025-04-06T08:00:00.000+00:00"}},"request":{"method":"PUT","url":"Condition/8554754c-15f8-43ac-99da-1fb4323a4f13"}},{"fullUrl":"https://madie.cms.gov/Condition/2153211313","resource":{"resourceType":"Condition","id":"850a2a78-834f-4e33-9a61-dd94d7325176","meta":{"profile":["http://hl7.org/fhir/us/qicore/StructureDefinition/qicore-condition"]},"clinicalStatus":{"coding":[{"system":"http://terminology.hl7.org/CodeSystem/condition-clinical","code":"active","display":"Active"}]},"verificationStatus":{"coding":[{"system":"http://terminology.hl7.org/CodeSystem/condition-ver-status","code":"confirmed","display":"Confirmed"}]},"category":[{"coding":[{"system":"http://terminology.hl7.org/CodeSystem/condition-category","code":"problem-list-item","display":"Problem List Item"}]}],"code":{"coding":[{"system":"http://snomed.info/sct","version":"http://snomed.info/sct/731000124108/version/20240301","code":"111880001","display":"HIV"}]},"subject":{"reference":"Patient/06c71e6e-18fd-4cef-a68d-960ef84a56f7"},"onsetPeriod":{"start":"2025-06-06T08:00:00.000+00:00"}},"request":{"method":"PUT","url":"Condition/850a2a78-834f-4e33-9a61-dd94d7325176"}},{"fullUrl":"https://madie.cms.gov/Procedure/64131313541","resource":{"resourceType":"Procedure","id":"1098633e-9ad3-4369-8314-1cc7a0563144","meta":{"profile":["http://hl7.org/fhir/us/qicore/StructureDefinition/qicore-procedure"]},"extension":[{"url":"http://hl7.org/fhir/us/qicore/StructureDefinition/qicore-recorded","valueDateTime":"2025-04-06T08:00:00.000+00:00"}],"status":"completed","code":{"coding":[{"system":"http://snomed.info/sct","version":"http://snomed.info/sct/731000124108/version/20240301","code":"254292007","display":"Tumor staging"}]},"subject":{"reference":"Patient/06c71e6e-18fd-4cef-a68d-960ef84a56f7"},"performedDateTime":"2025-04-06T08:00:00.000+00:00"},"request":{"method":"PUT","url":"Procedure/1098633e-9ad3-4369-8314-1cc7a0563144"}},{"fullUrl":"https://madie.cms.gov/Observation/95452545","resource":{"resourceType":"Observation","id":"c0d4fe7a-ec1b-4712-857c-e01701556248","meta":{"profile":["http://hl7.org/fhir/us/qicore/StructureDefinition/qicore-observation"]},"partOf":[{"reference":"Procedure/64131313541"}],"status":"final","category":[{"coding":[{"system":"http://terminology.hl7.org/CodeSystem/observation-category","code":"procedure","display":"Procedure"}]}],"code":{"coding":[{"system":"http://loinc.org","version":"2.76","code":"21902-2","display":"Stage group.pathology Cancer"}]},"subject":{"reference":"Patient/06c71e6e-18fd-4cef-a68d-960ef84a56f7"},"effectiveDateTime":"2025-04-06T08:00:00.000+00:00","issued":"2025-04-06T08:10:00.000+00:00","valueCodeableConcept":{"coding":[{"system":"http://snomed.info/sct","version":"http://snomed.info/sct/731000124108/version/20240301","code":"1228883000","display":"American Joint Committee on Cancer cTa (qualifier value)"}]}},"request":{"method":"PUT","url":"Observation/c0d4fe7a-ec1b-4712-857c-e01701556248"}},{"fullUrl":"https://madie.cms.gov/MeasureReport/13994f1b-c101-4e26-acfa-a773afb82c0e","resource":{"resourceType":"MeasureReport","id":"13994f1b-c101-4e26-acfa-a773afb82c0e","meta":{"profile":["http://hl7.org/fhir/us/cqfmeasures/StructureDefinition/test-case-cqfm"]},"contained":[{"resourceType":"Parameters","id":"caa33ee5-a3f3-4d93-a2db-18f6213560a8-parameters","parameter":[{"name":"subject","valueString":"06c71e6e-18fd-4cef-a68d-960ef84a56f7"}]}],"extension":[{"url":"http://hl7.org/fhir/us/cqfmeasures/StructureDefinition/cqfm-inputParameters","valueReference":{"reference":"#caa33ee5-a3f3-4d93-a2db-18f6213560a8-parameters"}},{"url":"http://hl7.org/fhir/us/cqfmeasures/StructureDefinition/cqfm-testCaseDescription","valueMarkdown":"patient with OV in MP. Bladder cancer diagnosis and cancer staging in MP.  Pt has HIV dx after staging and should not be excluded."}],"modifierExtension":[{"url":"http://hl7.org/fhir/us/cqfmeasures/StructureDefinition/cqfm-isTestCase","valueBoolean":true}],"status":"complete","type":"individual","measure":"https://madie.cms.gov/Measure/IntravesicalBacillusCalmetteGuerinForBladderCancerFHIR","period":{"start":"2025-01-01","end":"2025-12-31"},"group":[{"population":[{"code":{"coding":[{"system":"http://terminology.hl7.org/CodeSystem/measure-population","code":"initial-population","display":"Initial Population"}]},"count":1},{"code":{"coding":[{"system":"http://terminology.hl7.org/CodeSystem/measure-population","code":"denominator","display":"Denominator"}]},"count":1},{"code":{"coding":[{"system":"http://terminology.hl7.org/CodeSystem/measure-population","code":"denominator-exclusion","display":"Denominator Exclusion"}]},"count":0},{"code":{"coding":[{"system":"http://terminology.hl7.org/CodeSystem/measure-population","code":"numerator","display":"Numerator"}]},"count":0},{"code":{"coding":[{"system":"http://terminology.hl7.org/CodeSystem/measure-population","code":"denominator-exception","display":"Denominator Exception"}]},"count":0}]}]},"request":{"method":"PUT","url":"MeasureReport/13994f1b-c101-4e26-acfa-a773afb82c0e"}}]}