{"resourceType":"Bundle","id":"tests-5e66e158-8c05-4016-824e-272bd37df61c-bundle","type":"transaction","entry":[{"fullUrl":"https://madie.cms.gov/Patient/5e66e158-8c05-4016-824e-272bd37df61c","resource":{"resourceType":"Patient","id":"5e66e158-8c05-4016-824e-272bd37df61c","meta":{"profile":["http://hl7.org/fhir/us/qicore/StructureDefinition/qicore-patient"]},"extension":[{"url":"http://hl7.org/fhir/us/core/StructureDefinition/us-core-race","extension":[{"url":"ombCategory","valueCoding":{"system":"urn:oid:2.16.840.1.113883.6.238","code":"1002-5","display":"American Indian or Alaska Native"}},{"url":"text","valueString":"American Indian or Alaska Native"}]},{"url":"http://hl7.org/fhir/us/core/StructureDefinition/us-core-ethnicity","extension":[{"url":"ombCategory","valueCoding":{"system":"urn:oid:2.16.840.1.113883.6.238","code":"2135-2","display":"Hispanic or Latino"}},{"url":"text","valueString":"Hispanic or Latino"}]}],"identifier":[{"type":{"coding":[{"system":"http://terminology.hl7.org/CodeSystem/v2-0203","code":"MR"}]},"system":"https://bonnie-fhir.healthit.gov/","value":"62bc69333e113102f8cedca6"}],"name":[{"family":"NUMERPass","given":["FirstStagingJuneAfterStartofMPEdge"]}],"gender":"female","birthDate":"1946-02-01"},"request":{"method":"PUT","url":"Patient/5e66e158-8c05-4016-824e-272bd37df61c"}},{"fullUrl":"https://madie.cms.gov/Encounter/office-visit-dca7","resource":{"resourceType":"Encounter","id":"0efdf84f-9bf7-4aee-b1e6-904b530b5001","meta":{"profile":["http://hl7.org/fhir/us/qicore/StructureDefinition/qicore-encounter"]},"status":"finished","class":{"system":"http://terminology.hl7.org/CodeSystem/v3-ActCode","code":"AMB","display":"ambulatory"},"type":[{"coding":[{"system":"http://snomed.info/sct","version":"http://snomed.info/sct/731000124108/version/20240301","code":"185463005","display":"Visit out of hours (procedure)"}]}],"subject":{"reference":"Patient/5e66e158-8c05-4016-824e-272bd37df61c"},"period":{"start":"2025-12-30T08:00:00.000+00:00","end":"2025-12-30T09:15:00.000+00:00"}},"request":{"method":"PUT","url":"Encounter/0efdf84f-9bf7-4aee-b1e6-904b530b5001"}},{"fullUrl":"https://madie.cms.gov/Condition/prostate-cancer-dca8","resource":{"resourceType":"Condition","id":"c08a000c-130c-4884-840a-e0b66500ac87","meta":{"profile":["http://hl7.org/fhir/us/qicore/StructureDefinition/qicore-condition"]},"clinicalStatus":{"coding":[{"system":"http://terminology.hl7.org/CodeSystem/condition-clinical","code":"active","display":"Active"}]},"verificationStatus":{"coding":[{"system":"http://terminology.hl7.org/CodeSystem/condition-ver-status","code":"confirmed","display":"Confirmed"}]},"category":[{"coding":[{"system":"http://terminology.hl7.org/CodeSystem/condition-category","code":"problem-list-item","display":"Problem List Item"}]}],"code":{"coding":[{"system":"http://hl7.org/fhir/sid/icd-10-cm","version":"2024","code":"C67.3","display":"Malignant neoplasm of anterior wall of bladder"}]},"subject":{"reference":"Patient/5e66e158-8c05-4016-824e-272bd37df61c"},"onsetDateTime":"2025-06-30T08:00:00.000+00:00"},"request":{"method":"PUT","url":"Condition/c08a000c-130c-4884-840a-e0b66500ac87"}},{"fullUrl":"https://madie.cms.gov/Observation/numer-pass-CMS646v0QICore4-4","resource":{"resourceType":"Observation","id":"83646cb2-5408-4638-9266-0b31d2590128","meta":{"profile":["http://hl7.org/fhir/us/qicore/StructureDefinition/qicore-observation"]},"partOf":[{"reference":"Procedure/numer-pass-CMS646v0QICore4-3"}],"status":"final","category":[{"coding":[{"system":"http://terminology.hl7.org/CodeSystem/observation-category","code":"procedure","display":"Procedure"}]}],"code":{"coding":[{"system":"http://loinc.org","version":"2.76","code":"21902-2","display":"Stage group.pathology Cancer"}]},"subject":{"reference":"Patient/5e66e158-8c05-4016-824e-272bd37df61c"},"effectivePeriod":{"start":"2025-06-30T08:00:00.000+00:00","end":"2025-06-30T08:15:00.000+00:00"},"issued":"2025-06-30T08:15:00.000+00:00","valueCodeableConcept":{"coding":[{"system":"http://snomed.info/sct","version":"http://snomed.info/sct/731000124108/version/20240301","code":"1228883000","display":"American Joint Committee on Cancer cTa (qualifier value)"}]}},"request":{"method":"PUT","url":"Observation/83646cb2-5408-4638-9266-0b31d2590128"}},{"fullUrl":"https://madie.cms.gov/MedicationAdministration/46454164","resource":{"resourceType":"MedicationAdministration","id":"7bdb161a-b64d-4b82-874c-2889010d55e8","meta":{"profile":["http://hl7.org/fhir/us/qicore/StructureDefinition/qicore-medicationadministration"]},"status":"in-progress","medicationCodeableConcept":{"coding":[{"system":"http://www.nlm.nih.gov/research/umls/rxnorm","version":"04012024","code":"1653579","display":"BCG, live, Tice strain 50 MG Injection"}]},"subject":{"reference":"Patient/5e66e158-8c05-4016-824e-272bd37df61c"},"effectiveDateTime":"2025-12-30T08:00:00.000+00:00"},"request":{"method":"PUT","url":"MedicationAdministration/7bdb161a-b64d-4b82-874c-2889010d55e8"}},{"fullUrl":"https://madie.cms.gov/Practitioner/13143134531634","resource":{"resourceType":"Practitioner","id":"784b5501-484d-4ee1-9244-0bf17ea3baac","meta":{"profile":["http://hl7.org/fhir/us/qicore/StructureDefinition/qicore-practitioner"]},"identifier":[{"use":"temp","system":"urn:oid:2.16.840.1.113883.4.336","value":"Practitioner-23"}],"active":true,"name":[{"family":"Careful","given":["Adam"],"prefix":["Dr"]}],"address":[{"use":"home","line":["534 Erewhon St"],"city":"PleasantVille","state":"UT","postalCode":"84414"}],"qualification":[{"identifier":[{"system":"http://example.org/UniversityIdentifier","value":"12345"}],"code":{"coding":[{"system":"http://terminology.hl7.org/CodeSystem/v2-0360|2.7","code":"BS","display":"Bachelor of Science"}],"text":"Bachelor of Science"},"period":{"start":"1995"},"issuer":{"display":"Example University"}}]},"request":{"method":"PUT","url":"Practitioner/784b5501-484d-4ee1-9244-0bf17ea3baac"}},{"fullUrl":"https://madie.cms.gov/Procedure/numer-pass-CMS646v0QICore4-3","resource":{"resourceType":"Procedure","id":"ac69fb21-af6e-4a69-9f6e-c2bc57427a82","meta":{"profile":["http://hl7.org/fhir/us/qicore/StructureDefinition/qicore-procedure"]},"extension":[{"url":"http://hl7.org/fhir/us/qicore/StructureDefinition/qicore-recorded","valueDateTime":"2025-06-30T08:00:00.000+00:00"}],"status":"completed","code":{"coding":[{"system":"http://snomed.info/sct","version":"http://snomed.info/sct/731000124108/version/20240301","code":"254292007","display":"Tumor staging","userSelected":true}]},"subject":{"reference":"Patient/5e66e158-8c05-4016-824e-272bd37df61c"},"performedPeriod":{"start":"2025-06-30T08:00:00.000+00:00","end":"2025-06-30T08:15:00.000+00:00"}},"request":{"method":"PUT","url":"Procedure/ac69fb21-af6e-4a69-9f6e-c2bc57427a82"}},{"fullUrl":"https://madie.cms.gov/MeasureReport/e4b44a34-9d59-4097-9154-0a055250bf12","resource":{"resourceType":"MeasureReport","id":"e4b44a34-9d59-4097-9154-0a055250bf12","meta":{"profile":["http://hl7.org/fhir/us/cqfmeasures/StructureDefinition/test-case-cqfm"]},"contained":[{"resourceType":"Parameters","id":"54f5c5c0-e7dd-47c4-abff-d207aa69404c-parameters","parameter":[{"name":"subject","valueString":"5e66e158-8c05-4016-824e-272bd37df61c"}]}],"extension":[{"url":"http://hl7.org/fhir/us/cqfmeasures/StructureDefinition/cqfm-inputParameters","valueReference":{"reference":"#54f5c5c0-e7dd-47c4-abff-d207aa69404c-parameters"}},{"url":"http://hl7.org/fhir/us/cqfmeasures/StructureDefinition/cqfm-testCaseDescription","valueMarkdown":"Patient with OV in MP. Bladder cancer staging June 30 of MP with bladder cancer diagnosis.  BCG given Dec 31 of MP."}],"modifierExtension":[{"url":"http://hl7.org/fhir/us/cqfmeasures/StructureDefinition/cqfm-isTestCase","valueBoolean":true}],"status":"complete","type":"individual","measure":"https://madie.cms.gov/Measure/IntravesicalBacillusCalmetteGuerinForBladderCancerFHIR","period":{"start":"2025-01-01","end":"2025-12-31"},"group":[{"population":[{"code":{"coding":[{"system":"http://terminology.hl7.org/CodeSystem/measure-population","code":"initial-population","display":"Initial Population"}]},"count":1},{"code":{"coding":[{"system":"http://terminology.hl7.org/CodeSystem/measure-population","code":"denominator","display":"Denominator"}]},"count":1},{"code":{"coding":[{"system":"http://terminology.hl7.org/CodeSystem/measure-population","code":"denominator-exclusion","display":"Denominator Exclusion"}]},"count":0},{"code":{"coding":[{"system":"http://terminology.hl7.org/CodeSystem/measure-population","code":"numerator","display":"Numerator"}]},"count":1},{"code":{"coding":[{"system":"http://terminology.hl7.org/CodeSystem/measure-population","code":"denominator-exception","display":"Denominator Exception"}]},"count":0}]}]},"request":{"method":"PUT","url":"MeasureReport/e4b44a34-9d59-4097-9154-0a055250bf12"}}]}