{"resourceType":"Bundle","id":"tests-40ac7a7f-5aa0-48d5-9dbf-289ad5ecf863-bundle","type":"transaction","entry":[{"fullUrl":"https://madie.cms.gov/Patient/40ac7a7f-5aa0-48d5-9dbf-289ad5ecf863","resource":{"resourceType":"Patient","id":"40ac7a7f-5aa0-48d5-9dbf-289ad5ecf863","meta":{"profile":["http://hl7.org/fhir/us/qicore/StructureDefinition/qicore-patient"]},"extension":[{"url":"http://hl7.org/fhir/us/core/StructureDefinition/us-core-race","extension":[{"url":"ombCategory","valueCoding":{"system":"urn:oid:2.16.840.1.113883.6.238","code":"2106-3","display":"White"}},{"url":"text","valueString":"White"}]},{"url":"http://hl7.org/fhir/us/core/StructureDefinition/us-core-ethnicity","extension":[{"url":"ombCategory","valueCoding":{"system":"urn:oid:2.16.840.1.113883.6.238","code":"2135-2","display":"Hispanic or Latino"}},{"url":"text","valueString":"Hispanic or Latino"}]}],"identifier":[{"type":{"coding":[{"system":"http://terminology.hl7.org/CodeSystem/v2-0203","code":"MR"}]},"system":"https://bonnie-fhir.healthit.gov/","value":"613103ab313C414126351"}],"name":[{"family":"DENEXCEPPass","given":["BCGNotGivenLastDay6Mo"]}],"gender":"female","birthDate":"1947-12-27"},"request":{"method":"PUT","url":"Patient/40ac7a7f-5aa0-48d5-9dbf-289ad5ecf863"}},{"fullUrl":"https://madie.cms.gov/Condition/461313103","resource":{"resourceType":"Condition","id":"a4cf97eb-c2e1-4dce-827d-43365f66d197","meta":{"profile":["http://hl7.org/fhir/us/qicore/StructureDefinition/qicore-condition"]},"clinicalStatus":{"coding":[{"system":"http://terminology.hl7.org/CodeSystem/condition-clinical","code":"active","display":"Active"}]},"verificationStatus":{"coding":[{"system":"http://terminology.hl7.org/CodeSystem/condition-ver-status","code":"confirmed","display":"Confirmed"}]},"category":[{"coding":[{"system":"http://terminology.hl7.org/CodeSystem/condition-category","code":"problem-list-item","display":"Problem List Item"}]}],"code":{"coding":[{"system":"http://hl7.org/fhir/sid/icd-10-cm","version":"2024","code":"C67.1","display":"Malignant neoplasm of dome of bladder"}]},"subject":{"reference":"Patient/40ac7a7f-5aa0-48d5-9dbf-289ad5ecf863"},"onsetDateTime":"2025-03-05T08:00:00.000+00:00"},"request":{"method":"PUT","url":"Condition/a4cf97eb-c2e1-4dce-827d-43365f66d197"}},{"fullUrl":"https://madie.cms.gov/Encounter/461321030","resource":{"resourceType":"Encounter","id":"d62cfc05-5fc9-457b-94d7-ea189d5cc56e","meta":{"profile":["http://hl7.org/fhir/us/qicore/StructureDefinition/qicore-encounter"]},"status":"finished","class":{"system":"http://terminology.hl7.org/CodeSystem/v3-ActCode","code":"AMB","display":"ambulatory"},"type":[{"coding":[{"system":"http://www.ama-assn.org/go/cpt","version":"2024","code":"99202"}]}],"subject":{"reference":"Patient/40ac7a7f-5aa0-48d5-9dbf-289ad5ecf863"},"period":{"start":"2025-03-05T08:00:00.000+00:00","end":"2025-03-05T08:15:00.000+00:00"}},"request":{"method":"PUT","url":"Encounter/d62cfc05-5fc9-457b-94d7-ea189d5cc56e"}},{"fullUrl":"https://madie.cms.gov/MedicationAdministration/464631033","resource":{"resourceType":"MedicationAdministration","id":"28dcfe5d-97e4-4395-8bf2-c68b8618d24b","meta":{"profile":["http://hl7.org/fhir/us/qicore/StructureDefinition/qicore-mednotadministered"]},"extension":[{"url":"http://hl7.org/fhir/us/qicore/StructureDefinition/qicore-recorded","valueDateTime":"2025-09-05T08:00:00.000+00:00"}],"status":"not-done","statusReason":[{"coding":[{"system":"http://snomed.info/sct","version":"http://snomed.info/sct/731000124108/version/20240301","code":"242990004","display":"Drug not available for administration (event)"}]}],"medicationCodeableConcept":{"coding":[{"system":"http://www.nlm.nih.gov/research/umls/rxnorm","version":"04012024","code":"1653484","display":"BCG, live, Tice strain 50 MG/ML Topical Suspension"}]},"subject":{"reference":"Patient/40ac7a7f-5aa0-48d5-9dbf-289ad5ecf863"},"effectivePeriod":{"start":"2025-09-05T08:00:00.000+00:00","end":"2025-09-05T08:00:00.000+00:00"}},"request":{"method":"PUT","url":"MedicationAdministration/28dcfe5d-97e4-4395-8bf2-c68b8618d24b"}},{"fullUrl":"https://madie.cms.gov/Procedure/46132035131","resource":{"resourceType":"Procedure","id":"6a834614-e2ef-4b0e-b797-9ed60c6cd522","meta":{"profile":["http://hl7.org/fhir/us/qicore/StructureDefinition/qicore-procedure"]},"extension":[{"url":"http://hl7.org/fhir/us/qicore/StructureDefinition/qicore-recorded","valueDateTime":"2025-04-06T08:00:00.000+00:00"}],"status":"completed","code":{"coding":[{"system":"http://snomed.info/sct","version":"http://snomed.info/sct/731000124108/version/20240301","code":"254292007","display":"Tumor staging"}]},"subject":{"reference":"Patient/40ac7a7f-5aa0-48d5-9dbf-289ad5ecf863"},"performedPeriod":{"start":"2025-03-05T08:00:00.000+00:00","end":"2025-03-06T08:15:00.000+00:00"}},"request":{"method":"PUT","url":"Procedure/6a834614-e2ef-4b0e-b797-9ed60c6cd522"}},{"fullUrl":"https://madie.cms.gov/Observation/351310303","resource":{"resourceType":"Observation","id":"ddaa8576-fdde-47c3-aecb-b2aec691f53f","meta":{"profile":["http://hl7.org/fhir/us/qicore/StructureDefinition/qicore-observation"]},"partOf":[{"reference":"Procedure/46132035131"}],"status":"final","category":[{"coding":[{"system":"http://terminology.hl7.org/CodeSystem/observation-category","code":"procedure","display":"Procedure"}]}],"code":{"coding":[{"system":"http://loinc.org","version":"2.76","code":"21902-2","display":"Stage group.pathology Cancer"}]},"subject":{"reference":"Patient/40ac7a7f-5aa0-48d5-9dbf-289ad5ecf863"},"effectivePeriod":{"start":"2025-03-05T08:00:00.000+00:00","end":"2025-03-06T08:15:00.000+00:00"},"issued":"2025-03-05T08:00:00.000+00:00","valueCodeableConcept":{"coding":[{"system":"http://snomed.info/sct","version":"http://snomed.info/sct/731000124108/version/20240301","code":"1228883000","display":"American Joint Committee on Cancer cTa (qualifier value)"}]}},"request":{"method":"PUT","url":"Observation/ddaa8576-fdde-47c3-aecb-b2aec691f53f"}},{"fullUrl":"https://madie.cms.gov/MeasureReport/a51e7136-658f-4e36-a6db-bb670a984ad8","resource":{"resourceType":"MeasureReport","id":"a51e7136-658f-4e36-a6db-bb670a984ad8","meta":{"profile":["http://hl7.org/fhir/us/cqfmeasures/StructureDefinition/test-case-cqfm"]},"contained":[{"resourceType":"Parameters","id":"bdddf116-e855-4458-8c2e-a916cfffb1f1-parameters","parameter":[{"name":"subject","valueString":"40ac7a7f-5aa0-48d5-9dbf-289ad5ecf863"}]}],"extension":[{"url":"http://hl7.org/fhir/us/cqfmeasures/StructureDefinition/cqfm-inputParameters","valueReference":{"reference":"#bdddf116-e855-4458-8c2e-a916cfffb1f1-parameters"}},{"url":"http://hl7.org/fhir/us/cqfmeasures/StructureDefinition/cqfm-testCaseDescription","valueMarkdown":"Patient meets IPP.  BCG not available during MP. Should pass. Note: Issue with Denominator Exception due to negation issue."}],"modifierExtension":[{"url":"http://hl7.org/fhir/us/cqfmeasures/StructureDefinition/cqfm-isTestCase","valueBoolean":true}],"status":"complete","type":"individual","measure":"https://madie.cms.gov/Measure/IntravesicalBacillusCalmetteGuerinForBladderCancerFHIR","period":{"start":"2025-01-01","end":"2025-12-31"},"group":[{"population":[{"code":{"coding":[{"system":"http://terminology.hl7.org/CodeSystem/measure-population","code":"initial-population","display":"Initial Population"}]},"count":1},{"code":{"coding":[{"system":"http://terminology.hl7.org/CodeSystem/measure-population","code":"denominator","display":"Denominator"}]},"count":1},{"code":{"coding":[{"system":"http://terminology.hl7.org/CodeSystem/measure-population","code":"denominator-exclusion","display":"Denominator Exclusion"}]},"count":0},{"code":{"coding":[{"system":"http://terminology.hl7.org/CodeSystem/measure-population","code":"numerator","display":"Numerator"}]},"count":0},{"code":{"coding":[{"system":"http://terminology.hl7.org/CodeSystem/measure-population","code":"denominator-exception","display":"Denominator Exception"}]},"count":0}]}]},"request":{"method":"PUT","url":"MeasureReport/a51e7136-658f-4e36-a6db-bb670a984ad8"}}]}