{"resourceType":"Bundle","id":"tests-a860bf3e-dbc6-400f-b921-aa364db4dec4-bundle","type":"transaction","entry":[{"fullUrl":"https://madie.cms.gov/Patient/a860bf3e-dbc6-400f-b921-aa364db4dec4","resource":{"resourceType":"Patient","id":"a860bf3e-dbc6-400f-b921-aa364db4dec4","meta":{"profile":["http://hl7.org/fhir/us/qicore/StructureDefinition/qicore-patient"]},"extension":[{"url":"http://hl7.org/fhir/us/core/StructureDefinition/us-core-race","extension":[{"url":"ombCategory","valueCoding":{"system":"urn:oid:2.16.840.1.113883.6.238","code":"2076-8","display":"Native Hawaiian or Other Pacific Islander"}},{"url":"text","valueString":"Native Hawaiian or Other Pacific Islander"}]},{"url":"http://hl7.org/fhir/us/core/StructureDefinition/us-core-ethnicity","extension":[{"url":"ombCategory","valueCoding":{"system":"urn:oid:2.16.840.1.113883.6.238","code":"2186-5","display":"Not Hispanic or Latino"}},{"url":"text","valueString":"Not Hispanic or Latino"}]}],"identifier":[{"type":{"coding":[{"system":"http://terminology.hl7.org/CodeSystem/v2-0203","code":"MR"}]},"system":"https://bonnie-fhir.healthit.gov/","value":"7843135463165262"}],"name":[{"family":"DENEXFail","given":["ImmunosuppressiveDxAfterStaging"]}],"gender":"female","birthDate":"1946-11-03"},"request":{"method":"PUT","url":"Patient/a860bf3e-dbc6-400f-b921-aa364db4dec4"}},{"fullUrl":"https://madie.cms.gov/Encounter/6431313497641","resource":{"resourceType":"Encounter","id":"7d0a69ba-7265-4565-97de-d3ebb62f522d","meta":{"profile":["http://hl7.org/fhir/us/qicore/StructureDefinition/qicore-encounter"]},"status":"finished","class":{"system":"http://terminology.hl7.org/CodeSystem/v3-ActCode","code":"AMB","display":"ambulatory"},"type":[{"coding":[{"system":"http://snomed.info/sct","version":"http://snomed.info/sct/731000124108/version/20240301","code":"185463005","display":"Visit out of hours (procedure)"}]}],"subject":{"reference":"Patient/a860bf3e-dbc6-400f-b921-aa364db4dec4"},"period":{"start":"2025-04-06T08:00:00.000+00:00","end":"2025-04-06T09:15:00.000+00:00"}},"request":{"method":"PUT","url":"Encounter/7d0a69ba-7265-4565-97de-d3ebb62f522d"}},{"fullUrl":"https://madie.cms.gov/Condition/416135131310","resource":{"resourceType":"Condition","id":"36ea6fb5-e239-4ba0-9c93-cbe7c87e1bfc","meta":{"profile":["http://hl7.org/fhir/us/qicore/StructureDefinition/qicore-condition"]},"clinicalStatus":{"coding":[{"system":"http://terminology.hl7.org/CodeSystem/condition-clinical","code":"active","display":"Active"}]},"verificationStatus":{"coding":[{"system":"http://terminology.hl7.org/CodeSystem/condition-ver-status","code":"confirmed","display":"Confirmed"}]},"category":[{"coding":[{"system":"http://terminology.hl7.org/CodeSystem/condition-category","code":"problem-list-item","display":"Problem List Item"}]}],"code":{"coding":[{"system":"http://hl7.org/fhir/sid/icd-10-cm","version":"2024","code":"C67.1","display":"Malignant neoplasm of dome of bladder"}]},"subject":{"reference":"Patient/a860bf3e-dbc6-400f-b921-aa364db4dec4"},"onsetPeriod":{"start":"2025-04-06T08:00:00.000+00:00"}},"request":{"method":"PUT","url":"Condition/36ea6fb5-e239-4ba0-9c93-cbe7c87e1bfc"}},{"fullUrl":"https://madie.cms.gov/Condition/2153211313","resource":{"resourceType":"Condition","id":"6898b38b-9d34-4e72-be29-684ccb8ecdb0","meta":{"profile":["http://hl7.org/fhir/us/qicore/StructureDefinition/qicore-condition"]},"clinicalStatus":{"coding":[{"system":"http://terminology.hl7.org/CodeSystem/condition-clinical","code":"active","display":"Active"}]},"verificationStatus":{"coding":[{"system":"http://terminology.hl7.org/CodeSystem/condition-ver-status","code":"confirmed","display":"Confirmed"}]},"category":[{"coding":[{"system":"http://terminology.hl7.org/CodeSystem/condition-category","code":"problem-list-item","display":"Problem List Item"}]}],"code":{"coding":[{"system":"http://snomed.info/sct","version":"http://snomed.info/sct/731000124108/version/20240301","code":"109977009","display":"Peripheral T-cell lymphoma (disorder)"}]},"subject":{"reference":"Patient/a860bf3e-dbc6-400f-b921-aa364db4dec4"},"onsetPeriod":{"start":"2025-04-07T08:00:00.000+00:00"}},"request":{"method":"PUT","url":"Condition/6898b38b-9d34-4e72-be29-684ccb8ecdb0"}},{"fullUrl":"https://madie.cms.gov/Procedure/64131313541","resource":{"resourceType":"Procedure","id":"769f4b14-e0b2-407d-9ba5-673d15181a39","meta":{"profile":["http://hl7.org/fhir/us/qicore/StructureDefinition/qicore-procedure"]},"extension":[{"url":"http://hl7.org/fhir/us/qicore/StructureDefinition/qicore-recorded","valueDateTime":"2025-04-06T08:00:00.000+00:00"}],"status":"completed","code":{"coding":[{"system":"http://snomed.info/sct","version":"http://snomed.info/sct/731000124108/version/20240301","code":"254292007","display":"Tumor staging"}]},"subject":{"reference":"Patient/a860bf3e-dbc6-400f-b921-aa364db4dec4"},"performedDateTime":"2025-04-06T08:00:00.000+00:00"},"request":{"method":"PUT","url":"Procedure/769f4b14-e0b2-407d-9ba5-673d15181a39"}},{"fullUrl":"https://madie.cms.gov/Observation/95452545","resource":{"resourceType":"Observation","id":"849ed78c-33e9-4394-9a13-88148b9133bd","meta":{"profile":["http://hl7.org/fhir/us/qicore/StructureDefinition/qicore-observation"]},"partOf":[{"reference":"Procedure/64131313541"}],"status":"final","category":[{"coding":[{"system":"http://terminology.hl7.org/CodeSystem/observation-category","code":"procedure","display":"Procedure"}]}],"code":{"coding":[{"system":"http://loinc.org","version":"2.76","code":"21902-2","display":"Stage group.pathology Cancer"}]},"subject":{"reference":"Patient/a860bf3e-dbc6-400f-b921-aa364db4dec4"},"effectiveDateTime":"2025-04-06T08:00:00.000+00:00","issued":"2025-04-06T08:10:00.000+00:00","valueCodeableConcept":{"coding":[{"system":"http://snomed.info/sct","version":"http://snomed.info/sct/731000124108/version/20240301","code":"1228883000","display":"American Joint Committee on Cancer cTa (qualifier value)"}]}},"request":{"method":"PUT","url":"Observation/849ed78c-33e9-4394-9a13-88148b9133bd"}},{"fullUrl":"https://madie.cms.gov/MeasureReport/bcf22248-cfd9-40c3-98e0-bd3670b816ab","resource":{"resourceType":"MeasureReport","id":"bcf22248-cfd9-40c3-98e0-bd3670b816ab","meta":{"profile":["http://hl7.org/fhir/us/cqfmeasures/StructureDefinition/test-case-cqfm"]},"contained":[{"resourceType":"Parameters","id":"516a7048-b553-4997-b3b3-de47ca1f43ca-parameters","parameter":[{"name":"subject","valueString":"a860bf3e-dbc6-400f-b921-aa364db4dec4"}]}],"extension":[{"url":"http://hl7.org/fhir/us/cqfmeasures/StructureDefinition/cqfm-inputParameters","valueReference":{"reference":"#516a7048-b553-4997-b3b3-de47ca1f43ca-parameters"}},{"url":"http://hl7.org/fhir/us/cqfmeasures/StructureDefinition/cqfm-testCaseDescription","valueMarkdown":"Patient with OV in MP. Bladder cancer diagnosis and cancer staging in MP.  Pt has Immunocompromised dx noted on day after staging and should be excluded. "}],"modifierExtension":[{"url":"http://hl7.org/fhir/us/cqfmeasures/StructureDefinition/cqfm-isTestCase","valueBoolean":true}],"status":"complete","type":"individual","measure":"https://madie.cms.gov/Measure/IntravesicalBacillusCalmetteGuerinForBladderCancerFHIR","period":{"start":"2025-01-01","end":"2025-12-31"},"group":[{"population":[{"code":{"coding":[{"system":"http://terminology.hl7.org/CodeSystem/measure-population","code":"initial-population","display":"Initial Population"}]},"count":1},{"code":{"coding":[{"system":"http://terminology.hl7.org/CodeSystem/measure-population","code":"denominator","display":"Denominator"}]},"count":1},{"code":{"coding":[{"system":"http://terminology.hl7.org/CodeSystem/measure-population","code":"denominator-exclusion","display":"Denominator Exclusion"}]},"count":0},{"code":{"coding":[{"system":"http://terminology.hl7.org/CodeSystem/measure-population","code":"numerator","display":"Numerator"}]},"count":0},{"code":{"coding":[{"system":"http://terminology.hl7.org/CodeSystem/measure-population","code":"denominator-exception","display":"Denominator Exception"}]},"count":0}]}]},"request":{"method":"PUT","url":"MeasureReport/bcf22248-cfd9-40c3-98e0-bd3670b816ab"}}]}