{
  "resourceType": "Bundle",
  "id": "363b28a9-e77d-4fee-aaaf-73ebb35bc57c",
  "type": "transaction",
  "entry": [ {
    "fullUrl": "https://madie.cms.gov/Patient/c85ad9d3-e24d-47a2-a4ab-8a9b6d3bb9af",
    "resource": {
      "resourceType": "Patient",
      "id": "c85ad9d3-e24d-47a2-a4ab-8a9b6d3bb9af",
      "meta": {
        "profile": [ "http://hl7.org/fhir/us/qicore/StructureDefinition/qicore-patient" ]
      },
      "extension": [ {
        "url": "http://hl7.org/fhir/us/core/StructureDefinition/us-core-race",
        "extension": [ {
          "url": "ombCategory",
          "valueCoding": {
            "system": "urn:oid:2.16.840.1.113883.6.238",
            "code": "2106-3",
            "display": "White"
          }
        }, {
          "url": "text",
          "valueString": "White"
        } ]
      }, {
        "url": "http://hl7.org/fhir/us/core/StructureDefinition/us-core-ethnicity",
        "extension": [ {
          "url": "ombCategory",
          "valueCoding": {
            "system": "urn:oid:2.16.840.1.113883.6.238",
            "code": "2135-2",
            "display": "Hispanic or Latino"
          }
        }, {
          "url": "text",
          "valueString": "Hispanic or Latino"
        } ]
      } ],
      "identifier": [ {
        "system": "http://hospital.smarthealthit.org",
        "value": "999999999"
      } ],
      "name": [ {
        "family": "Example",
        "given": [ "Patient" ]
      } ],
      "gender": "male",
      "birthDate": "1955-01-01"
    },
    "request": {
      "method": "POST",
      "url": "Patient/c85ad9d3-e24d-47a2-a4ab-8a9b6d3bb9af"
    }
  }, {
    "fullUrl": "https://madie.cms.gov/Encounter/5e8cccc8931f9c0000abd5b9",
    "resource": {
      "resourceType": "Encounter",
      "id": "5e8cccc8931f9c0000abd5b9",
      "meta": {
        "profile": [ "http://hl7.org/fhir/us/qicore/StructureDefinition/qicore-encounter" ]
      },
      "status": "finished",
      "class": {
        "system": "http://terminology.hl7.org/CodeSystem/v3-ActCode",
        "code": "IMP",
        "display": "inpatient encounter"
      },
      "type": [ {
        "coding": [ {
          "system": "http://snomed.info/sct",
          "code": "183452005"
        } ]
      } ],
      "subject": {
        "reference": "Patient/c85ad9d3-e24d-47a2-a4ab-8a9b6d3bb9af"
      },
      "period": {
        "start": "2025-04-07T08:00:00.000Z",
        "end": "2025-04-11T08:15:00.000Z"
      }
    },
    "request": {
      "method": "POST",
      "url": "Encounter/5e8cccc8931f9c0000abd5b9"
    }
  }, {
    "fullUrl": "https://madie.cms.gov/Condition/33e3e44c-9ace-11ed-9919-f340a01f594c",
    "resource": {
      "resourceType": "Condition",
      "id": "33e3e44c-9ace-11ed-9919-f340a01f594c",
      "meta": {
        "profile": [ "http://hl7.org/fhir/us/qicore/StructureDefinition/qicore-condition" ]
      },
      "clinicalStatus": {
        "coding": [ {
          "system": "http://terminology.hl7.org/CodeSystem/condition-clinical",
          "code": "active"
        } ]
      },
      "category": [ {
        "coding": [ {
          "system": "http://terminology.hl7.org/CodeSystem/condition-category",
          "code": "encounter-diagnosis",
          "display": "Encounter Diagnosis"
        } ]
      } ],
      "code": {
        "coding": [ {
          "system": "http://hl7.org/fhir/sid/icd-10-cm",
          "code": "E10.21",
          "display": "Type 1 diabetes mellitus with diabetic nephropathy"
        } ]
      },
      "subject": {
        "reference": "Patient/c85ad9d3-e24d-47a2-a4ab-8a9b6d3bb9af"
      },
      "onsetDateTime": "2010-01-02"
    },
    "request": {
      "method": "POST",
      "url": "Condition/33e3e44c-9ace-11ed-9919-f340a01f594c"
    }
  }, {
    "fullUrl": "https://madie.cms.gov/MeasureReport/0b50c97a-1fe9-40c8-9cc1-2f0b6b9165a7",
    "resource": {
      "resourceType": "MeasureReport",
      "id": "0b50c97a-1fe9-40c8-9cc1-2f0b6b9165a7",
      "meta": {
        "profile": [ "http://hl7.org/fhir/us/cqfmeasures/StructureDefinition/test-case-cqfm" ]
      },
      "contained": [ {
        "resourceType": "Parameters",
        "id": "a56df34d-b5a7-4522-87e2-009c6f5035bb-parameters",
        "parameter": [ {
          "name": "subject",
          "valueString": "c85ad9d3-e24d-47a2-a4ab-8a9b6d3bb9af"
        } ]
      } ],
      "extension": [ {
        "url": "http://hl7.org/fhir/us/cqfmeasures/StructureDefinition/cqfm-inputParameters",
        "valueReference": {
          "reference": "#a56df34d-b5a7-4522-87e2-009c6f5035bb-parameters"
        }
      }, {
        "url": "http://hl7.org/fhir/us/cqfmeasures/StructureDefinition/cqfm-testCaseDescription",
        "valueMarkdown": "IP encounter with diagnosis of diabetes onset date before admission, no abatement date. Meets denominator criteria."
      } ],
      "modifierExtension": [ {
        "url": "http://hl7.org/fhir/us/cqfmeasures/StructureDefinition/cqfm-isTestCase",
        "valueBoolean": true
      } ],
      "status": "complete",
      "type": "individual",
      "measure": "https://madie.cms.gov/Measure/HospitalHarmHyperglycemiainHospitalizedPatientsFHIR",
      "period": {
        "start": "2025-01-01",
        "end": "2025-12-31"
      },
      "group": [ {
        "population": [ {
          "code": {
            "coding": [ {
              "system": "http://terminology.hl7.org/CodeSystem/measure-population",
              "code": "initial-population",
              "display": "Initial Population"
            } ]
          },
          "count": 1
        }, {
          "code": {
            "coding": [ {
              "system": "http://terminology.hl7.org/CodeSystem/measure-population",
              "code": "denominator",
              "display": "Denominator"
            } ]
          },
          "count": 1
        }, {
          "code": {
            "coding": [ {
              "system": "http://terminology.hl7.org/CodeSystem/measure-population",
              "code": "denominator-exclusion",
              "display": "Denominator Exclusion"
            } ]
          },
          "count": 0
        }, {
          "code": {
            "coding": [ {
              "system": "http://terminology.hl7.org/CodeSystem/measure-population",
              "code": "numerator",
              "display": "Numerator"
            } ]
          },
          "count": 0
        }, {
          "code": {
            "coding": [ {
              "system": "http://terminology.hl7.org/CodeSystem/measure-population",
              "code": "denominator-observation",
              "display": "DenominatorObservation"
            } ]
          },
          "count": 3
        } ]
      } ],
      "evaluatedResource": [ {
        "reference": "https://madie.cms.gov/Patient/c85ad9d3-e24d-47a2-a4ab-8a9b6d3bb9af"
      }, {
        "reference": "https://madie.cms.gov/Encounter/5e8cccc8931f9c0000abd5b9"
      }, {
        "reference": "https://madie.cms.gov/Condition/33e3e44c-9ace-11ed-9919-f340a01f594c"
      } ]
    },
    "request": {
      "method": "POST",
      "url": "MeasureReport/0b50c97a-1fe9-40c8-9cc1-2f0b6b9165a7"
    }
  } ]
}