{"resourceType":"Bundle","id":"tests-8f4da622-baac-4e14-ba4b-580d684d5b8b-bundle","type":"transaction","entry":[{"fullUrl":"https://madie.cms.gov/Patient/e8029124-d760-40eb-b25a-703e447a3e4d","resource":{"resourceType":"Patient","id":"e8029124-d760-40eb-b25a-703e447a3e4d","meta":{"profile":["http://hl7.org/fhir/us/core/StructureDefinition/us-core-patient","http://hl7.org/fhir/us/qicore/StructureDefinition/qicore-patient"]},"extension":[{"url":"http://hl7.org/fhir/us/core/StructureDefinition/us-core-race","extension":[{"url":"ombCategory","valueCoding":{"system":"urn:oid:2.16.840.1.113883.6.238","code":"2028-9","display":"Asian"}},{"url":"text","valueString":"Asian"}]},{"url":"http://hl7.org/fhir/us/core/StructureDefinition/us-core-ethnicity","extension":[{"url":"ombCategory","valueCoding":{"system":"urn:oid:2.16.840.1.113883.6.238","code":"2135-2","display":"Hispanic or Latino"}},{"url":"text","valueString":"Hispanic or Latino"}]}],"identifier":[{"system":"http://hospital.smarthealthit.org","value":"999999995"}],"name":[{"family":"FullBody","given":["DENEXPass"]}],"gender":"female","birthDate":"1986-06-12"},"request":{"method":"PUT","url":"Patient/e8029124-d760-40eb-b25a-703e447a3e4d"}},{"fullUrl":"https://madie.cms.gov/Observation/2a8f86ff-6bf8-4e09-aa03-dc018014c2c5","resource":{"resourceType":"Observation","id":"2a8f86ff-6bf8-4e09-aa03-dc018014c2c5","meta":{"profile":["http://hl7.org/fhir/us/qicore/StructureDefinition/qicore-observation"]},"status":"final","category":[{"coding":[{"system":"http://terminology.hl7.org/CodeSystem/observation-category","code":"imaging","display":"Imaging"}]}],"code":{"coding":[{"system":"http://loinc.org","code":"96914-7","display":"CT dose and image quality category"}],"text":"CT dose and image quality category"},"subject":{"reference":"Patient/e8029124-d760-40eb-b25a-703e447a3e4d"},"effectiveDateTime":"2025-01-02T00:00:00.000Z","valueCodeableConcept":{"coding":[{"system":"http://loinc.org","code":"LA31771-1","display":"Full Body"}]},"component":[{"code":{"coding":[{"system":"http://loinc.org","code":"96912-1","display":"Calculated CT global noise"}]},"valueQuantity":{"value":63,"unit":"[hnsf'U]","system":"http://unitsofmeasure.org","code":"[hnsf'U]"}},{"code":{"coding":[{"system":"http://loinc.org","code":"96913-9","display":"Calculated CT size-adjusted dose"}]},"valueQuantity":{"value":597,"unit":"mGy.cm","system":"http://unitsofmeasure.org","code":"mGy.cm"}}]},"request":{"method":"PUT","url":"Observation/2a8f86ff-6bf8-4e09-aa03-dc018014c2c5"}},{"fullUrl":"https://madie.cms.gov/MeasureReport/cc17a8d6-2fcf-432d-bd17-e1d6cac2aed5","resource":{"resourceType":"MeasureReport","id":"cc17a8d6-2fcf-432d-bd17-e1d6cac2aed5","meta":{"profile":["http://hl7.org/fhir/us/cqfmeasures/StructureDefinition/test-case-cqfm"]},"contained":[{"resourceType":"Parameters","id":"033bde4d-ce49-4fa0-b59b-32b42d948bb7-parameters","parameter":[{"name":"subject","valueString":"e8029124-d760-40eb-b25a-703e447a3e4d"}]}],"extension":[{"url":"http://hl7.org/fhir/us/cqfmeasures/StructureDefinition/cqfm-inputParameters","valueReference":{"reference":"#033bde4d-ce49-4fa0-b59b-32b42d948bb7-parameters"}},{"url":"http://hl7.org/fhir/us/cqfmeasures/StructureDefinition/cqfm-testCaseDescription","valueMarkdown":"Patient has a valid CT Scan but it is FULLBODY so it meets denominator exclusion"}],"modifierExtension":[{"url":"http://hl7.org/fhir/us/cqfmeasures/StructureDefinition/cqfm-isTestCase","valueBoolean":true}],"status":"complete","type":"individual","measure":"https://madie.cms.gov/Measure/AlaraCTClinicalFHIR","period":{"start":"2025-01-01","end":"2025-12-31"},"group":[{"population":[{"code":{"coding":[{"system":"http://terminology.hl7.org/CodeSystem/measure-population","code":"initial-population","display":"Initial Population"}]},"count":1},{"code":{"coding":[{"system":"http://terminology.hl7.org/CodeSystem/measure-population","code":"denominator","display":"Denominator"}]},"count":1},{"code":{"coding":[{"system":"http://terminology.hl7.org/CodeSystem/measure-population","code":"denominator-exclusion","display":"Denominator Exclusion"}]},"count":1},{"code":{"coding":[{"system":"http://terminology.hl7.org/CodeSystem/measure-population","code":"numerator","display":"Numerator"}]},"count":0}]}]},"request":{"method":"PUT","url":"MeasureReport/cc17a8d6-2fcf-432d-bd17-e1d6cac2aed5"}}]}