{"resourceType":"Bundle","id":"tests-1d5593d0-f513-46f6-8c2d-538685a61185-bundle","type":"transaction","entry":[{"fullUrl":"https://madie.cms.gov/Patient/9df7a0b0-f434-4cf0-ba15-6c2094595bf3","resource":{"resourceType":"Patient","id":"9df7a0b0-f434-4cf0-ba15-6c2094595bf3","meta":{"profile":["http://hl7.org/fhir/us/core/StructureDefinition/us-core-patient","http://hl7.org/fhir/us/qicore/StructureDefinition/qicore-patient"]},"extension":[{"url":"http://hl7.org/fhir/us/core/StructureDefinition/us-core-race","extension":[{"url":"ombCategory","valueCoding":{"system":"urn:oid:2.16.840.1.113883.6.238","code":"2028-9","display":"Asian"}},{"url":"text","valueString":"Asian"}]},{"url":"http://hl7.org/fhir/us/core/StructureDefinition/us-core-ethnicity","extension":[{"url":"ombCategory","valueCoding":{"system":"urn:oid:2.16.840.1.113883.6.238","code":"2135-2","display":"Hispanic or Latino"}},{"url":"text","valueString":"Hispanic or Latino"}]}],"identifier":[{"system":"http://hospital.smarthealthit.org","value":"999999995"}],"name":[{"family":"ScanOutsideMP","given":["IPPFail"]}],"gender":"male","birthDate":"1978-06-12"},"request":{"method":"PUT","url":"Patient/9df7a0b0-f434-4cf0-ba15-6c2094595bf3"}},{"fullUrl":"https://madie.cms.gov/Observation/9dbaa385-ad68-4b57-a9e7-9bbaf341f8ce","resource":{"resourceType":"Observation","id":"9dbaa385-ad68-4b57-a9e7-9bbaf341f8ce","meta":{"profile":["http://hl7.org/fhir/us/qicore/StructureDefinition/qicore-observation"]},"status":"final","category":[{"coding":[{"system":"http://terminology.hl7.org/CodeSystem/observation-category","code":"imaging","display":"Imaging"}]}],"code":{"coding":[{"system":"http://loinc.org","code":"96914-7","display":"CT dose and image quality category"}],"text":"CT dose and image quality category"},"subject":{"reference":"Patient/9df7a0b0-f434-4cf0-ba15-6c2094595bf3"},"effectiveDateTime":"2026-01-02T00:00:00.000Z","valueCodeableConcept":{"coding":[{"system":"http://loinc.org","code":"LA31753-9","display":"Abdomen and Pelvis Routine Dose"}]},"component":[{"code":{"coding":[{"system":"http://loinc.org","code":"96912-1","display":"Calculated CT global noise"}]},"valueQuantity":{"value":63,"unit":"[hnsf'U]","system":"http://unitsofmeasure.org","code":"[hnsf'U]"}},{"code":{"coding":[{"system":"http://loinc.org","code":"96913-9","display":"Calculated CT size-adjusted dose"}]},"valueQuantity":{"value":597,"unit":"mGy.cm","system":"http://unitsofmeasure.org","code":"mGy.cm"}}]},"request":{"method":"PUT","url":"Observation/9dbaa385-ad68-4b57-a9e7-9bbaf341f8ce"}},{"fullUrl":"https://madie.cms.gov/MeasureReport/0376a9fa-c58f-476c-9b10-f7790774f0cc","resource":{"resourceType":"MeasureReport","id":"0376a9fa-c58f-476c-9b10-f7790774f0cc","meta":{"profile":["http://hl7.org/fhir/us/cqfmeasures/StructureDefinition/test-case-cqfm"]},"contained":[{"resourceType":"Parameters","id":"7c66e400-e23f-41b2-989f-001853770341-parameters","parameter":[{"name":"subject","valueString":"9df7a0b0-f434-4cf0-ba15-6c2094595bf3"}]}],"extension":[{"url":"http://hl7.org/fhir/us/cqfmeasures/StructureDefinition/cqfm-inputParameters","valueReference":{"reference":"#7c66e400-e23f-41b2-989f-001853770341-parameters"}},{"url":"http://hl7.org/fhir/us/cqfmeasures/StructureDefinition/cqfm-testCaseDescription","valueMarkdown":"Patient has a valid CT Scan but it is conducted outside the Measurement Period"}],"modifierExtension":[{"url":"http://hl7.org/fhir/us/cqfmeasures/StructureDefinition/cqfm-isTestCase","valueBoolean":true}],"status":"complete","type":"individual","measure":"https://madie.cms.gov/Measure/AlaraCTClinicalFHIR","period":{"start":"2025-01-01","end":"2025-12-31"},"group":[{"population":[{"code":{"coding":[{"system":"http://terminology.hl7.org/CodeSystem/measure-population","code":"initial-population","display":"Initial Population"}]},"count":0},{"code":{"coding":[{"system":"http://terminology.hl7.org/CodeSystem/measure-population","code":"denominator","display":"Denominator"}]},"count":0},{"code":{"coding":[{"system":"http://terminology.hl7.org/CodeSystem/measure-population","code":"denominator-exclusion","display":"Denominator Exclusion"}]},"count":0},{"code":{"coding":[{"system":"http://terminology.hl7.org/CodeSystem/measure-population","code":"numerator","display":"Numerator"}]},"count":0}]}]},"request":{"method":"PUT","url":"MeasureReport/0376a9fa-c58f-476c-9b10-f7790774f0cc"}}]}