{"resourceType":"Bundle","id":"tests-15f7e535-9af3-4fdf-b3b3-8fa6b9d6ca76-bundle","type":"transaction","entry":[{"fullUrl":"https://madie.cms.gov/Patient/18ec3a01-602c-43a2-adc7-01f861e4ec72","resource":{"resourceType":"Patient","id":"18ec3a01-602c-43a2-adc7-01f861e4ec72","meta":{"profile":["http://hl7.org/fhir/us/core/StructureDefinition/us-core-patient","http://hl7.org/fhir/us/qicore/StructureDefinition/qicore-patient"]},"extension":[{"url":"http://hl7.org/fhir/us/core/StructureDefinition/us-core-race","extension":[{"url":"ombCategory","valueCoding":{"system":"urn:oid:2.16.840.1.113883.6.238","code":"2028-9","display":"Asian"}},{"url":"text","valueString":"Asian"},{"url":"detailed","valueCoding":{"system":"urn:oid:2.16.840.1.113883.6.238","code":"2036-2","display":"Filipino"}}]},{"url":"http://hl7.org/fhir/us/core/StructureDefinition/us-core-ethnicity","extension":[{"url":"ombCategory","valueCoding":{"system":"urn:oid:2.16.840.1.113883.6.238","code":"2135-2","display":"Hispanic or Latino"}},{"url":"text","valueString":"Hispanic or Latino"},{"url":"detailed","valueCoding":{"system":"urn:oid:2.16.840.1.113883.6.238","code":"2143-6","display":"Gallego"}}]}],"identifier":[{"system":"http://hospital.smarthealthit.org","value":"999999995"}],"name":[{"family":"Age18","given":["IPPPass"]}],"gender":"female","birthDate":"2005-12-31"},"request":{"method":"PUT","url":"Patient/18ec3a01-602c-43a2-adc7-01f861e4ec72"}},{"fullUrl":"https://madie.cms.gov/Observation/22073c14-df15-4636-911d-5d4b828e0852","resource":{"resourceType":"Observation","id":"22073c14-df15-4636-911d-5d4b828e0852","meta":{"profile":["http://hl7.org/fhir/us/qicore/StructureDefinition/qicore-observation"]},"status":"final","category":[{"coding":[{"system":"http://terminology.hl7.org/CodeSystem/observation-category","code":"imaging","display":"Imaging"}]}],"code":{"coding":[{"system":"http://loinc.org","code":"96914-7","display":"CT dose and image quality category"}],"text":"CT dose and image quality category"},"subject":{"reference":"Patient/18ec3a01-602c-43a2-adc7-01f861e4ec72"},"effectiveDateTime":"2025-01-02T00:00:00.000Z","valueCodeableConcept":{"coding":[{"system":"http://loinc.org","code":"LA31752-1","display":"Abdomen and Pelvis Low Dose"}]},"component":[{"code":{"coding":[{"system":"http://loinc.org","code":"96912-1","display":"Calculated CT global noise"}]},"valueQuantity":{"value":63,"unit":"[hnsf'U]","system":"http://unitsofmeasure.org","code":"[hnsf'U]"}},{"code":{"coding":[{"system":"http://loinc.org","code":"96913-9","display":"Calculated CT size-adjusted dose"}]},"valueQuantity":{"value":597,"unit":"mGy.cm","system":"http://unitsofmeasure.org","code":"mGy.cm"}}]},"request":{"method":"PUT","url":"Observation/22073c14-df15-4636-911d-5d4b828e0852"}},{"fullUrl":"https://madie.cms.gov/Coverage/03a91858-6bbd-4a57-bd19-d18132d9a178","resource":{"resourceType":"Coverage","id":"03a91858-6bbd-4a57-bd19-d18132d9a178","meta":{"profile":["http://hl7.org/fhir/us/qicore/StructureDefinition/qicore-coverage"]},"identifier":[{"system":"http://benefitsinc.com/certificate","value":"12345"}],"status":"active","type":{"coding":[{"system":"https://nahdo.org/sopt","code":"1","display":"MEDICARE"}]},"policyHolder":{"reference":"Patient/18ec3a01-602c-43a2-adc7-01f861e4ec72"},"subscriber":{"reference":"Patient/18ec3a01-602c-43a2-adc7-01f861e4ec72"},"beneficiary":{"reference":"Patient/18ec3a01-602c-43a2-adc7-01f861e4ec72"},"dependent":"0","relationship":{"coding":[{"system":"http://terminology.hl7.org/CodeSystem/subscriber-relationship","code":"self"}]},"period":{"start":"2021-05-23","end":"2026-05-23"},"payor":[{"reference":"Organization/4b5a882f-1f43-485c-85c6-f5ad2337d5b1"}],"order":9},"request":{"method":"PUT","url":"Coverage/03a91858-6bbd-4a57-bd19-d18132d9a178"}},{"fullUrl":"https://madie.cms.gov/MeasureReport/6957f130-20c1-4c7a-9bb7-90a38c7b5939","resource":{"resourceType":"MeasureReport","id":"6957f130-20c1-4c7a-9bb7-90a38c7b5939","meta":{"profile":["http://hl7.org/fhir/us/cqfmeasures/StructureDefinition/test-case-cqfm"]},"contained":[{"resourceType":"Parameters","id":"945fc6b8-08f7-4335-b00e-ca9ad79a8b54-parameters","parameter":[{"name":"subject","valueString":"18ec3a01-602c-43a2-adc7-01f861e4ec72"}]}],"extension":[{"url":"http://hl7.org/fhir/us/cqfmeasures/StructureDefinition/cqfm-inputParameters","valueReference":{"reference":"#945fc6b8-08f7-4335-b00e-ca9ad79a8b54-parameters"}},{"url":"http://hl7.org/fhir/us/cqfmeasures/StructureDefinition/cqfm-testCaseDescription","valueMarkdown":"Patient has a valid CT Scan and is exactly 18 years old at the start of the Measurement Period"}],"modifierExtension":[{"url":"http://hl7.org/fhir/us/cqfmeasures/StructureDefinition/cqfm-isTestCase","valueBoolean":true}],"status":"complete","type":"individual","measure":"https://madie.cms.gov/Measure/AlaraCTClinicalFHIR","period":{"start":"2025-01-01","end":"2025-12-31"},"group":[{"population":[{"code":{"coding":[{"system":"http://terminology.hl7.org/CodeSystem/measure-population","code":"initial-population","display":"Initial Population"}]},"count":1},{"code":{"coding":[{"system":"http://terminology.hl7.org/CodeSystem/measure-population","code":"denominator","display":"Denominator"}]},"count":1},{"code":{"coding":[{"system":"http://terminology.hl7.org/CodeSystem/measure-population","code":"denominator-exclusion","display":"Denominator Exclusion"}]},"count":0},{"code":{"coding":[{"system":"http://terminology.hl7.org/CodeSystem/measure-population","code":"numerator","display":"Numerator"}]},"count":0}]}]},"request":{"method":"PUT","url":"MeasureReport/6957f130-20c1-4c7a-9bb7-90a38c7b5939"}}]}