{
  "resourceType": "Bundle",
  "id": "NUMERFail-TwoDTapSameDay",
  "type": "transaction",
  "entry": [ {
    "fullUrl": "https://madie.cms.gov/Patient/6b9e1f1b-90db-42f2-8591-f1a1858ca27a",
    "resource": {
      "resourceType": "Patient",
      "id": "6b9e1f1b-90db-42f2-8591-f1a1858ca27a",
      "meta": {
        "profile": [ "http://hl7.org/fhir/us/qicore/StructureDefinition/qicore-patient" ]
      },
      "extension": [ {
        "url": "http://hl7.org/fhir/us/core/StructureDefinition/us-core-race",
        "extension": [ {
          "url": "ombCategory",
          "valueCoding": {
            "system": "urn:oid:2.16.840.1.113883.6.238",
            "code": "2028-9",
            "display": "Asian"
          }
        }, {
          "url": "text",
          "valueString": "Asian"
        } ]
      }, {
        "url": "http://hl7.org/fhir/us/core/StructureDefinition/us-core-ethnicity",
        "extension": [ {
          "url": "ombCategory",
          "valueCoding": {
            "system": "urn:oid:2.16.840.1.113883.6.238",
            "code": "2135-2",
            "display": "Hispanic or Latino"
          }
        }, {
          "url": "text",
          "valueString": "Hispanic or Latino"
        } ]
      } ],
      "identifier": [ {
        "system": "http://hospital.smarthealthit.org",
        "value": "999999995"
      } ],
      "name": [ {
        "family": "Bertha",
        "given": [ "Betty" ]
      } ],
      "gender": "female",
      "birthDate": "2023-01-01"
    },
    "request": {
      "method": "POST",
      "url": "Patient/6b9e1f1b-90db-42f2-8591-f1a1858ca27a"
    }
  }, {
    "fullUrl": "https://madie.cms.gov/Encounter/Encounter-1",
    "resource": {
      "resourceType": "Encounter",
      "id": "Encounter-1",
      "meta": {
        "profile": [ "http://hl7.org/fhir/us/qicore/StructureDefinition/qicore-encounter" ]
      },
      "status": "finished",
      "class": {
        "system": "http://terminology.hl7.org/CodeSystem/v3-ActCode",
        "code": "AMB",
        "display": "ambulatory"
      },
      "type": [ {
        "coding": [ {
          "system": "http://snomed.info/sct",
          "code": "185317003",
          "display": "Telephone encounter (procedure)"
        } ]
      } ],
      "subject": {
        "reference": "Patient/6b9e1f1b-90db-42f2-8591-f1a1858ca27a"
      },
      "period": {
        "start": "2025-01-01T01:00:00.000Z",
        "end": "2025-01-01T01:15:00.000Z"
      }
    },
    "request": {
      "method": "POST",
      "url": "Encounter/Encounter-1"
    }
  }, {
    "fullUrl": "https://madie.cms.gov/Immunization/Immunization-1a",
    "resource": {
      "resourceType": "Immunization",
      "id": "Immunization-1a",
      "meta": {
        "profile": [ "http://hl7.org/fhir/us/qicore/StructureDefinition/qicore-immunization" ]
      },
      "status": "completed",
      "vaccineCode": {
        "coding": [ {
          "system": "http://hl7.org/fhir/sid/cvx",
          "code": "20",
          "display": "diphtheria, tetanus toxoids and acellular pertussis vaccine"
        } ]
      },
      "patient": {
        "reference": "Patient/6b9e1f1b-90db-42f2-8591-f1a1858ca27a"
      },
      "occurrenceDateTime": "2024-01-02T00:00:00.000Z",
      "recorded": "2024-01-02T00:00:00.000Z",
      "primarySource": true
    },
    "request": {
      "method": "POST",
      "url": "Immunization/Immunization-1a"
    }
  }, {
    "fullUrl": "https://madie.cms.gov/Immunization/Immunization-1b",
    "resource": {
      "resourceType": "Immunization",
      "id": "Immunization-1b",
      "meta": {
        "profile": [ "http://hl7.org/fhir/us/qicore/StructureDefinition/qicore-immunization" ]
      },
      "status": "completed",
      "vaccineCode": {
        "coding": [ {
          "system": "http://hl7.org/fhir/sid/cvx",
          "code": "20",
          "display": "diphtheria, tetanus toxoids and acellular pertussis vaccine"
        } ]
      },
      "patient": {
        "reference": "Patient/6b9e1f1b-90db-42f2-8591-f1a1858ca27a"
      },
      "occurrenceDateTime": "2024-01-02T00:00:00.000Z",
      "recorded": "2024-01-02T00:00:00.000Z",
      "primarySource": true
    },
    "request": {
      "method": "POST",
      "url": "Immunization/Immunization-1b"
    }
  }, {
    "fullUrl": "https://madie.cms.gov/Immunization/Immunization-1c",
    "resource": {
      "resourceType": "Immunization",
      "id": "Immunization-1c",
      "meta": {
        "profile": [ "http://hl7.org/fhir/us/qicore/StructureDefinition/qicore-immunization" ]
      },
      "status": "completed",
      "vaccineCode": {
        "coding": [ {
          "system": "http://hl7.org/fhir/sid/cvx",
          "code": "20",
          "display": "diphtheria, tetanus toxoids and acellular pertussis vaccine"
        } ]
      },
      "patient": {
        "reference": "Patient/6b9e1f1b-90db-42f2-8591-f1a1858ca27a"
      },
      "occurrenceDateTime": "2024-01-07T00:00:00.000Z",
      "recorded": "2024-01-02T00:00:00.000Z",
      "primarySource": true
    },
    "request": {
      "method": "POST",
      "url": "Immunization/Immunization-1c"
    }
  }, {
    "fullUrl": "https://madie.cms.gov/Immunization/Immunization-1d",
    "resource": {
      "resourceType": "Immunization",
      "id": "Immunization-1d",
      "meta": {
        "profile": [ "http://hl7.org/fhir/us/qicore/StructureDefinition/qicore-immunization" ]
      },
      "status": "completed",
      "vaccineCode": {
        "coding": [ {
          "system": "http://hl7.org/fhir/sid/cvx",
          "code": "20",
          "display": "diphtheria, tetanus toxoids and acellular pertussis vaccine"
        } ]
      },
      "patient": {
        "reference": "Patient/6b9e1f1b-90db-42f2-8591-f1a1858ca27a"
      },
      "occurrenceDateTime": "2024-01-10T00:00:00.000Z",
      "recorded": "2024-01-02T00:00:00.000Z",
      "primarySource": true
    },
    "request": {
      "method": "POST",
      "url": "Immunization/Immunization-1d"
    }
  }, {
    "fullUrl": "https://madie.cms.gov/Immunization/Immunization-2a",
    "resource": {
      "resourceType": "Immunization",
      "id": "Immunization-2a",
      "meta": {
        "profile": [ "http://hl7.org/fhir/us/qicore/StructureDefinition/qicore-immunization" ]
      },
      "status": "completed",
      "vaccineCode": {
        "coding": [ {
          "system": "http://hl7.org/fhir/sid/cvx",
          "code": "89",
          "display": "poliovirus vaccine, unspecified formulation"
        } ]
      },
      "patient": {
        "reference": "Patient/6b9e1f1b-90db-42f2-8591-f1a1858ca27a"
      },
      "occurrenceDateTime": "2024-01-02T00:00:00.000Z",
      "recorded": "2024-01-02T00:00:00.000Z",
      "primarySource": true
    },
    "request": {
      "method": "POST",
      "url": "Immunization/Immunization-2a"
    }
  }, {
    "fullUrl": "https://madie.cms.gov/Immunization/Immunization-2b",
    "resource": {
      "resourceType": "Immunization",
      "id": "Immunization-2b",
      "meta": {
        "profile": [ "http://hl7.org/fhir/us/qicore/StructureDefinition/qicore-immunization" ]
      },
      "status": "completed",
      "vaccineCode": {
        "coding": [ {
          "system": "http://hl7.org/fhir/sid/cvx",
          "code": "89",
          "display": "poliovirus vaccine, unspecified formulation"
        } ]
      },
      "patient": {
        "reference": "Patient/6b9e1f1b-90db-42f2-8591-f1a1858ca27a"
      },
      "occurrenceDateTime": "2024-01-06T00:00:00.000Z",
      "recorded": "2024-01-02T00:00:00.000Z",
      "primarySource": true
    },
    "request": {
      "method": "POST",
      "url": "Immunization/Immunization-2b"
    }
  }, {
    "fullUrl": "https://madie.cms.gov/Immunization/Immunization-2c",
    "resource": {
      "resourceType": "Immunization",
      "id": "Immunization-2c",
      "meta": {
        "profile": [ "http://hl7.org/fhir/us/qicore/StructureDefinition/qicore-immunization" ]
      },
      "status": "completed",
      "vaccineCode": {
        "coding": [ {
          "system": "http://hl7.org/fhir/sid/cvx",
          "code": "89",
          "display": "poliovirus vaccine, unspecified formulation"
        } ]
      },
      "patient": {
        "reference": "Patient/6b9e1f1b-90db-42f2-8591-f1a1858ca27a"
      },
      "occurrenceDateTime": "2024-01-09T00:00:00.000Z",
      "recorded": "2024-01-02T00:00:00.000Z",
      "primarySource": true
    },
    "request": {
      "method": "POST",
      "url": "Immunization/Immunization-2c"
    }
  }, {
    "fullUrl": "https://madie.cms.gov/Immunization/Immunization-3",
    "resource": {
      "resourceType": "Immunization",
      "id": "Immunization-3",
      "meta": {
        "profile": [ "http://hl7.org/fhir/us/qicore/StructureDefinition/qicore-immunization" ]
      },
      "status": "completed",
      "vaccineCode": {
        "coding": [ {
          "system": "http://hl7.org/fhir/sid/cvx",
          "code": "94",
          "display": "measles, mumps, rubella, and varicella virus vaccine"
        } ]
      },
      "patient": {
        "reference": "Patient/6b9e1f1b-90db-42f2-8591-f1a1858ca27a"
      },
      "occurrenceDateTime": "2024-01-02T00:00:00.000Z",
      "recorded": "2024-01-02T00:00:00.000Z",
      "primarySource": true
    },
    "request": {
      "method": "POST",
      "url": "Immunization/Immunization-3"
    }
  }, {
    "fullUrl": "https://madie.cms.gov/Immunization/Immunization-4a",
    "resource": {
      "resourceType": "Immunization",
      "id": "Immunization-4a",
      "meta": {
        "profile": [ "http://hl7.org/fhir/us/qicore/StructureDefinition/qicore-immunization" ]
      },
      "status": "completed",
      "vaccineCode": {
        "coding": [ {
          "system": "http://hl7.org/fhir/sid/cvx",
          "code": "49",
          "display": "Haemophilus influenzae type b vaccine, PRP-OMP conjugate"
        } ]
      },
      "patient": {
        "reference": "Patient/6b9e1f1b-90db-42f2-8591-f1a1858ca27a"
      },
      "occurrenceDateTime": "2024-01-02T00:00:00.000Z",
      "recorded": "2024-01-02T00:00:00.000Z",
      "primarySource": true
    },
    "request": {
      "method": "POST",
      "url": "Immunization/Immunization-4a"
    }
  }, {
    "fullUrl": "https://madie.cms.gov/Immunization/Immunization-4b",
    "resource": {
      "resourceType": "Immunization",
      "id": "Immunization-4b",
      "meta": {
        "profile": [ "http://hl7.org/fhir/us/qicore/StructureDefinition/qicore-immunization" ]
      },
      "status": "completed",
      "vaccineCode": {
        "coding": [ {
          "system": "http://hl7.org/fhir/sid/cvx",
          "code": "49",
          "display": "Haemophilus influenzae type b vaccine, PRP-OMP conjugate"
        } ]
      },
      "patient": {
        "reference": "Patient/6b9e1f1b-90db-42f2-8591-f1a1858ca27a"
      },
      "occurrenceDateTime": "2024-01-02T00:00:00.000Z",
      "recorded": "2024-01-02T00:00:00.000Z",
      "primarySource": true
    },
    "request": {
      "method": "POST",
      "url": "Immunization/Immunization-4b"
    }
  }, {
    "fullUrl": "https://madie.cms.gov/Immunization/Immunization-4c",
    "resource": {
      "resourceType": "Immunization",
      "id": "Immunization-4c",
      "meta": {
        "profile": [ "http://hl7.org/fhir/us/qicore/StructureDefinition/qicore-immunization" ]
      },
      "status": "completed",
      "vaccineCode": {
        "coding": [ {
          "system": "http://hl7.org/fhir/sid/cvx",
          "code": "49",
          "display": "Haemophilus influenzae type b vaccine, PRP-OMP conjugate"
        } ]
      },
      "patient": {
        "reference": "Patient/6b9e1f1b-90db-42f2-8591-f1a1858ca27a"
      },
      "occurrenceDateTime": "2024-01-02T00:00:00.000Z",
      "recorded": "2024-01-02T00:00:00.000Z",
      "primarySource": true
    },
    "request": {
      "method": "POST",
      "url": "Immunization/Immunization-4c"
    }
  }, {
    "fullUrl": "https://madie.cms.gov/Immunization/Immunization-5a",
    "resource": {
      "resourceType": "Immunization",
      "id": "Immunization-5a",
      "meta": {
        "profile": [ "http://hl7.org/fhir/us/qicore/StructureDefinition/qicore-immunization" ]
      },
      "status": "completed",
      "vaccineCode": {
        "coding": [ {
          "system": "http://hl7.org/fhir/sid/cvx",
          "code": "51",
          "display": "Haemophilus influenzae type b conjugate and Hepatitis B vaccine"
        } ]
      },
      "patient": {
        "reference": "Patient/6b9e1f1b-90db-42f2-8591-f1a1858ca27a"
      },
      "occurrenceDateTime": "2024-01-02T00:00:00.000Z",
      "recorded": "2024-01-02T00:00:00.000Z",
      "primarySource": true
    },
    "request": {
      "method": "POST",
      "url": "Immunization/Immunization-5a"
    }
  }, {
    "fullUrl": "https://madie.cms.gov/Immunization/Immunization-5b",
    "resource": {
      "resourceType": "Immunization",
      "id": "Immunization-5b",
      "meta": {
        "profile": [ "http://hl7.org/fhir/us/qicore/StructureDefinition/qicore-immunization" ]
      },
      "status": "completed",
      "vaccineCode": {
        "coding": [ {
          "system": "http://hl7.org/fhir/sid/cvx",
          "code": "51",
          "display": "Haemophilus influenzae type b conjugate and Hepatitis B vaccine"
        } ]
      },
      "patient": {
        "reference": "Patient/6b9e1f1b-90db-42f2-8591-f1a1858ca27a"
      },
      "occurrenceDateTime": "2024-01-10T00:00:00.000Z",
      "recorded": "2024-01-02T00:00:00.000Z",
      "primarySource": true
    },
    "request": {
      "method": "POST",
      "url": "Immunization/Immunization-5b"
    }
  }, {
    "fullUrl": "https://madie.cms.gov/Immunization/Immunization-5c",
    "resource": {
      "resourceType": "Immunization",
      "id": "Immunization-5c",
      "meta": {
        "profile": [ "http://hl7.org/fhir/us/qicore/StructureDefinition/qicore-immunization" ]
      },
      "status": "completed",
      "vaccineCode": {
        "coding": [ {
          "system": "http://hl7.org/fhir/sid/cvx",
          "code": "51",
          "display": "Haemophilus influenzae type b conjugate and Hepatitis B vaccine"
        } ]
      },
      "patient": {
        "reference": "Patient/6b9e1f1b-90db-42f2-8591-f1a1858ca27a"
      },
      "occurrenceDateTime": "2024-01-12T00:00:00.000Z",
      "recorded": "2024-01-02T00:00:00.000Z",
      "primarySource": true
    },
    "request": {
      "method": "POST",
      "url": "Immunization/Immunization-5c"
    }
  }, {
    "fullUrl": "https://madie.cms.gov/Immunization/Immunization-6",
    "resource": {
      "resourceType": "Immunization",
      "id": "Immunization-6",
      "meta": {
        "profile": [ "http://hl7.org/fhir/us/qicore/StructureDefinition/qicore-immunization" ]
      },
      "status": "completed",
      "vaccineCode": {
        "coding": [ {
          "system": "http://hl7.org/fhir/sid/cvx",
          "code": "94",
          "display": "measles, mumps, rubella, and varicella virus vaccine"
        } ]
      },
      "patient": {
        "reference": "Patient/6b9e1f1b-90db-42f2-8591-f1a1858ca27a"
      },
      "occurrenceDateTime": "2024-01-02T00:00:00.000Z",
      "recorded": "2024-01-02T00:00:00.000Z",
      "primarySource": true
    },
    "request": {
      "method": "POST",
      "url": "Immunization/Immunization-6"
    }
  }, {
    "fullUrl": "https://madie.cms.gov/Immunization/Immunization-7a",
    "resource": {
      "resourceType": "Immunization",
      "id": "Immunization-7a",
      "meta": {
        "profile": [ "http://hl7.org/fhir/us/qicore/StructureDefinition/qicore-immunization" ]
      },
      "status": "completed",
      "vaccineCode": {
        "coding": [ {
          "system": "http://hl7.org/fhir/sid/cvx",
          "code": "215",
          "display": "Pneumococcal conjugate vaccine 15-valent (PCV15), polysaccharide CRM197 conjugate, adjuvant, preservative free"
        } ]
      },
      "patient": {
        "reference": "Patient/6b9e1f1b-90db-42f2-8591-f1a1858ca27a"
      },
      "occurrenceDateTime": "2024-01-12T00:00:00.000Z",
      "recorded": "2024-01-02T00:00:00.000Z",
      "primarySource": true
    },
    "request": {
      "method": "POST",
      "url": "Immunization/Immunization-7a"
    }
  }, {
    "fullUrl": "https://madie.cms.gov/Immunization/Immunization-7b",
    "resource": {
      "resourceType": "Immunization",
      "id": "Immunization-7b",
      "meta": {
        "profile": [ "http://hl7.org/fhir/us/qicore/StructureDefinition/qicore-immunization" ]
      },
      "status": "completed",
      "vaccineCode": {
        "coding": [ {
          "system": "http://hl7.org/fhir/sid/cvx",
          "code": "215",
          "display": "Pneumococcal conjugate vaccine 15-valent (PCV15), polysaccharide CRM197 conjugate, adjuvant, preservative free"
        } ]
      },
      "patient": {
        "reference": "Patient/6b9e1f1b-90db-42f2-8591-f1a1858ca27a"
      },
      "occurrenceDateTime": "2024-01-14T00:00:00.000Z",
      "recorded": "2024-01-02T00:00:00.000Z",
      "primarySource": true
    },
    "request": {
      "method": "POST",
      "url": "Immunization/Immunization-7b"
    }
  }, {
    "fullUrl": "https://madie.cms.gov/Immunization/Immunization-7c",
    "resource": {
      "resourceType": "Immunization",
      "id": "Immunization-7c",
      "meta": {
        "profile": [ "http://hl7.org/fhir/us/qicore/StructureDefinition/qicore-immunization" ]
      },
      "status": "completed",
      "vaccineCode": {
        "coding": [ {
          "system": "http://hl7.org/fhir/sid/cvx",
          "code": "215",
          "display": "Pneumococcal conjugate vaccine 15-valent (PCV15), polysaccharide CRM197 conjugate, adjuvant, preservative free"
        } ]
      },
      "patient": {
        "reference": "Patient/6b9e1f1b-90db-42f2-8591-f1a1858ca27a"
      },
      "occurrenceDateTime": "2024-01-20T00:00:00.000Z",
      "recorded": "2024-01-02T00:00:00.000Z",
      "primarySource": true
    },
    "request": {
      "method": "POST",
      "url": "Immunization/Immunization-7c"
    }
  }, {
    "fullUrl": "https://madie.cms.gov/Immunization/Immunization-7d",
    "resource": {
      "resourceType": "Immunization",
      "id": "Immunization-7d",
      "meta": {
        "profile": [ "http://hl7.org/fhir/us/qicore/StructureDefinition/qicore-immunization" ]
      },
      "status": "completed",
      "vaccineCode": {
        "coding": [ {
          "system": "http://hl7.org/fhir/sid/cvx",
          "code": "215",
          "display": "Pneumococcal conjugate vaccine 15-valent (PCV15), polysaccharide CRM197 conjugate, adjuvant, preservative free"
        } ]
      },
      "patient": {
        "reference": "Patient/6b9e1f1b-90db-42f2-8591-f1a1858ca27a"
      },
      "occurrenceDateTime": "2024-01-22T00:00:00.000Z",
      "recorded": "2024-01-02T00:00:00.000Z",
      "primarySource": true
    },
    "request": {
      "method": "POST",
      "url": "Immunization/Immunization-7d"
    }
  }, {
    "fullUrl": "https://madie.cms.gov/Immunization/Immunization-8",
    "resource": {
      "resourceType": "Immunization",
      "id": "Immunization-8",
      "meta": {
        "profile": [ "http://hl7.org/fhir/us/qicore/StructureDefinition/qicore-immunization" ]
      },
      "status": "completed",
      "vaccineCode": {
        "coding": [ {
          "system": "http://hl7.org/fhir/sid/cvx",
          "code": "85",
          "display": "hepatitis A vaccine, unspecified formulation"
        } ]
      },
      "patient": {
        "reference": "Patient/6b9e1f1b-90db-42f2-8591-f1a1858ca27a"
      },
      "occurrenceDateTime": "2024-01-02T00:00:00.000Z",
      "recorded": "2024-01-02T00:00:00.000Z",
      "primarySource": true
    },
    "request": {
      "method": "POST",
      "url": "Immunization/Immunization-8"
    }
  }, {
    "fullUrl": "https://madie.cms.gov/Immunization/Immunization-9a",
    "resource": {
      "resourceType": "Immunization",
      "id": "Immunization-9a",
      "meta": {
        "profile": [ "http://hl7.org/fhir/us/qicore/StructureDefinition/qicore-immunization" ]
      },
      "status": "completed",
      "vaccineCode": {
        "coding": [ {
          "system": "http://hl7.org/fhir/sid/cvx",
          "code": "119",
          "display": "rotavirus, live, monovalent vaccine"
        } ]
      },
      "patient": {
        "reference": "Patient/6b9e1f1b-90db-42f2-8591-f1a1858ca27a"
      },
      "occurrenceDateTime": "2024-01-02T00:00:00.000Z",
      "recorded": "2024-01-02T00:00:00.000Z",
      "primarySource": true
    },
    "request": {
      "method": "POST",
      "url": "Immunization/Immunization-9a"
    }
  }, {
    "fullUrl": "https://madie.cms.gov/Immunization/Immunization-9b",
    "resource": {
      "resourceType": "Immunization",
      "id": "Immunization-9b",
      "meta": {
        "profile": [ "http://hl7.org/fhir/us/qicore/StructureDefinition/qicore-immunization" ]
      },
      "status": "completed",
      "vaccineCode": {
        "coding": [ {
          "system": "http://hl7.org/fhir/sid/cvx",
          "code": "119",
          "display": "rotavirus, live, monovalent vaccine"
        } ]
      },
      "patient": {
        "reference": "Patient/6b9e1f1b-90db-42f2-8591-f1a1858ca27a"
      },
      "occurrenceDateTime": "2024-01-07T00:00:00.000Z",
      "recorded": "2024-01-02T00:00:00.000Z",
      "primarySource": true
    },
    "request": {
      "method": "POST",
      "url": "Immunization/Immunization-9b"
    }
  }, {
    "fullUrl": "https://madie.cms.gov/Immunization/Immunization-10a",
    "resource": {
      "resourceType": "Immunization",
      "id": "Immunization-10a",
      "meta": {
        "profile": [ "http://hl7.org/fhir/us/qicore/StructureDefinition/qicore-immunization" ]
      },
      "status": "completed",
      "vaccineCode": {
        "coding": [ {
          "system": "http://hl7.org/fhir/sid/cvx",
          "code": "153",
          "display": "\tInfluenza, injectable, Madin Darby Canine Kidney, preservative free"
        } ]
      },
      "patient": {
        "reference": "Patient/6b9e1f1b-90db-42f2-8591-f1a1858ca27a"
      },
      "occurrenceDateTime": "2024-01-02T00:00:00.000Z",
      "recorded": "2024-01-02T00:00:00.000Z",
      "primarySource": true
    },
    "request": {
      "method": "POST",
      "url": "Immunization/Immunization-10a"
    }
  }, {
    "fullUrl": "https://madie.cms.gov/Immunization/Immunization-10b",
    "resource": {
      "resourceType": "Immunization",
      "id": "Immunization-10b",
      "meta": {
        "profile": [ "http://hl7.org/fhir/us/qicore/StructureDefinition/qicore-immunization" ]
      },
      "status": "completed",
      "vaccineCode": {
        "coding": [ {
          "system": "http://hl7.org/fhir/sid/cvx",
          "code": "153",
          "display": "\tInfluenza, injectable, Madin Darby Canine Kidney, preservative free"
        } ]
      },
      "patient": {
        "reference": "Patient/6b9e1f1b-90db-42f2-8591-f1a1858ca27a"
      },
      "occurrenceDateTime": "2024-01-10T00:00:00.000Z",
      "recorded": "2024-01-02T00:00:00.000Z",
      "primarySource": true
    },
    "request": {
      "method": "POST",
      "url": "Immunization/Immunization-10b"
    }
  }, {
    "fullUrl": "https://madie.cms.gov/MeasureReport/0d3a71d5-68a0-4978-b411-5a823d6fbf62",
    "resource": {
      "resourceType": "MeasureReport",
      "id": "0d3a71d5-68a0-4978-b411-5a823d6fbf62",
      "meta": {
        "profile": [ "http://hl7.org/fhir/us/cqfmeasures/StructureDefinition/test-case-cqfm" ]
      },
      "contained": [ {
        "resourceType": "Parameters",
        "id": "7f8d6f3b-c751-4e31-ad8a-0ac8cabed10f-parameters",
        "parameter": [ {
          "name": "subject",
          "valueString": "6b9e1f1b-90db-42f2-8591-f1a1858ca27a"
        } ]
      } ],
      "extension": [ {
        "url": "http://hl7.org/fhir/us/cqfmeasures/StructureDefinition/cqfm-inputParameters",
        "valueReference": {
          "reference": "#7f8d6f3b-c751-4e31-ad8a-0ac8cabed10f-parameters"
        }
      }, {
        "url": "http://hl7.org/fhir/us/cqfmeasures/StructureDefinition/cqfm-testCaseDescription",
        "valueMarkdown": "Two DTap same day"
      } ],
      "modifierExtension": [ {
        "url": "http://hl7.org/fhir/us/cqfmeasures/StructureDefinition/cqfm-isTestCase",
        "valueBoolean": true
      } ],
      "status": "complete",
      "type": "individual",
      "measure": "https://madie.cms.gov/Measure/ChildhoodImmunizationStatusFHIR",
      "period": {
        "start": "2025-01-01",
        "end": "2025-12-31"
      },
      "group": [ {
        "population": [ {
          "code": {
            "coding": [ {
              "system": "http://terminology.hl7.org/CodeSystem/measure-population",
              "code": "initial-population",
              "display": "Initial Population"
            } ]
          },
          "count": 1
        }, {
          "code": {
            "coding": [ {
              "system": "http://terminology.hl7.org/CodeSystem/measure-population",
              "code": "denominator",
              "display": "Denominator"
            } ]
          },
          "count": 1
        }, {
          "code": {
            "coding": [ {
              "system": "http://terminology.hl7.org/CodeSystem/measure-population",
              "code": "denominator-exclusion",
              "display": "Denominator Exclusion"
            } ]
          },
          "count": 0
        }, {
          "code": {
            "coding": [ {
              "system": "http://terminology.hl7.org/CodeSystem/measure-population",
              "code": "numerator",
              "display": "Numerator"
            } ]
          },
          "count": 0
        } ]
      } ],
      "evaluatedResource": [ {
        "reference": "https://madie.cms.gov/Patient/6b9e1f1b-90db-42f2-8591-f1a1858ca27a"
      }, {
        "reference": "https://madie.cms.gov/Encounter/Encounter-1"
      }, {
        "reference": "https://madie.cms.gov/Immunization/Immunization-1a"
      }, {
        "reference": "https://madie.cms.gov/Immunization/Immunization-1b"
      }, {
        "reference": "https://madie.cms.gov/Immunization/Immunization-1c"
      }, {
        "reference": "https://madie.cms.gov/Immunization/Immunization-1d"
      }, {
        "reference": "https://madie.cms.gov/Immunization/Immunization-2a"
      }, {
        "reference": "https://madie.cms.gov/Immunization/Immunization-2b"
      }, {
        "reference": "https://madie.cms.gov/Immunization/Immunization-2c"
      }, {
        "reference": "https://madie.cms.gov/Immunization/Immunization-3"
      }, {
        "reference": "https://madie.cms.gov/Immunization/Immunization-4a"
      }, {
        "reference": "https://madie.cms.gov/Immunization/Immunization-4b"
      }, {
        "reference": "https://madie.cms.gov/Immunization/Immunization-4c"
      }, {
        "reference": "https://madie.cms.gov/Immunization/Immunization-5a"
      }, {
        "reference": "https://madie.cms.gov/Immunization/Immunization-5b"
      }, {
        "reference": "https://madie.cms.gov/Immunization/Immunization-5c"
      }, {
        "reference": "https://madie.cms.gov/Immunization/Immunization-6"
      }, {
        "reference": "https://madie.cms.gov/Immunization/Immunization-7a"
      }, {
        "reference": "https://madie.cms.gov/Immunization/Immunization-7b"
      }, {
        "reference": "https://madie.cms.gov/Immunization/Immunization-7c"
      }, {
        "reference": "https://madie.cms.gov/Immunization/Immunization-7d"
      }, {
        "reference": "https://madie.cms.gov/Immunization/Immunization-8"
      }, {
        "reference": "https://madie.cms.gov/Immunization/Immunization-9a"
      }, {
        "reference": "https://madie.cms.gov/Immunization/Immunization-9b"
      }, {
        "reference": "https://madie.cms.gov/Immunization/Immunization-10a"
      }, {
        "reference": "https://madie.cms.gov/Immunization/Immunization-10b"
      } ]
    },
    "request": {
      "method": "POST",
      "url": "MeasureReport/0d3a71d5-68a0-4978-b411-5a823d6fbf62"
    }
  } ]
}