{
  "resourceType": "Bundle",
  "id": "610965b998086b538055c158",
  "type": "transaction",
  "entry": [ {
    "fullUrl": "https://madie.cms.gov/Patient/3dee8540-b4d0-474a-9315-feb5859205d5",
    "resource": {
      "resourceType": "Patient",
      "id": "3dee8540-b4d0-474a-9315-feb5859205d5",
      "meta": {
        "profile": [ "http://hl7.org/fhir/us/qicore/StructureDefinition/qicore-patient" ]
      },
      "text": {
        "status": "generated",
        "div": "<div xmlns=\"http://www.w3.org/1999/xhtml\"><div class=\"hapiHeaderText\">LabTestBeforeBirth <b>NUMERFAIL </b></div><table class=\"hapiPropertyTable\"><tbody><tr><td>Identifier</td><td>8de0ab14b056fcd32f87b213d0f959e9c5ee73f04fd5302ce5e21711fa269223</td></tr><tr><td>Date of birth</td><td><span>31 July 1992</span></td></tr></tbody></table></div>"
      },
      "extension": [ {
        "url": "http://hl7.org/fhir/us/core/StructureDefinition/us-core-race",
        "extension": [ {
          "url": "ombCategory",
          "valueCoding": {
            "system": "urn:oid:2.16.840.1.113883.6.238",
            "code": "1002-5",
            "display": "American Indian or Alaska Native",
            "userSelected": true
          }
        }, {
          "url": "text",
          "valueString": "American Indian or Alaska Native"
        } ]
      }, {
        "url": "http://hl7.org/fhir/us/core/StructureDefinition/us-core-ethnicity",
        "extension": [ {
          "url": "ombCategory",
          "valueCoding": {
            "system": "urn:oid:2.16.840.1.113883.6.238",
            "code": "2135-2",
            "display": "Hispanic or Latino",
            "userSelected": true
          }
        }, {
          "url": "text",
          "valueString": "Hispanic or Latino"
        } ]
      } ],
      "identifier": [ {
        "type": {
          "coding": [ {
            "system": "http://terminology.hl7.org/CodeSystem/v2-0203",
            "code": "MR"
          } ]
        },
        "system": "https://bonnie-fhir.healthit.gov/",
        "value": "610965b998086b538055c158"
      } ],
      "active": true,
      "name": [ {
        "use": "usual",
        "family": "NUMERFail",
        "given": [ "LabTestBeforeBirth" ]
      } ],
      "gender": "male",
      "birthDate": "1993-07-31"
    },
    "request": {
      "method": "POST",
      "url": "Patient/3dee8540-b4d0-474a-9315-feb5859205d5"
    }
  }, {
    "fullUrl": "https://madie.cms.gov/Encounter/5c9e578cb8484602c2f92233",
    "resource": {
      "resourceType": "Encounter",
      "id": "5c9e578cb8484602c2f92233",
      "meta": {
        "profile": [ "http://hl7.org/fhir/us/qicore/StructureDefinition/qicore-encounter" ]
      },
      "status": "finished",
      "class": {
        "system": "http://terminology.hl7.org/CodeSystem/v3-ActCode",
        "code": "AMB",
        "display": "ambulatory",
        "userSelected": true
      },
      "type": [ {
        "coding": [ {
          "system": "http://www.ama-assn.org/go/cpt",
          "code": "99395"
        } ]
      } ],
      "subject": {
        "reference": "Patient/3dee8540-b4d0-474a-9315-feb5859205d5"
      },
      "period": {
        "start": "2025-10-24T08:00:00.000+00:00",
        "end": "2025-10-24T08:15:00.000+00:00"
      }
    },
    "request": {
      "method": "POST",
      "url": "Encounter/5c9e578cb8484602c2f92233"
    }
  }, {
    "fullUrl": "https://madie.cms.gov/Observation/5e5970979ec84a00005dc397",
    "resource": {
      "resourceType": "Observation",
      "id": "5e5970979ec84a00005dc397",
      "meta": {
        "profile": [ "http://hl7.org/fhir/us/qicore/StructureDefinition/qicore-observation" ]
      },
      "status": "corrected",
      "category": [ {
        "coding": [ {
          "system": "http://terminology.hl7.org/CodeSystem/observation-category",
          "code": "laboratory",
          "display": "Laboratory",
          "userSelected": true
        } ]
      } ],
      "code": {
        "coding": [ {
          "system": "http://loinc.org",
          "code": "75622-1"
        } ]
      },
      "subject": {
        "reference": "Patient/3dee8540-b4d0-474a-9315-feb5859205d5"
      },
      "effectiveDateTime": "1992-10-24T08:00:00.000+00:00",
      "valueBoolean": true
    },
    "request": {
      "method": "POST",
      "url": "Observation/5e5970979ec84a00005dc397"
    }
  }, {
    "fullUrl": "https://madie.cms.gov/MeasureReport/dd3a37d7-f9a2-43ed-b077-d1130fa4935f",
    "resource": {
      "resourceType": "MeasureReport",
      "id": "dd3a37d7-f9a2-43ed-b077-d1130fa4935f",
      "meta": {
        "profile": [ "http://hl7.org/fhir/us/cqfmeasures/StructureDefinition/test-case-cqfm" ]
      },
      "contained": [ {
        "resourceType": "Parameters",
        "id": "f8b510d2-8ec0-4df7-a53a-54007ef2625a-parameters",
        "parameter": [ {
          "name": "subject",
          "valueString": "3dee8540-b4d0-474a-9315-feb5859205d5"
        } ]
      } ],
      "extension": [ {
        "url": "http://hl7.org/fhir/us/cqfmeasures/StructureDefinition/cqfm-inputParameters",
        "valueReference": {
          "reference": "#f8b510d2-8ec0-4df7-a53a-54007ef2625a-parameters"
        }
      }, {
        "url": "http://hl7.org/fhir/us/cqfmeasures/StructureDefinition/cqfm-testCaseDescription",
        "valueMarkdown": "Patient 20 at start of MP, qual encounter during MP, lab test before birthdate."
      } ],
      "modifierExtension": [ {
        "url": "http://hl7.org/fhir/us/cqfmeasures/StructureDefinition/cqfm-isTestCase",
        "valueBoolean": true
      } ],
      "status": "complete",
      "type": "individual",
      "measure": "https://madie.cms.gov/Measure/HIVScreeningFHIR",
      "period": {
        "start": "2025-01-01",
        "end": "2025-12-31"
      },
      "group": [ {
        "population": [ {
          "code": {
            "coding": [ {
              "system": "http://terminology.hl7.org/CodeSystem/measure-population",
              "code": "initial-population",
              "display": "Initial Population"
            } ]
          },
          "count": 1
        }, {
          "code": {
            "coding": [ {
              "system": "http://terminology.hl7.org/CodeSystem/measure-population",
              "code": "denominator",
              "display": "Denominator"
            } ]
          },
          "count": 1
        }, {
          "code": {
            "coding": [ {
              "system": "http://terminology.hl7.org/CodeSystem/measure-population",
              "code": "denominator-exclusion",
              "display": "Denominator Exclusion"
            } ]
          },
          "count": 0
        }, {
          "code": {
            "coding": [ {
              "system": "http://terminology.hl7.org/CodeSystem/measure-population",
              "code": "numerator",
              "display": "Numerator"
            } ]
          },
          "count": 0
        } ]
      } ],
      "evaluatedResource": [ {
        "reference": "Patient/3dee8540-b4d0-474a-9315-feb5859205d5"
      }, {
        "reference": "Encounter/5c9e578cb8484602c2f92233"
      }, {
        "reference": "Observation/5e5970979ec84a00005dc397"
      } ]
    },
    "request": {
      "method": "POST",
      "url": "MeasureReport/dd3a37d7-f9a2-43ed-b077-d1130fa4935f"
    }
  } ]
}