{"resourceType":"Bundle","id":"tests-a40966e2-5640-409f-9596-65c03db31424-bundle","type":"transaction","entry":[{"fullUrl":"https://madie.cms.gov/Patient/a40966e2-5640-409f-9596-65c03db31424","resource":{"resourceType":"Patient","id":"a40966e2-5640-409f-9596-65c03db31424","meta":{"profile":["http://hl7.org/fhir/us/qicore/StructureDefinition/qicore-patient"]},"extension":[{"url":"http://hl7.org/fhir/us/core/StructureDefinition/us-core-race","extension":[{"url":"ombCategory","valueCoding":{"system":"urn:oid:2.16.840.1.113883.6.238","code":"2028-9","display":"Asian"}},{"url":"text","valueString":"Asian"}]},{"url":"http://hl7.org/fhir/us/core/StructureDefinition/us-core-ethnicity","extension":[{"url":"ombCategory","valueCoding":{"system":"urn:oid:2.16.840.1.113883.6.238","code":"2135-2","display":"Hispanic or Latino"}},{"url":"text","valueString":"Hispanic or Latino"}]}],"identifier":[{"type":{"coding":[{"system":"http://terminology.hl7.org/CodeSystem/v2-0203","code":"MR"}]},"system":"https://bonnie-fhir.healthit.gov/","value":"643510313413131"}],"name":[{"family":"DENEXCEPFail","given":["RenalFailDxGTLVSDEncEdge"]}],"gender":"female","birthDate":"1974-09-02"},"request":{"method":"PUT","url":"Patient/a40966e2-5640-409f-9596-65c03db31424"}},{"fullUrl":"https://madie.cms.gov/Encounter/541351354513","resource":{"resourceType":"Encounter","id":"27cf09a6-71f3-40e2-90b7-8b5a93bd32dc","meta":{"profile":["http://hl7.org/fhir/us/qicore/StructureDefinition/qicore-encounter"]},"status":"finished","class":{"system":"http://terminology.hl7.org/CodeSystem/v3-ActCode","code":"AMB","display":"ambulatory"},"type":[{"coding":[{"system":"http://snomed.info/sct","version":"http://snomed.info/sct/731000124108/version/20240301","code":"185463005","display":"Visit out of hours (procedure)"}]}],"subject":{"reference":"Patient/a40966e2-5640-409f-9596-65c03db31424"},"period":{"start":"2025-02-17T08:00:00.000+00:00","end":"2025-02-17T08:15:00.000+00:00"}},"request":{"method":"PUT","url":"Encounter/27cf09a6-71f3-40e2-90b7-8b5a93bd32dc"}},{"fullUrl":"https://madie.cms.gov/Encounter/98461535461312","resource":{"resourceType":"Encounter","id":"2818284f-3c7f-4f8d-8c22-ce00d00ecfed","meta":{"profile":["http://hl7.org/fhir/us/qicore/StructureDefinition/qicore-encounter"]},"status":"finished","class":{"system":"http://terminology.hl7.org/CodeSystem/v3-ActCode","code":"AMB","display":"ambulatory"},"type":[{"coding":[{"system":"http://snomed.info/sct","version":"http://snomed.info/sct/731000124108/version/20240301","code":"185316007","display":"Indirect encounter (procedure)"}]}],"subject":{"reference":"Patient/a40966e2-5640-409f-9596-65c03db31424"},"period":{"start":"2025-12-30T08:00:00.000+00:00","end":"2025-12-30T08:15:00.000+00:00"}},"request":{"method":"PUT","url":"Encounter/2818284f-3c7f-4f8d-8c22-ce00d00ecfed"}},{"fullUrl":"https://madie.cms.gov/Condition/8741654646353","resource":{"resourceType":"Condition","id":"89dd590e-dec3-4273-a2d3-b342c621d7d9","meta":{"profile":["http://hl7.org/fhir/us/qicore/StructureDefinition/qicore-condition"]},"clinicalStatus":{"coding":[{"system":"http://terminology.hl7.org/CodeSystem/condition-clinical","code":"active","display":"Active"}]},"verificationStatus":{"coding":[{"system":"http://terminology.hl7.org/CodeSystem/condition-ver-status","code":"confirmed","display":"Confirmed"}]},"category":[{"coding":[{"system":"http://terminology.hl7.org/CodeSystem/condition-category","code":"problem-list-item","display":"Problem List Item"}]}],"code":{"coding":[{"system":"http://snomed.info/sct","version":"http://snomed.info/sct/731000124108/version/20240301","code":"10091002","display":"High output heart failure (disorder)"}]},"subject":{"reference":"Patient/a40966e2-5640-409f-9596-65c03db31424"},"onsetPeriod":{"start":"2025-02-17T08:00:00.000+00:00"}},"request":{"method":"PUT","url":"Condition/89dd590e-dec3-4273-a2d3-b342c621d7d9"}},{"fullUrl":"https://madie.cms.gov/Observation/351684613135","resource":{"resourceType":"Observation","id":"dd808701-b04e-4454-8180-72a5e0928c90","meta":{"profile":["http://hl7.org/fhir/us/qicore/StructureDefinition/qicore-observation"]},"status":"final","category":[{"coding":[{"system":"http://terminology.hl7.org/CodeSystem/observation-category","code":"imaging","display":"Imaging"}],"text":"Imaging"}],"code":{"coding":[{"system":"http://loinc.org","version":"2.76","code":"10230-1","display":"Left ventricular Ejection fraction"}]},"subject":{"reference":"Patient/a40966e2-5640-409f-9596-65c03db31424"},"effectiveDateTime":"2025-02-17T08:00:00.000+00:00","valueQuantity":{"value":35,"unit":"%","system":"http://unitsofmeasure.org","code":"%"}},"request":{"method":"PUT","url":"Observation/dd808701-b04e-4454-8180-72a5e0928c90"}},{"fullUrl":"https://madie.cms.gov/Condition/571521321551548","resource":{"resourceType":"Condition","id":"da2a720e-54d2-4e37-84cc-733f435ab338","meta":{"profile":["http://hl7.org/fhir/us/qicore/StructureDefinition/qicore-condition"]},"clinicalStatus":{"coding":[{"system":"http://terminology.hl7.org/CodeSystem/condition-clinical","code":"active","display":"Active"}]},"verificationStatus":{"coding":[{"system":"http://terminology.hl7.org/CodeSystem/condition-ver-status","code":"confirmed","display":"confirmed"}]},"category":[{"coding":[{"system":"http://terminology.hl7.org/CodeSystem/condition-category","code":"problem-list-item","display":"Problem List Item"}]}],"code":{"coding":[{"system":"http://snomed.info/sct","version":"http://snomed.info/sct/731000124108/version/20240301","code":"422593004","display":"Acute renal failure caused by angiotensin-converting-enzyme inhibitor (disorder)"}]},"subject":{"reference":"Patient/a40966e2-5640-409f-9596-65c03db31424"},"onsetPeriod":{"start":"2025-02-18T08:16:00.000+00:00"}},"request":{"method":"PUT","url":"Condition/da2a720e-54d2-4e37-84cc-733f435ab338"}},{"fullUrl":"https://madie.cms.gov/MeasureReport/ced62fa3-a4d9-4a43-a4cc-ffcb68d743b3","resource":{"resourceType":"MeasureReport","id":"ced62fa3-a4d9-4a43-a4cc-ffcb68d743b3","meta":{"profile":["http://hl7.org/fhir/us/cqfmeasures/StructureDefinition/test-case-cqfm"]},"contained":[{"resourceType":"Parameters","id":"cda79e46-7e9c-414e-b424-b71215b8550c-parameters","parameter":[{"name":"subject","valueString":"a40966e2-5640-409f-9596-65c03db31424"}]}],"extension":[{"url":"http://hl7.org/fhir/us/cqfmeasures/StructureDefinition/cqfm-inputParameters","valueReference":{"reference":"#cda79e46-7e9c-414e-b424-b71215b8550c-parameters"}},{"url":"http://hl7.org/fhir/us/cqfmeasures/StructureDefinition/cqfm-testCaseDescription","valueMarkdown":"Patient has diagnosis of Renal Failure caused by ACEARB where onset is 1 day after LVSDHF Encounter"}],"modifierExtension":[{"url":"http://hl7.org/fhir/us/cqfmeasures/StructureDefinition/cqfm-isTestCase","valueBoolean":true}],"status":"complete","type":"individual","measure":"https://madie.cms.gov/Measure/HFACEIorARBorARNIforLVSDFHIR","period":{"start":"2025-01-01","end":"2025-12-31"},"group":[{"population":[{"code":{"coding":[{"system":"http://terminology.hl7.org/CodeSystem/measure-population","code":"initial-population","display":"Initial Population"}]},"count":1},{"code":{"coding":[{"system":"http://terminology.hl7.org/CodeSystem/measure-population","code":"denominator","display":"Denominator"}]},"count":1},{"code":{"coding":[{"system":"http://terminology.hl7.org/CodeSystem/measure-population","code":"denominator-exclusion","display":"Denominator Exclusion"}]},"count":0},{"code":{"coding":[{"system":"http://terminology.hl7.org/CodeSystem/measure-population","code":"numerator","display":"Numerator"}]},"count":0},{"code":{"coding":[{"system":"http://terminology.hl7.org/CodeSystem/measure-population","code":"denominator-exception","display":"Denominator Exception"}]},"count":0}]}]},"request":{"method":"PUT","url":"MeasureReport/ced62fa3-a4d9-4a43-a4cc-ffcb68d743b3"}}]}