{"resourceType":"Bundle","id":"tests-b2abcd36-fabd-4d6e-93c4-2dd430f4969e-bundle","type":"transaction","entry":[{"fullUrl":"https://madie.cms.gov/Patient/b2abcd36-fabd-4d6e-93c4-2dd430f4969e","resource":{"resourceType":"Patient","id":"b2abcd36-fabd-4d6e-93c4-2dd430f4969e","meta":{"profile":["http://hl7.org/fhir/us/qicore/StructureDefinition/qicore-patient"]},"extension":[{"url":"http://hl7.org/fhir/us/core/StructureDefinition/us-core-race","extension":[{"url":"ombCategory","valueCoding":{"system":"urn:oid:2.16.840.1.113883.6.238","code":"1002-5","display":"American Indian or Alaska Native"}},{"url":"text","valueString":"American Indian or Alaska Native"}]},{"url":"http://hl7.org/fhir/us/core/StructureDefinition/us-core-ethnicity","extension":[{"url":"ombCategory","valueCoding":{"system":"urn:oid:2.16.840.1.113883.6.238","code":"2186-5","display":"Not Hispanic or Latino"}},{"url":"text","valueString":"Not Hispanic or Latino"}]}],"identifier":[{"type":{"coding":[{"system":"http://terminology.hl7.org/CodeSystem/v2-0203","code":"MR"}]},"system":"https://bonnie-fhir.healthit.gov/","value":"431385494631"}],"name":[{"family":"DENOMPass","given":["ModtoSevLVSD"]}],"gender":"male","birthDate":"1968-06-14"},"request":{"method":"PUT","url":"Patient/b2abcd36-fabd-4d6e-93c4-2dd430f4969e"}},{"fullUrl":"https://madie.cms.gov/Encounter/465461351153","resource":{"resourceType":"Encounter","id":"0c860be1-36c9-4cbb-bdf9-7c338320fcaa","meta":{"profile":["http://hl7.org/fhir/us/qicore/StructureDefinition/qicore-encounter"]},"status":"finished","class":{"system":"http://terminology.hl7.org/CodeSystem/v3-ActCode","code":"AMB","display":"ambulatory"},"type":[{"coding":[{"system":"http://snomed.info/sct","version":"http://snomed.info/sct/731000124108/version/20240301","code":"185463005","display":"Visit out of hours (procedure)"}]}],"subject":{"reference":"Patient/b2abcd36-fabd-4d6e-93c4-2dd430f4969e"},"period":{"start":"2025-03-31T14:40:00.000+00:00","end":"2025-03-31T14:40:00.000+00:00"}},"request":{"method":"PUT","url":"Encounter/0c860be1-36c9-4cbb-bdf9-7c338320fcaa"}},{"fullUrl":"https://madie.cms.gov/Encounter/6843131354634","resource":{"resourceType":"Encounter","id":"16f90dd1-81b6-42a4-b45e-41222067625f","meta":{"profile":["http://hl7.org/fhir/us/qicore/StructureDefinition/qicore-encounter"]},"status":"finished","class":{"system":"http://terminology.hl7.org/CodeSystem/v3-ActCode","code":"AMB","display":"ambulatory"},"type":[{"coding":[{"system":"http://snomed.info/sct","version":"http://snomed.info/sct/731000124108/version/20240301","code":"185463005","display":"Visit out of hours (procedure)"}]}],"subject":{"reference":"Patient/b2abcd36-fabd-4d6e-93c4-2dd430f4969e"},"period":{"start":"2025-05-15T11:50:00.000+00:00","end":"2025-05-15T11:50:00.000+00:00"}},"request":{"method":"PUT","url":"Encounter/16f90dd1-81b6-42a4-b45e-41222067625f"}},{"fullUrl":"https://madie.cms.gov/Condition/6463153513513","resource":{"resourceType":"Condition","id":"7ea38234-bc91-49ab-b3b8-8adc366bc0e8","meta":{"profile":["http://hl7.org/fhir/us/qicore/StructureDefinition/qicore-condition"]},"clinicalStatus":{"coding":[{"system":"http://terminology.hl7.org/CodeSystem/condition-clinical","code":"active","display":"active"}]},"verificationStatus":{"coding":[{"system":"http://terminology.hl7.org/CodeSystem/condition-ver-status","code":"confirmed","display":"Confirmed"}]},"category":[{"coding":[{"system":"http://terminology.hl7.org/CodeSystem/condition-category","code":"problem-list-item","display":"Problem List Item"}]}],"code":{"coding":[{"system":"http://snomed.info/sct","version":"http://snomed.info/sct/731000124108/version/20240301","code":"10091002","display":"High output heart failure (disorder)"}]},"subject":{"reference":"Patient/b2abcd36-fabd-4d6e-93c4-2dd430f4969e"},"onsetPeriod":{"start":"2024-05-17T10:00:00.000+00:00"}},"request":{"method":"PUT","url":"Condition/7ea38234-bc91-49ab-b3b8-8adc366bc0e8"}},{"fullUrl":"https://madie.cms.gov/Condition/464913134313","resource":{"resourceType":"Condition","id":"cb73626c-7af0-4300-a218-981f2e307c06","meta":{"profile":["http://hl7.org/fhir/us/qicore/StructureDefinition/qicore-condition"]},"clinicalStatus":{"coding":[{"system":"http://terminology.hl7.org/CodeSystem/condition-clinical","code":"active","display":"Active"}]},"verificationStatus":{"coding":[{"system":"http://terminology.hl7.org/CodeSystem/condition-ver-status","code":"confirmed","display":"Confirmed"}]},"category":[{"coding":[{"system":"http://terminology.hl7.org/CodeSystem/condition-category","code":"problem-list-item","display":"Problem List Item"}]}],"code":{"coding":[{"system":"http://snomed.info/sct","version":"http://snomed.info/sct/731000124108/version/20240301","code":"991000124109","display":"Severe left ventricular systolic dysfunction (disorder)"}]},"subject":{"reference":"Patient/b2abcd36-fabd-4d6e-93c4-2dd430f4969e"},"onsetDateTime":"2025-05-14T11:50:00.000+00:00"},"request":{"method":"PUT","url":"Condition/cb73626c-7af0-4300-a218-981f2e307c06"}},{"fullUrl":"https://madie.cms.gov/MeasureReport/6eb50eed-c4e1-482b-8101-d92e8545d9e3","resource":{"resourceType":"MeasureReport","id":"6eb50eed-c4e1-482b-8101-d92e8545d9e3","meta":{"profile":["http://hl7.org/fhir/us/cqfmeasures/StructureDefinition/test-case-cqfm"]},"contained":[{"resourceType":"Parameters","id":"4dac5550-7dc4-45aa-aa24-d9758925ff18-parameters","parameter":[{"name":"subject","valueString":"b2abcd36-fabd-4d6e-93c4-2dd430f4969e"}]}],"extension":[{"url":"http://hl7.org/fhir/us/cqfmeasures/StructureDefinition/cqfm-inputParameters","valueReference":{"reference":"#4dac5550-7dc4-45aa-aa24-d9758925ff18-parameters"}},{"url":"http://hl7.org/fhir/us/cqfmeasures/StructureDefinition/cqfm-testCaseDescription","valueMarkdown":"Patient has two qualifying encounters, HF diagnosis and LVSD history, is not prescribed/taking ACE/ARB medication and does not have documentation of  reason for not being prescribed nor other conditions meeting exclusion and exception criteria."}],"modifierExtension":[{"url":"http://hl7.org/fhir/us/cqfmeasures/StructureDefinition/cqfm-isTestCase","valueBoolean":true}],"status":"complete","type":"individual","measure":"https://madie.cms.gov/Measure/HFACEIorARBorARNIforLVSDFHIR","period":{"start":"2025-01-01","end":"2025-12-31"},"group":[{"population":[{"code":{"coding":[{"system":"http://terminology.hl7.org/CodeSystem/measure-population","code":"initial-population","display":"Initial Population"}]},"count":1},{"code":{"coding":[{"system":"http://terminology.hl7.org/CodeSystem/measure-population","code":"denominator","display":"Denominator"}]},"count":1},{"code":{"coding":[{"system":"http://terminology.hl7.org/CodeSystem/measure-population","code":"denominator-exclusion","display":"Denominator Exclusion"}]},"count":0},{"code":{"coding":[{"system":"http://terminology.hl7.org/CodeSystem/measure-population","code":"numerator","display":"Numerator"}]},"count":0},{"code":{"coding":[{"system":"http://terminology.hl7.org/CodeSystem/measure-population","code":"denominator-exception","display":"Denominator Exception"}]},"count":0}]}]},"request":{"method":"PUT","url":"MeasureReport/6eb50eed-c4e1-482b-8101-d92e8545d9e3"}}]}