{"resourceType":"Bundle","id":"tests-cba5a449-1c45-4e11-ae0b-ba3974b410f7-bundle","type":"transaction","entry":[{"fullUrl":"https://madie.cms.gov/Patient/cba5a449-1c45-4e11-ae0b-ba3974b410f7","resource":{"resourceType":"Patient","id":"cba5a449-1c45-4e11-ae0b-ba3974b410f7","meta":{"profile":["http://hl7.org/fhir/us/qicore/StructureDefinition/qicore-patient"]},"extension":[{"url":"http://hl7.org/fhir/us/core/StructureDefinition/us-core-race","extension":[{"url":"ombCategory","valueCoding":{"system":"urn:oid:2.16.840.1.113883.6.238","code":"1002-5","display":"American Indian or Alaska Native"}},{"url":"text","valueString":"American Indian or Alaska Native"}]},{"url":"http://hl7.org/fhir/us/core/StructureDefinition/us-core-ethnicity","extension":[{"url":"ombCategory","valueCoding":{"system":"urn:oid:2.16.840.1.113883.6.238","code":"2135-2","display":"Hispanic or Latino"}},{"url":"text","valueString":"Hispanic or Latino"}]}],"identifier":[{"type":{"coding":[{"system":"http://terminology.hl7.org/CodeSystem/v2-0203","code":"MR"}]},"system":"https://bonnie-fhir.healthit.gov/","value":"9871563684351313"}],"name":[{"family":"NUMERFail","given":["ACEARBActAfterEnc"]}],"gender":"female","birthDate":"1932-01-21"},"request":{"method":"PUT","url":"Patient/cba5a449-1c45-4e11-ae0b-ba3974b410f7"}},{"fullUrl":"https://madie.cms.gov/Encounter/7464135131","resource":{"resourceType":"Encounter","id":"5d966157-750b-41ba-bc3f-c832b2dd5111","meta":{"profile":["http://hl7.org/fhir/us/qicore/StructureDefinition/qicore-encounter"]},"status":"finished","class":{"system":"http://terminology.hl7.org/CodeSystem/v3-ActCode","code":"AMB","display":"ambulatory"},"type":[{"coding":[{"system":"http://snomed.info/sct","version":"http://snomed.info/sct/731000124108/version/20240301","code":"185463005","display":"Visit out of hours (procedure)"}]}],"subject":{"reference":"Patient/cba5a449-1c45-4e11-ae0b-ba3974b410f7"},"period":{"start":"2025-06-08T08:00:00.000+00:00","end":"2025-06-08T08:15:00.000+00:00"}},"request":{"method":"PUT","url":"Encounter/5d966157-750b-41ba-bc3f-c832b2dd5111"}},{"fullUrl":"https://madie.cms.gov/Encounter/7874613513","resource":{"resourceType":"Encounter","id":"62dc613e-7ec2-4ffc-9acb-28873a50fad9","meta":{"profile":["http://hl7.org/fhir/us/qicore/StructureDefinition/qicore-encounter"]},"status":"finished","class":{"system":"http://terminology.hl7.org/CodeSystem/v3-ActCode","code":"AMB","display":"ambulatory"},"type":[{"coding":[{"system":"http://snomed.info/sct","version":"http://snomed.info/sct/731000124108/version/20240301","code":"185316007","display":"Indirect encounter (procedure)"}]}],"subject":{"reference":"Patient/cba5a449-1c45-4e11-ae0b-ba3974b410f7"},"period":{"start":"2025-07-17T08:00:00.000+00:00","end":"2025-07-17T08:15:00.000+00:00"}},"request":{"method":"PUT","url":"Encounter/62dc613e-7ec2-4ffc-9acb-28873a50fad9"}},{"fullUrl":"https://madie.cms.gov/Condition/79843513631","resource":{"resourceType":"Condition","id":"036c8654-d3c1-46eb-9b52-f93345711593","meta":{"profile":["http://hl7.org/fhir/us/qicore/StructureDefinition/qicore-condition"]},"clinicalStatus":{"coding":[{"system":"http://terminology.hl7.org/CodeSystem/condition-clinical","code":"active","display":"active"}]},"verificationStatus":{"coding":[{"system":"http://terminology.hl7.org/CodeSystem/condition-ver-status","code":"confirmed","display":"Confirmed"}]},"category":[{"coding":[{"system":"http://terminology.hl7.org/CodeSystem/condition-category","code":"problem-list-item","display":"Problem List Item"}]}],"code":{"coding":[{"system":"http://snomed.info/sct","version":"http://snomed.info/sct/731000124108/version/20240301","code":"10091002","display":"High output heart failure (disorder)"}]},"subject":{"reference":"Patient/cba5a449-1c45-4e11-ae0b-ba3974b410f7"},"onsetPeriod":{"start":"2025-06-08T08:00:00.000+00:00"}},"request":{"method":"PUT","url":"Condition/036c8654-d3c1-46eb-9b52-f93345711593"}},{"fullUrl":"https://madie.cms.gov/Condition/7843135413153","resource":{"resourceType":"Condition","id":"6ee99b82-8f8c-4db9-b18c-41238b811173","meta":{"profile":["http://hl7.org/fhir/us/qicore/StructureDefinition/qicore-condition"]},"clinicalStatus":{"coding":[{"system":"http://terminology.hl7.org/CodeSystem/condition-clinical","code":"active","display":"active"}]},"verificationStatus":{"coding":[{"system":"http://terminology.hl7.org/CodeSystem/condition-ver-status","code":"confirmed","display":"Confirmed"}]},"category":[{"coding":[{"system":"http://terminology.hl7.org/CodeSystem/condition-category","code":"problem-list-item","display":"Problem List Item"}]}],"code":{"coding":[{"system":"http://snomed.info/sct","version":"http://snomed.info/sct/731000124108/version/20240301","code":"981000124106","display":"Moderate left ventricular systolic dysfunction (disorder)"}]},"subject":{"reference":"Patient/cba5a449-1c45-4e11-ae0b-ba3974b410f7"},"onsetPeriod":{"start":"2025-05-22T08:00:00.000+00:00"}},"request":{"method":"PUT","url":"Condition/6ee99b82-8f8c-4db9-b18c-41238b811173"}},{"fullUrl":"https://madie.cms.gov/MedicationRequest/7651463436315","resource":{"resourceType":"MedicationRequest","id":"5af9e6b3-10d9-4b6c-996d-938dbd6f2101","meta":{"profile":["http://hl7.org/fhir/us/qicore/StructureDefinition/qicore-medicationrequest"]},"status":"completed","intent":"order","medicationReference":{"reference":"Medication/46131653513"},"subject":{"reference":"Patient/cba5a449-1c45-4e11-ae0b-ba3974b410f7"},"authoredOn":"2025-06-15T08:00:00.000+00:00","requester":{"reference":"Practitioner/6513513131"}},"request":{"method":"PUT","url":"MedicationRequest/5af9e6b3-10d9-4b6c-996d-938dbd6f2101"}},{"fullUrl":"https://madie.cms.gov/Practitioner/6513513131","resource":{"resourceType":"Practitioner","id":"9ab8d387-bac4-4f99-9789-d8bc26200d7b","meta":{"profile":["http://hl7.org/fhir/us/qicore/StructureDefinition/qicore-practitioner"]},"identifier":[{"use":"temp","system":"urn:oid:2.16.840.1.113883.4.336","value":"Practitioner-23"}],"active":true,"name":[{"family":"Careful","given":["Adam"],"prefix":["Dr"]}],"address":[{"use":"home","line":["534 Erewhon St"],"city":"PleasantVille","state":"UT","postalCode":"84414"}],"qualification":[{"identifier":[{"system":"http://goodhealthcare.org/UniversityIdentifier","value":"12345"}],"code":{"coding":[{"system":"http://terminology.hl7.org/CodeSystem/v2-0360|2.7","code":"BS","display":"Bachelor of Science"}],"text":"Bachelor of Science"},"period":{"start":"1995"},"issuer":{"display":"Good Healthcare"}}]},"request":{"method":"PUT","url":"Practitioner/9ab8d387-bac4-4f99-9789-d8bc26200d7b"}},{"fullUrl":"https://madie.cms.gov/Medication/46131653513","resource":{"resourceType":"Medication","id":"54495099-ac1b-4cc4-9202-8bf42c240070","meta":{"profile":["http://hl7.org/fhir/us/qicore/StructureDefinition/qicore-medication"]},"code":{"coding":[{"system":"http://www.nlm.nih.gov/research/umls/rxnorm","version":"04012024","code":"1000001","display":"amlodipine 5 MG / hydrochlorothiazide 25 MG / olmesartan medoxomil 40 MG Oral Tablet"}]}},"request":{"method":"PUT","url":"Medication/54495099-ac1b-4cc4-9202-8bf42c240070"}},{"fullUrl":"https://madie.cms.gov/MeasureReport/c007d73d-302c-4ac4-a622-4d083f93e89f","resource":{"resourceType":"MeasureReport","id":"c007d73d-302c-4ac4-a622-4d083f93e89f","meta":{"profile":["http://hl7.org/fhir/us/cqfmeasures/StructureDefinition/test-case-cqfm"]},"contained":[{"resourceType":"Parameters","id":"653df7bd-7fe4-4ada-98f5-e23c3854df61-parameters","parameter":[{"name":"subject","valueString":"cba5a449-1c45-4e11-ae0b-ba3974b410f7"}]}],"extension":[{"url":"http://hl7.org/fhir/us/cqfmeasures/StructureDefinition/cqfm-inputParameters","valueReference":{"reference":"#653df7bd-7fe4-4ada-98f5-e23c3854df61-parameters"}},{"url":"http://hl7.org/fhir/us/cqfmeasures/StructureDefinition/cqfm-testCaseDescription","valueMarkdown":"Test case fails numerator because the Medication Request for Ace/Arb falls after Heart Failure encounter period"}],"modifierExtension":[{"url":"http://hl7.org/fhir/us/cqfmeasures/StructureDefinition/cqfm-isTestCase","valueBoolean":true}],"status":"complete","type":"individual","measure":"https://madie.cms.gov/Measure/HFACEIorARBorARNIforLVSDFHIR","period":{"start":"2025-01-01","end":"2025-12-31"},"group":[{"population":[{"code":{"coding":[{"system":"http://terminology.hl7.org/CodeSystem/measure-population","code":"initial-population","display":"Initial Population"}]},"count":1},{"code":{"coding":[{"system":"http://terminology.hl7.org/CodeSystem/measure-population","code":"denominator","display":"Denominator"}]},"count":1},{"code":{"coding":[{"system":"http://terminology.hl7.org/CodeSystem/measure-population","code":"denominator-exclusion","display":"Denominator Exclusion"}]},"count":0},{"code":{"coding":[{"system":"http://terminology.hl7.org/CodeSystem/measure-population","code":"numerator","display":"Numerator"}]},"count":0},{"code":{"coding":[{"system":"http://terminology.hl7.org/CodeSystem/measure-population","code":"denominator-exception","display":"Denominator Exception"}]},"count":0}]}]},"request":{"method":"PUT","url":"MeasureReport/c007d73d-302c-4ac4-a622-4d083f93e89f"}}]}