{"resourceType":"Bundle","id":"tests-d297e68e-3f02-42a8-a59f-a5a4cecbd47d-bundle","type":"transaction","entry":[{"fullUrl":"https://madie.cms.gov/Patient/d297e68e-3f02-42a8-a59f-a5a4cecbd47d","resource":{"resourceType":"Patient","id":"d297e68e-3f02-42a8-a59f-a5a4cecbd47d","meta":{"profile":["http://hl7.org/fhir/us/qicore/StructureDefinition/qicore-patient"]},"extension":[{"url":"http://hl7.org/fhir/us/core/StructureDefinition/us-core-race","extension":[{"url":"ombCategory","valueCoding":{"system":"urn:oid:2.16.840.1.113883.6.238","code":"1002-5","display":"American Indian or Alaska Native"}},{"url":"text","valueString":"American Indian or Alaska Native"}]},{"url":"http://hl7.org/fhir/us/core/StructureDefinition/us-core-ethnicity","extension":[{"url":"ombCategory","valueCoding":{"system":"urn:oid:2.16.840.1.113883.6.238","code":"2135-2","display":"Hispanic or Latino"}},{"url":"text","valueString":"Hispanic or Latino"}]}],"identifier":[{"type":{"coding":[{"system":"http://terminology.hl7.org/CodeSystem/v2-0203","code":"MR"}]},"system":"https://bonnie-fhir.healthit.gov/","value":"45416354691351"}],"name":[{"family":"DENEXCEPPass","given":["PatientReason"]}],"gender":"male","birthDate":"1981-01-01"},"request":{"method":"PUT","url":"Patient/d297e68e-3f02-42a8-a59f-a5a4cecbd47d"}},{"fullUrl":"https://madie.cms.gov/Encounter/1641654164983","resource":{"resourceType":"Encounter","id":"de9774db-a1a8-45ff-8a34-0e0df4fd8ab8","meta":{"profile":["http://hl7.org/fhir/us/qicore/StructureDefinition/qicore-encounter"]},"status":"finished","class":{"system":"http://terminology.hl7.org/CodeSystem/v3-ActCode","code":"AMB","display":"ambulatory"},"type":[{"coding":[{"system":"http://snomed.info/sct","version":"http://snomed.info/sct/731000124108/version/20240301","code":"185463005","display":"Visit out of hours (procedure)"}]}],"subject":{"reference":"Patient/d297e68e-3f02-42a8-a59f-a5a4cecbd47d"},"period":{"start":"2025-02-03T08:00:00.000+00:00","end":"2025-02-03T08:15:00.000+00:00"}},"request":{"method":"PUT","url":"Encounter/de9774db-a1a8-45ff-8a34-0e0df4fd8ab8"}},{"fullUrl":"https://madie.cms.gov/Encounter/8576135164661","resource":{"resourceType":"Encounter","id":"e10b1c90-6a73-439e-80ab-c402daa03097","meta":{"profile":["http://hl7.org/fhir/us/qicore/StructureDefinition/qicore-encounter"]},"status":"finished","class":{"system":"http://terminology.hl7.org/CodeSystem/v3-ActCode","code":"AMB","display":"ambulatory"},"type":[{"coding":[{"system":"http://snomed.info/sct","version":"http://snomed.info/sct/731000124108/version/20240301","code":"185463005","display":"Visit out of hours (procedure)"}]}],"subject":{"reference":"Patient/d297e68e-3f02-42a8-a59f-a5a4cecbd47d"},"period":{"start":"2025-03-01T08:00:00.000+00:00","end":"2025-03-01T08:15:00.000+00:00"}},"request":{"method":"PUT","url":"Encounter/e10b1c90-6a73-439e-80ab-c402daa03097"}},{"fullUrl":"https://madie.cms.gov/Condition/48135151685131","resource":{"resourceType":"Condition","id":"e142f73f-50bc-40cb-b021-df71fa865f74","meta":{"profile":["http://hl7.org/fhir/us/qicore/StructureDefinition/qicore-condition"]},"clinicalStatus":{"coding":[{"system":"http://terminology.hl7.org/CodeSystem/condition-clinical","code":"active","display":"Active"}]},"verificationStatus":{"coding":[{"system":"http://terminology.hl7.org/CodeSystem/condition-ver-status","code":"confirmed","display":"Confirmed"}]},"category":[{"coding":[{"system":"http://terminology.hl7.org/CodeSystem/condition-category","code":"problem-list-item","display":"Problem List Item"}]}],"code":{"coding":[{"system":"http://snomed.info/sct","version":"http://snomed.info/sct/731000124108/version/20240301","code":"10091002","display":"High output heart failure (disorder)"}]},"subject":{"reference":"Patient/d297e68e-3f02-42a8-a59f-a5a4cecbd47d"},"onsetPeriod":{"start":"2025-02-03T08:00:00.000+00:00","end":"2025-02-03T08:15:00.000+00:00"}},"request":{"method":"PUT","url":"Condition/e142f73f-50bc-40cb-b021-df71fa865f74"}},{"fullUrl":"https://madie.cms.gov/Condition/1651651351653","resource":{"resourceType":"Condition","id":"60fd3462-b3ec-4fa7-b397-4ea24e6a8425","meta":{"profile":["http://hl7.org/fhir/us/qicore/StructureDefinition/qicore-condition"]},"clinicalStatus":{"coding":[{"system":"http://terminology.hl7.org/CodeSystem/condition-clinical","code":"active","display":"Active"}]},"verificationStatus":{"coding":[{"system":"http://terminology.hl7.org/CodeSystem/condition-ver-status","code":"confirmed","display":"Confirmed"}]},"category":[{"coding":[{"system":"http://terminology.hl7.org/CodeSystem/condition-category","code":"problem-list-item","display":"Problem List Item"}]}],"severity":{"coding":[{"system":"http://snomed.info/sct","version":"http://snomed.info/sct/731000124108/version/20240301","code":"24484000","display":"Severe (severity modifier) (qualifier value)"}]},"code":{"coding":[{"system":"http://snomed.info/sct","version":"http://snomed.info/sct/731000124108/version/20240301","code":"134401001","display":"Left ventricular systolic dysfunction (disorder)"}]},"subject":{"reference":"Patient/d297e68e-3f02-42a8-a59f-a5a4cecbd47d"},"onsetPeriod":{"start":"2025-02-03T08:00:00.000+00:00","end":"2025-02-03T08:15:00.000+00:00"}},"request":{"method":"PUT","url":"Condition/60fd3462-b3ec-4fa7-b397-4ea24e6a8425"}},{"fullUrl":"https://madie.cms.gov/MedicationRequest/854613565135131","resource":{"resourceType":"MedicationRequest","id":"0cdb2fbc-0454-4b0f-ad0e-249399881e14","meta":{"profile":["http://hl7.org/fhir/us/qicore/StructureDefinition/qicore-mednotrequested"]},"status":"completed","intent":"order","doNotPerform":true,"medicationCodeableConcept":{"coding":[{"system":"http://www.nlm.nih.gov/research/umls/rxnorm","version":"04012024","code":"1091652","display":"azilsartan medoxomil 80 MG Oral Tablet"}]},"subject":{"reference":"Patient/d297e68e-3f02-42a8-a59f-a5a4cecbd47d"},"authoredOn":"2025-02-03T08:00:00.000+00:00","requester":{"reference":"Practitioner/471351313131"},"reasonCode":[{"coding":[{"system":"http://snomed.info/sct","version":"http://snomed.info/sct/731000124108/version/20240301","code":"160932005","display":"Financial problem (finding)"}]}]},"request":{"method":"PUT","url":"MedicationRequest/0cdb2fbc-0454-4b0f-ad0e-249399881e14"}},{"fullUrl":"https://madie.cms.gov/Practitioner/471351313131","resource":{"resourceType":"Practitioner","id":"e6ae1f59-72f7-4120-9608-824ff5c039d2","meta":{"profile":["http://hl7.org/fhir/us/qicore/StructureDefinition/qicore-practitioner"]},"identifier":[{"use":"temp","system":"urn:oid:2.16.840.1.113883.4.336","value":"Practitioner-23"}],"active":true,"name":[{"family":"Careful","given":["Adam"],"prefix":["Dr"]}],"address":[{"use":"home","line":["534 Erewhon St"],"city":"PleasantVille","state":"UT","postalCode":"84414"}],"qualification":[{"identifier":[{"system":"http://example.org/UniversityIdentifier","value":"12345"}],"code":{"coding":[{"system":"http://terminology.hl7.org/CodeSystem/v2-0360|2.7","code":"BS","display":"Bachelor of Science"}],"text":"Bachelor of Science"},"period":{"start":"1995"},"issuer":{"display":"Example University"}}]},"request":{"method":"PUT","url":"Practitioner/e6ae1f59-72f7-4120-9608-824ff5c039d2"}},{"fullUrl":"https://madie.cms.gov/MeasureReport/320b390b-07d1-46cf-b9d3-c0d7cb791f2d","resource":{"resourceType":"MeasureReport","id":"320b390b-07d1-46cf-b9d3-c0d7cb791f2d","meta":{"profile":["http://hl7.org/fhir/us/cqfmeasures/StructureDefinition/test-case-cqfm"]},"contained":[{"resourceType":"Parameters","id":"bde180a0-66b6-4613-8a49-7fad8adb26fe-parameters","parameter":[{"name":"subject","valueString":"d297e68e-3f02-42a8-a59f-a5a4cecbd47d"}]}],"extension":[{"url":"http://hl7.org/fhir/us/cqfmeasures/StructureDefinition/cqfm-inputParameters","valueReference":{"reference":"#bde180a0-66b6-4613-8a49-7fad8adb26fe-parameters"}},{"url":"http://hl7.org/fhir/us/cqfmeasures/StructureDefinition/cqfm-testCaseDescription","valueMarkdown":"Patient GE 18years old with two ambulatory encounters, HF diagnosis and LVEF <= 40%  is not prescribed ACE/ARB medication for Patient Reason. Note: Denominator Exception deselected for now due to negation issue."}],"modifierExtension":[{"url":"http://hl7.org/fhir/us/cqfmeasures/StructureDefinition/cqfm-isTestCase","valueBoolean":true}],"status":"complete","type":"individual","measure":"https://madie.cms.gov/Measure/HFACEIorARBorARNIforLVSDFHIR","period":{"start":"2025-01-01","end":"2025-12-31"},"group":[{"population":[{"code":{"coding":[{"system":"http://terminology.hl7.org/CodeSystem/measure-population","code":"initial-population","display":"Initial Population"}]},"count":1},{"code":{"coding":[{"system":"http://terminology.hl7.org/CodeSystem/measure-population","code":"denominator","display":"Denominator"}]},"count":1},{"code":{"coding":[{"system":"http://terminology.hl7.org/CodeSystem/measure-population","code":"denominator-exclusion","display":"Denominator Exclusion"}]},"count":0},{"code":{"coding":[{"system":"http://terminology.hl7.org/CodeSystem/measure-population","code":"numerator","display":"Numerator"}]},"count":0},{"code":{"coding":[{"system":"http://terminology.hl7.org/CodeSystem/measure-population","code":"denominator-exception","display":"Denominator Exception"}]},"count":0}]}]},"request":{"method":"PUT","url":"MeasureReport/320b390b-07d1-46cf-b9d3-c0d7cb791f2d"}}]}