{"resourceType":"Bundle","id":"tests-64e76766-9760-4385-a977-cbe8136ce425-bundle","type":"transaction","entry":[{"fullUrl":"https://madie.cms.gov/Patient/64e76766-9760-4385-a977-cbe8136ce425","resource":{"resourceType":"Patient","id":"64e76766-9760-4385-a977-cbe8136ce425","meta":{"profile":["http://hl7.org/fhir/us/qicore/StructureDefinition/qicore-patient"]},"extension":[{"url":"http://hl7.org/fhir/us/core/StructureDefinition/us-core-race","extension":[{"url":"ombCategory","valueCoding":{"system":"urn:oid:2.16.840.1.113883.6.238","code":"1002-5","display":"American Indian or Alaska Native"}},{"url":"text","valueString":"American Indian or Alaska Native"}]},{"url":"http://hl7.org/fhir/us/core/StructureDefinition/us-core-ethnicity","extension":[{"url":"ombCategory","valueCoding":{"system":"urn:oid:2.16.840.1.113883.6.238","code":"2135-2","display":"Hispanic or Latino"}},{"url":"text","valueString":"Hispanic or Latino"}]}],"identifier":[{"type":{"coding":[{"system":"http://terminology.hl7.org/CodeSystem/v2-0203","code":"MR"}]},"system":"https://bonnie-fhir.healthit.gov/","value":"684613134613"}],"name":[{"family":"DENEXCEPPass","given":["PatientDeclinedAceArb"]}],"gender":"male","birthDate":"1981-01-01"},"request":{"method":"PUT","url":"Patient/64e76766-9760-4385-a977-cbe8136ce425"}},{"fullUrl":"https://madie.cms.gov/Encounter/1641654164983","resource":{"resourceType":"Encounter","id":"0e5a4ac2-0884-4050-99b9-a8e482ebab7f","meta":{"profile":["http://hl7.org/fhir/us/qicore/StructureDefinition/qicore-encounter"]},"status":"finished","class":{"system":"http://terminology.hl7.org/CodeSystem/v3-ActCode","code":"AMB","display":"ambulatory"},"type":[{"coding":[{"system":"http://snomed.info/sct","version":"http://snomed.info/sct/731000124108/version/20240301","code":"185463005","display":"Visit out of hours (procedure)"}]}],"subject":{"reference":"Patient/64e76766-9760-4385-a977-cbe8136ce425"},"period":{"start":"2025-02-03T08:00:00.000+00:00","end":"2025-02-03T08:15:00.000+00:00"}},"request":{"method":"PUT","url":"Encounter/0e5a4ac2-0884-4050-99b9-a8e482ebab7f"}},{"fullUrl":"https://madie.cms.gov/Encounter/8576135164661","resource":{"resourceType":"Encounter","id":"d485eefd-3588-417f-8a0d-13ef8db34732","meta":{"profile":["http://hl7.org/fhir/us/qicore/StructureDefinition/qicore-encounter"]},"status":"finished","class":{"system":"http://terminology.hl7.org/CodeSystem/v3-ActCode","code":"AMB","display":"ambulatory"},"type":[{"coding":[{"system":"http://snomed.info/sct","version":"http://snomed.info/sct/731000124108/version/20240301","code":"185463005","display":"Visit out of hours (procedure)"}]}],"subject":{"reference":"Patient/64e76766-9760-4385-a977-cbe8136ce425"},"period":{"start":"2025-03-01T08:00:00.000+00:00","end":"2025-03-01T08:15:00.000+00:00"}},"request":{"method":"PUT","url":"Encounter/d485eefd-3588-417f-8a0d-13ef8db34732"}},{"fullUrl":"https://madie.cms.gov/Condition/48135151685131","resource":{"resourceType":"Condition","id":"cf4a104e-623c-44ff-8908-8bc39afcd853","meta":{"profile":["http://hl7.org/fhir/us/qicore/StructureDefinition/qicore-condition"]},"clinicalStatus":{"coding":[{"system":"http://terminology.hl7.org/CodeSystem/condition-clinical","code":"active","display":"Active"}]},"verificationStatus":{"coding":[{"system":"http://terminology.hl7.org/CodeSystem/condition-ver-status","code":"confirmed","display":"Confirmed"}]},"category":[{"coding":[{"system":"http://terminology.hl7.org/CodeSystem/condition-category","code":"problem-list-item","display":"Problem List Item"}]}],"code":{"coding":[{"system":"http://snomed.info/sct","version":"http://snomed.info/sct/731000124108/version/20240301","code":"10091002","display":"High output heart failure (disorder)"}]},"subject":{"reference":"Patient/64e76766-9760-4385-a977-cbe8136ce425"},"onsetPeriod":{"start":"2025-02-03T08:00:00.000+00:00","end":"2025-02-03T08:15:00.000+00:00"}},"request":{"method":"PUT","url":"Condition/cf4a104e-623c-44ff-8908-8bc39afcd853"}},{"fullUrl":"https://madie.cms.gov/Condition/1651651351653","resource":{"resourceType":"Condition","id":"02b5106c-b224-4a6a-b7f9-9eb9efc0f423","meta":{"profile":["http://hl7.org/fhir/us/qicore/StructureDefinition/qicore-condition"]},"clinicalStatus":{"coding":[{"system":"http://terminology.hl7.org/CodeSystem/condition-clinical","code":"active","display":"Active"}]},"verificationStatus":{"coding":[{"system":"http://terminology.hl7.org/CodeSystem/condition-ver-status","code":"confirmed","display":"Confirmed"}]},"category":[{"coding":[{"system":"http://terminology.hl7.org/CodeSystem/condition-category","code":"problem-list-item","display":"Problem List Item"}]}],"severity":{"coding":[{"system":"http://snomed.info/sct","version":"http://snomed.info/sct/731000124108/version/20240301","code":"24484000","display":"Severe (severity modifier) (qualifier value)"}]},"code":{"coding":[{"system":"http://snomed.info/sct","version":"http://snomed.info/sct/731000124108/version/20240301","code":"134401001","display":"Left ventricular systolic dysfunction (disorder)"}]},"subject":{"reference":"Patient/64e76766-9760-4385-a977-cbe8136ce425"},"onsetPeriod":{"start":"2025-02-03T08:00:00.000+00:00","end":"2025-02-03T08:15:00.000+00:00"}},"request":{"method":"PUT","url":"Condition/02b5106c-b224-4a6a-b7f9-9eb9efc0f423"}},{"fullUrl":"https://madie.cms.gov/MedicationRequest/854613565135131","resource":{"resourceType":"MedicationRequest","id":"2477b492-f37d-458a-ba9a-0012145b950d","meta":{"profile":["http://hl7.org/fhir/us/qicore/StructureDefinition/qicore-mednotrequested"]},"status":"completed","intent":"order","doNotPerform":true,"medicationCodeableConcept":{"coding":[{"system":"http://www.nlm.nih.gov/research/umls/rxnorm","version":"04012024","code":"1091652","display":"azilsartan medoxomil 80 MG Oral Tablet"}]},"subject":{"reference":"Patient/64e76766-9760-4385-a977-cbe8136ce425"},"authoredOn":"2025-02-03T08:00:00.000+00:00","requester":{"reference":"Practitioner/78541321313"},"reasonCode":[{"coding":[{"system":"http://snomed.info/sct","version":"http://snomed.info/sct/731000124108/version/20230901","code":"134397009","display":"Angiotensin converting enzyme inhibitor declined (situation)"}]}]},"request":{"method":"PUT","url":"MedicationRequest/2477b492-f37d-458a-ba9a-0012145b950d"}},{"fullUrl":"https://madie.cms.gov/Practitioner/78541321313","resource":{"resourceType":"Practitioner","id":"17ba5a75-eac6-40c6-bbf6-a7db1754c9ef","meta":{"profile":["http://hl7.org/fhir/us/qicore/StructureDefinition/qicore-practitioner"]},"identifier":[{"use":"temp","system":"urn:oid:2.16.840.1.113883.4.336","value":"Practitioner-23"}],"active":true,"name":[{"family":"Careful","given":["Adam"],"prefix":["Dr"]}],"address":[{"use":"home","line":["534 Erewhon St"],"city":"PleasantVille","state":"UT","postalCode":"84414"}],"qualification":[{"identifier":[{"system":"http://example.org/UniversityIdentifier","value":"12345"}],"code":{"coding":[{"system":"http://terminology.hl7.org/CodeSystem/v2-0360|2.7","code":"BS","display":"Bachelor of Science"}],"text":"Bachelor of Science"},"period":{"start":"1995"},"issuer":{"display":"Example University"}}]},"request":{"method":"PUT","url":"Practitioner/17ba5a75-eac6-40c6-bbf6-a7db1754c9ef"}},{"fullUrl":"https://madie.cms.gov/MeasureReport/345dfa4c-cdae-4ae3-bf3a-ee141dcc268e","resource":{"resourceType":"MeasureReport","id":"345dfa4c-cdae-4ae3-bf3a-ee141dcc268e","meta":{"profile":["http://hl7.org/fhir/us/cqfmeasures/StructureDefinition/test-case-cqfm"]},"contained":[{"resourceType":"Parameters","id":"754b8009-c706-4fb9-a1a3-24cc5637d681-parameters","parameter":[{"name":"subject","valueString":"64e76766-9760-4385-a977-cbe8136ce425"}]}],"extension":[{"url":"http://hl7.org/fhir/us/cqfmeasures/StructureDefinition/cqfm-inputParameters","valueReference":{"reference":"#754b8009-c706-4fb9-a1a3-24cc5637d681-parameters"}},{"url":"http://hl7.org/fhir/us/cqfmeasures/StructureDefinition/cqfm-testCaseDescription","valueMarkdown":"Patient GE 18years old with two ambulatory encounters, HF diagnosis, and LVEF <= 40%. Patient declined ACE/ARB medication prescription. Note: Denominator Exception deselected due to negation issue."}],"modifierExtension":[{"url":"http://hl7.org/fhir/us/cqfmeasures/StructureDefinition/cqfm-isTestCase","valueBoolean":true}],"status":"complete","type":"individual","measure":"https://madie.cms.gov/Measure/HFACEIorARBorARNIforLVSDFHIR","period":{"start":"2025-01-01","end":"2025-12-31"},"group":[{"population":[{"code":{"coding":[{"system":"http://terminology.hl7.org/CodeSystem/measure-population","code":"initial-population","display":"Initial Population"}]},"count":1},{"code":{"coding":[{"system":"http://terminology.hl7.org/CodeSystem/measure-population","code":"denominator","display":"Denominator"}]},"count":1},{"code":{"coding":[{"system":"http://terminology.hl7.org/CodeSystem/measure-population","code":"denominator-exclusion","display":"Denominator Exclusion"}]},"count":0},{"code":{"coding":[{"system":"http://terminology.hl7.org/CodeSystem/measure-population","code":"numerator","display":"Numerator"}]},"count":0},{"code":{"coding":[{"system":"http://terminology.hl7.org/CodeSystem/measure-population","code":"denominator-exception","display":"Denominator Exception"}]},"count":0}]}]},"request":{"method":"PUT","url":"MeasureReport/345dfa4c-cdae-4ae3-bf3a-ee141dcc268e"}}]}