{"resourceType":"Bundle","id":"tests-c4aaf7e0-8ffd-44bf-a037-5e12e9706e3c-bundle","type":"transaction","entry":[{"fullUrl":"https://madie.cms.gov/Patient/c4aaf7e0-8ffd-44bf-a037-5e12e9706e3c","resource":{"resourceType":"Patient","id":"c4aaf7e0-8ffd-44bf-a037-5e12e9706e3c","meta":{"profile":["http://hl7.org/fhir/us/qicore/StructureDefinition/qicore-patient"]},"extension":[{"url":"http://hl7.org/fhir/us/core/StructureDefinition/us-core-race","extension":[{"url":"ombCategory","valueCoding":{"system":"urn:oid:2.16.840.1.113883.6.238","code":"1002-5","display":"American Indian or Alaska Native"}},{"url":"text","valueString":"American Indian or Alaska Native"}]},{"url":"http://hl7.org/fhir/us/core/StructureDefinition/us-core-ethnicity","extension":[{"url":"ombCategory","valueCoding":{"system":"urn:oid:2.16.840.1.113883.6.238","code":"2135-2","display":"Hispanic or Latino"}},{"url":"text","valueString":"Hispanic or Latino"}]}],"identifier":[{"type":{"coding":[{"system":"http://terminology.hl7.org/CodeSystem/v2-0203","code":"MR"}]},"system":"https://bonnie-fhir.healthit.gov/","value":"459646516330"}],"name":[{"family":"NUMERPass","given":["ActiveACEARBDuringEnc"]}],"gender":"male","birthDate":"1981-01-01"},"request":{"method":"PUT","url":"Patient/c4aaf7e0-8ffd-44bf-a037-5e12e9706e3c"}},{"fullUrl":"https://madie.cms.gov/Encounter/46435136846131","resource":{"resourceType":"Encounter","id":"72711ed3-a690-443e-b864-437945c56be2","meta":{"profile":["http://hl7.org/fhir/us/qicore/StructureDefinition/qicore-encounter"]},"status":"finished","class":{"system":"http://terminology.hl7.org/CodeSystem/v3-ActCode","code":"AMB","display":"ambulatory"},"type":[{"coding":[{"system":"http://snomed.info/sct","version":"http://snomed.info/sct/731000124108/version/20240301","code":"185463005","display":"Visit out of hours (procedure)"}]}],"subject":{"reference":"Patient/c4aaf7e0-8ffd-44bf-a037-5e12e9706e3c"},"period":{"start":"2025-02-03T08:00:00.000+00:00","end":"2025-02-03T08:15:00.000+00:00"}},"request":{"method":"PUT","url":"Encounter/72711ed3-a690-443e-b864-437945c56be2"}},{"fullUrl":"https://madie.cms.gov/Encounter/312165451351","resource":{"resourceType":"Encounter","id":"a6d33538-32d6-4560-a0ec-0b961bee4065","meta":{"profile":["http://hl7.org/fhir/us/qicore/StructureDefinition/qicore-encounter"]},"status":"finished","class":{"system":"http://terminology.hl7.org/CodeSystem/v3-ActCode","code":"AMB","display":"ambulatory"},"type":[{"coding":[{"system":"http://snomed.info/sct","version":"http://snomed.info/sct/731000124108/version/20240301","code":"209099002","display":"History and physical examination with management of domiciliary or rest home patient (procedure)"}]}],"subject":{"reference":"Patient/c4aaf7e0-8ffd-44bf-a037-5e12e9706e3c"},"period":{"start":"2025-03-01T08:00:00.000+00:00","end":"2025-03-01T08:15:00.000+00:00"}},"request":{"method":"PUT","url":"Encounter/a6d33538-32d6-4560-a0ec-0b961bee4065"}},{"fullUrl":"https://madie.cms.gov/Condition/8784351354131","resource":{"resourceType":"Condition","id":"320eb793-4102-43bf-8cb6-fcf968300f16","meta":{"profile":["http://hl7.org/fhir/us/qicore/StructureDefinition/qicore-condition"]},"clinicalStatus":{"coding":[{"system":"http://terminology.hl7.org/CodeSystem/condition-clinical","code":"active","display":"Active"}]},"verificationStatus":{"coding":[{"system":"http://terminology.hl7.org/CodeSystem/condition-ver-status","code":"confirmed","display":"Confirmed"}]},"category":[{"coding":[{"system":"http://terminology.hl7.org/CodeSystem/condition-category","code":"problem-list-item","display":"Problem List Item"}]}],"code":{"coding":[{"system":"http://snomed.info/sct","version":"http://snomed.info/sct/731000124108/version/20240301","code":"10091002","display":"High output heart failure (disorder)"}]},"subject":{"reference":"Patient/c4aaf7e0-8ffd-44bf-a037-5e12e9706e3c"},"onsetPeriod":{"start":"2025-02-03T08:00:00.000+00:00","end":"2025-02-03T08:15:00.000+00:00"}},"request":{"method":"PUT","url":"Condition/320eb793-4102-43bf-8cb6-fcf968300f16"}},{"fullUrl":"https://madie.cms.gov/Condition/68451351335415","resource":{"resourceType":"Condition","id":"3ae7b13d-4d88-49e5-823d-fe4ea30f3145","meta":{"profile":["http://hl7.org/fhir/us/qicore/StructureDefinition/qicore-condition"]},"clinicalStatus":{"coding":[{"system":"http://terminology.hl7.org/CodeSystem/condition-clinical","code":"active","display":"Active"}]},"verificationStatus":{"coding":[{"system":"http://terminology.hl7.org/CodeSystem/condition-ver-status","code":"confirmed","display":"Confirmed"}]},"category":[{"coding":[{"system":"http://terminology.hl7.org/CodeSystem/condition-category","code":"problem-list-item","display":"Problem List Item"}]}],"severity":{"coding":[{"system":"http://snomed.info/sct","version":"http://snomed.info/sct/731000124108/version/20240301","code":"24484000","display":"Severe (severity modifier) (qualifier value)"}]},"code":{"coding":[{"system":"http://snomed.info/sct","version":"http://snomed.info/sct/731000124108/version/20240301","code":"134401001","display":"Left ventricular systolic dysfunction (disorder)"}]},"subject":{"reference":"Patient/c4aaf7e0-8ffd-44bf-a037-5e12e9706e3c"},"onsetPeriod":{"start":"2025-02-03T08:00:00.000+00:00","end":"2025-02-03T08:15:00.000+00:00"}},"request":{"method":"PUT","url":"Condition/3ae7b13d-4d88-49e5-823d-fe4ea30f3145"}},{"fullUrl":"https://madie.cms.gov/MedicationRequest/8513103131521","resource":{"resourceType":"MedicationRequest","id":"d48a1dd1-f95d-4a1b-888a-dba3afeba069","meta":{"profile":["http://hl7.org/fhir/us/qicore/StructureDefinition/qicore-medicationrequest"]},"status":"active","intent":"order","medicationCodeableConcept":{"coding":[{"system":"http://www.nlm.nih.gov/research/umls/rxnorm","version":"04012024","code":"1091652","display":"azilsartan medoxomil 80 MG Oral Tablet"}]},"subject":{"reference":"Patient/c4aaf7e0-8ffd-44bf-a037-5e12e9706e3c"},"authoredOn":"2025-01-02T08:00:00.000+00:00","requester":{"reference":"Practitioner/5411131634565"},"dosageInstruction":[{"timing":{"repeat":{"boundsPeriod":{"start":"2025-01-02T08:00:00.000+00:00","end":"2025-01-30T08:00:00.000+00:00"}}}},{"timing":{"repeat":{"boundsPeriod":{"start":"2025-01-30T08:00:00.000+00:00","end":"2025-03-30T08:00:00.000+00:00"}}}},{"timing":{"repeat":{"boundsPeriod":{"start":"2025-04-01T08:15:00.000+00:00","end":"2025-04-30T08:15:00.000+00:00"}}}}]},"request":{"method":"PUT","url":"MedicationRequest/d48a1dd1-f95d-4a1b-888a-dba3afeba069"}},{"fullUrl":"https://madie.cms.gov/Practitioner/5411131634565","resource":{"resourceType":"Practitioner","id":"1394c995-8f43-4dcf-adf6-878d60a7a0b1","meta":{"profile":["http://hl7.org/fhir/us/qicore/StructureDefinition/qicore-practitioner"]},"identifier":[{"use":"temp","system":"urn:oid:2.16.840.1.113883.4.336","value":"Practitioner-23"}],"active":true,"name":[{"family":"Careful","given":["Adam"],"prefix":["Dr"]}],"address":[{"use":"home","line":["534 Erewhon St"],"city":"PleasantVille","state":"UT","postalCode":"84414"}],"qualification":[{"identifier":[{"system":"http://example.org/UniversityIdentifier","value":"12345"}],"code":{"coding":[{"system":"http://terminology.hl7.org/CodeSystem/v2-0360|2.7","code":"BS","display":"Bachelor of Science"}],"text":"Bachelor of Science"},"period":{"start":"1995"},"issuer":{"display":"Example University"}}]},"request":{"method":"PUT","url":"Practitioner/1394c995-8f43-4dcf-adf6-878d60a7a0b1"}},{"fullUrl":"https://madie.cms.gov/MeasureReport/d13d02d8-3372-4ca4-a2a5-05c83bebc43b","resource":{"resourceType":"MeasureReport","id":"d13d02d8-3372-4ca4-a2a5-05c83bebc43b","meta":{"profile":["http://hl7.org/fhir/us/cqfmeasures/StructureDefinition/test-case-cqfm"]},"contained":[{"resourceType":"Parameters","id":"16ef2703-de05-4569-a50d-760cd325c3d5-parameters","parameter":[{"name":"subject","valueString":"c4aaf7e0-8ffd-44bf-a037-5e12e9706e3c"}]}],"extension":[{"url":"http://hl7.org/fhir/us/cqfmeasures/StructureDefinition/cqfm-inputParameters","valueReference":{"reference":"#16ef2703-de05-4569-a50d-760cd325c3d5-parameters"}},{"url":"http://hl7.org/fhir/us/cqfmeasures/StructureDefinition/cqfm-testCaseDescription","valueMarkdown":"Patient with 2 ambulatory encounters, LVSD and HF dx and not meeting denominator exclusions or exceptions has active ACE/ARB medication"}],"modifierExtension":[{"url":"http://hl7.org/fhir/us/cqfmeasures/StructureDefinition/cqfm-isTestCase","valueBoolean":true}],"status":"complete","type":"individual","measure":"https://madie.cms.gov/Measure/HFACEIorARBorARNIforLVSDFHIR","period":{"start":"2025-01-01","end":"2025-12-31"},"group":[{"population":[{"code":{"coding":[{"system":"http://terminology.hl7.org/CodeSystem/measure-population","code":"initial-population","display":"Initial Population"}]},"count":1},{"code":{"coding":[{"system":"http://terminology.hl7.org/CodeSystem/measure-population","code":"denominator","display":"Denominator"}]},"count":1},{"code":{"coding":[{"system":"http://terminology.hl7.org/CodeSystem/measure-population","code":"denominator-exclusion","display":"Denominator Exclusion"}]},"count":0},{"code":{"coding":[{"system":"http://terminology.hl7.org/CodeSystem/measure-population","code":"numerator","display":"Numerator"}]},"count":1},{"code":{"coding":[{"system":"http://terminology.hl7.org/CodeSystem/measure-population","code":"denominator-exception","display":"Denominator Exception"}]},"count":0}]}]},"request":{"method":"PUT","url":"MeasureReport/d13d02d8-3372-4ca4-a2a5-05c83bebc43b"}}]}