{"resourceType":"Bundle","id":"tests-5b7e720f-e2fc-4779-9b1c-3f34a0241482-bundle","type":"transaction","entry":[{"fullUrl":"https://madie.cms.gov/Patient/5b7e720f-e2fc-4779-9b1c-3f34a0241482","resource":{"resourceType":"Patient","id":"5b7e720f-e2fc-4779-9b1c-3f34a0241482","meta":{"profile":["http://hl7.org/fhir/us/qicore/StructureDefinition/qicore-patient"]},"extension":[{"url":"http://hl7.org/fhir/us/core/StructureDefinition/us-core-race","extension":[{"url":"ombCategory","valueCoding":{"system":"urn:oid:2.16.840.1.113883.6.238","code":"1002-5","display":"American Indian or Alaska Native"}},{"url":"text","valueString":"American Indian or Alaska Native"}]},{"url":"http://hl7.org/fhir/us/core/StructureDefinition/us-core-ethnicity","extension":[{"url":"ombCategory","valueCoding":{"system":"urn:oid:2.16.840.1.113883.6.238","code":"2135-2","display":"Hispanic or Latino"}},{"url":"text","valueString":"Hispanic or Latino"}]}],"identifier":[{"type":{"coding":[{"system":"http://terminology.hl7.org/CodeSystem/v2-0203","code":"MR"}]},"system":"https://bonnie-fhir.healthit.gov/","value":"643510313413131"}],"name":[{"family":"DENEXCEPPass","given":["DxRenalFailure"]}],"gender":"female","birthDate":"1994-01-02"},"request":{"method":"PUT","url":"Patient/5b7e720f-e2fc-4779-9b1c-3f34a0241482"}},{"fullUrl":"https://madie.cms.gov/Encounter/45464613781","resource":{"resourceType":"Encounter","id":"b8f3fb35-c415-4e02-9fdd-9bb3d71dfdf1","meta":{"profile":["http://hl7.org/fhir/us/qicore/StructureDefinition/qicore-encounter"]},"status":"finished","class":{"system":"http://terminology.hl7.org/CodeSystem/v3-ActCode","code":"AMB","display":"ambulatory"},"type":[{"coding":[{"system":"http://snomed.info/sct","version":"http://snomed.info/sct/731000124108/version/20240301","code":"185463005","display":"Visit out of hours (procedure)"}]}],"subject":{"reference":"Patient/5b7e720f-e2fc-4779-9b1c-3f34a0241482"},"period":{"start":"2025-02-17T08:00:00.000+00:00","end":"2025-02-17T08:15:00.000+00:00"}},"request":{"method":"PUT","url":"Encounter/b8f3fb35-c415-4e02-9fdd-9bb3d71dfdf1"}},{"fullUrl":"https://madie.cms.gov/Encounter/7485135164615","resource":{"resourceType":"Encounter","id":"075f03ab-6e4e-4872-9b72-5163fefb2644","meta":{"profile":["http://hl7.org/fhir/us/qicore/StructureDefinition/qicore-encounter"]},"status":"finished","class":{"system":"http://terminology.hl7.org/CodeSystem/v3-ActCode","code":"AMB","display":"ambulatory"},"type":[{"coding":[{"system":"http://snomed.info/sct","version":"http://snomed.info/sct/731000124108/version/20240301","code":"185316007","display":"Indirect encounter (procedure)"}]}],"subject":{"reference":"Patient/5b7e720f-e2fc-4779-9b1c-3f34a0241482"},"period":{"start":"2025-12-30T08:00:00.000+00:00","end":"2025-12-30T08:15:00.000+00:00"}},"request":{"method":"PUT","url":"Encounter/075f03ab-6e4e-4872-9b72-5163fefb2644"}},{"fullUrl":"https://madie.cms.gov/Condition/781310351613","resource":{"resourceType":"Condition","id":"225976df-430f-45fe-8152-d704b398bb73","meta":{"profile":["http://hl7.org/fhir/us/qicore/StructureDefinition/qicore-condition"]},"clinicalStatus":{"coding":[{"system":"http://terminology.hl7.org/CodeSystem/condition-clinical","code":"active","display":"Active"}]},"verificationStatus":{"coding":[{"system":"http://terminology.hl7.org/CodeSystem/condition-ver-status","code":"confirmed","display":"Confirmed"}]},"category":[{"coding":[{"system":"http://terminology.hl7.org/CodeSystem/condition-category","code":"problem-list-item","display":"Problem List Item"}]}],"code":{"coding":[{"system":"http://snomed.info/sct","version":"http://snomed.info/sct/731000124108/version/20240301","code":"10091002","display":"High output heart failure (disorder)"}]},"subject":{"reference":"Patient/5b7e720f-e2fc-4779-9b1c-3f34a0241482"},"onsetPeriod":{"start":"2025-02-17T08:00:00.000+00:00"}},"request":{"method":"PUT","url":"Condition/225976df-430f-45fe-8152-d704b398bb73"}},{"fullUrl":"https://madie.cms.gov/Observation/78463135461","resource":{"resourceType":"Observation","id":"53046867-a316-49d5-9cb3-40564307d0a2","meta":{"profile":["http://hl7.org/fhir/us/qicore/StructureDefinition/qicore-observation"]},"status":"final","category":[{"coding":[{"system":"http://terminology.hl7.org/CodeSystem/observation-category","code":"imaging","display":"Imaging"}],"text":"Imaging"}],"code":{"coding":[{"system":"http://loinc.org","version":"2.76","code":"10230-1","display":"Left ventricular Ejection fraction"}]},"subject":{"reference":"Patient/5b7e720f-e2fc-4779-9b1c-3f34a0241482"},"effectiveDateTime":"2025-02-17T08:00:00.000+00:00","valueQuantity":{"value":35,"unit":"%","system":"http://unitsofmeasure.org","code":"%"}},"request":{"method":"PUT","url":"Observation/53046867-a316-49d5-9cb3-40564307d0a2"}},{"fullUrl":"https://madie.cms.gov/Condition/15879631354163","resource":{"resourceType":"Condition","id":"63e14c70-2e48-4ebb-9f1c-ec3d00e64ddd","meta":{"profile":["http://hl7.org/fhir/us/qicore/StructureDefinition/qicore-condition"]},"clinicalStatus":{"coding":[{"system":"http://terminology.hl7.org/CodeSystem/condition-clinical","code":"active","display":"Active"}]},"verificationStatus":{"coding":[{"system":"http://terminology.hl7.org/CodeSystem/condition-ver-status","code":"confirmed","display":"confirmed"}]},"category":[{"coding":[{"system":"http://terminology.hl7.org/CodeSystem/condition-category","code":"problem-list-item","display":"Problem List Item"}]}],"code":{"coding":[{"system":"http://snomed.info/sct","version":"http://snomed.info/sct/731000124108/version/20240301","code":"422593004","display":"Acute renal failure caused by angiotensin-converting-enzyme inhibitor (disorder)"}]},"subject":{"reference":"Patient/5b7e720f-e2fc-4779-9b1c-3f34a0241482"},"onsetPeriod":{"start":"2023-01-02T08:00:00.000+00:00"}},"request":{"method":"PUT","url":"Condition/63e14c70-2e48-4ebb-9f1c-ec3d00e64ddd"}},{"fullUrl":"https://madie.cms.gov/MeasureReport/853b0120-c3e9-41d3-96e3-bb9fb4be0760","resource":{"resourceType":"MeasureReport","id":"853b0120-c3e9-41d3-96e3-bb9fb4be0760","meta":{"profile":["http://hl7.org/fhir/us/cqfmeasures/StructureDefinition/test-case-cqfm"]},"contained":[{"resourceType":"Parameters","id":"3ccd5e8c-40f9-4a36-82c3-5a32d3681dfc-parameters","parameter":[{"name":"subject","valueString":"5b7e720f-e2fc-4779-9b1c-3f34a0241482"}]}],"extension":[{"url":"http://hl7.org/fhir/us/cqfmeasures/StructureDefinition/cqfm-inputParameters","valueReference":{"reference":"#3ccd5e8c-40f9-4a36-82c3-5a32d3681dfc-parameters"}},{"url":"http://hl7.org/fhir/us/cqfmeasures/StructureDefinition/cqfm-testCaseDescription","valueMarkdown":"Patient Falls under Denominator Exception due to diagnosis of Renal Failure"}],"modifierExtension":[{"url":"http://hl7.org/fhir/us/cqfmeasures/StructureDefinition/cqfm-isTestCase","valueBoolean":true}],"status":"complete","type":"individual","measure":"https://madie.cms.gov/Measure/HFACEIorARBorARNIforLVSDFHIR","period":{"start":"2025-01-01","end":"2025-12-31"},"group":[{"population":[{"code":{"coding":[{"system":"http://terminology.hl7.org/CodeSystem/measure-population","code":"initial-population","display":"Initial Population"}]},"count":1},{"code":{"coding":[{"system":"http://terminology.hl7.org/CodeSystem/measure-population","code":"denominator","display":"Denominator"}]},"count":1},{"code":{"coding":[{"system":"http://terminology.hl7.org/CodeSystem/measure-population","code":"denominator-exclusion","display":"Denominator Exclusion"}]},"count":0},{"code":{"coding":[{"system":"http://terminology.hl7.org/CodeSystem/measure-population","code":"numerator","display":"Numerator"}]},"count":0},{"code":{"coding":[{"system":"http://terminology.hl7.org/CodeSystem/measure-population","code":"denominator-exception","display":"Denominator Exception"}]},"count":1}]}]},"request":{"method":"PUT","url":"MeasureReport/853b0120-c3e9-41d3-96e3-bb9fb4be0760"}}]}