{"resourceType":"Bundle","id":"tests-ed36c619-3ef8-44ca-86fa-1993920d76ef-bundle","type":"transaction","entry":[{"fullUrl":"https://madie.cms.gov/Patient/ed36c619-3ef8-44ca-86fa-1993920d76ef","resource":{"resourceType":"Patient","id":"ed36c619-3ef8-44ca-86fa-1993920d76ef","meta":{"profile":["http://hl7.org/fhir/us/qicore/StructureDefinition/qicore-patient"]},"extension":[{"url":"http://hl7.org/fhir/us/core/StructureDefinition/us-core-race","extension":[{"url":"ombCategory","valueCoding":{"system":"urn:oid:2.16.840.1.113883.6.238","code":"1002-5","display":"American Indian or Alaska Native"}},{"url":"text","valueString":"American Indian or Alaska Native"}]},{"url":"http://hl7.org/fhir/us/core/StructureDefinition/us-core-ethnicity","extension":[{"url":"ombCategory","valueCoding":{"system":"urn:oid:2.16.840.1.113883.6.238","code":"2186-5","display":"Not Hispanic or Latino"}},{"url":"text","valueString":"Not Hispanic or Latino"}]}],"identifier":[{"type":{"coding":[{"system":"http://terminology.hl7.org/CodeSystem/v2-0203","code":"MR"}]},"system":"https://bonnie-fhir.healthit.gov/","value":"431385494631"}],"name":[{"family":"DENEXCEPPass","given":["AllergyToACEInhibMOA"]}],"gender":"male","birthDate":"1968-06-14"},"request":{"method":"PUT","url":"Patient/ed36c619-3ef8-44ca-86fa-1993920d76ef"}},{"fullUrl":"https://madie.cms.gov/Encounter/235464641313134","resource":{"resourceType":"Encounter","id":"01f46529-f156-416e-883d-0bc5ca78b747","meta":{"profile":["http://hl7.org/fhir/us/qicore/StructureDefinition/qicore-encounter"]},"status":"finished","class":{"system":"http://terminology.hl7.org/CodeSystem/v3-ActCode","code":"AMB","display":"ambulatory"},"type":[{"coding":[{"system":"http://snomed.info/sct","version":"http://snomed.info/sct/731000124108/version/20240301","code":"18170008","display":"Subsequent nursing facility visit (procedure)"}]}],"subject":{"reference":"Patient/ed36c619-3ef8-44ca-86fa-1993920d76ef"},"period":{"start":"2025-03-31T14:40:00.000+00:00","end":"2025-03-31T14:40:00.000+00:00"}},"request":{"method":"PUT","url":"Encounter/01f46529-f156-416e-883d-0bc5ca78b747"}},{"fullUrl":"https://madie.cms.gov/Encounter/5846214654131354","resource":{"resourceType":"Encounter","id":"44e3a54f-dc58-4451-bb7e-450ab64a5768","meta":{"profile":["http://hl7.org/fhir/us/qicore/StructureDefinition/qicore-encounter"]},"status":"finished","class":{"system":"http://terminology.hl7.org/CodeSystem/v3-ActCode","code":"AMB","display":"ambulatory"},"type":[{"coding":[{"system":"http://snomed.info/sct","version":"http://snomed.info/sct/731000124108/version/20240301","code":"185466002","display":"Home visit for urgent condition (procedure)"}]}],"subject":{"reference":"Patient/ed36c619-3ef8-44ca-86fa-1993920d76ef"},"period":{"start":"2025-05-15T11:50:00.000+00:00","end":"2025-05-15T11:50:00.000+00:00"}},"request":{"method":"PUT","url":"Encounter/44e3a54f-dc58-4451-bb7e-450ab64a5768"}},{"fullUrl":"https://madie.cms.gov/Condition/3251454612131312","resource":{"resourceType":"Condition","id":"b5c617ec-fd88-4d3f-beb4-2901c42ea7cb","meta":{"profile":["http://hl7.org/fhir/us/qicore/StructureDefinition/qicore-condition"]},"clinicalStatus":{"coding":[{"system":"http://terminology.hl7.org/CodeSystem/condition-clinical","code":"active","display":"active"}]},"verificationStatus":{"coding":[{"system":"http://terminology.hl7.org/CodeSystem/condition-ver-status","code":"confirmed","display":"Confirmed"}]},"category":[{"coding":[{"system":"http://terminology.hl7.org/CodeSystem/condition-category","code":"problem-list-item","display":"Problem List Item"}]}],"code":{"coding":[{"system":"http://snomed.info/sct","version":"http://snomed.info/sct/731000124108/version/20240301","code":"10091002","display":"High output heart failure (disorder)"}]},"subject":{"reference":"Patient/ed36c619-3ef8-44ca-86fa-1993920d76ef"},"onsetPeriod":{"start":"2024-05-17T10:00:00.000+00:00"}},"request":{"method":"PUT","url":"Condition/b5c617ec-fd88-4d3f-beb4-2901c42ea7cb"}},{"fullUrl":"https://madie.cms.gov/Condition/4164645134331124","resource":{"resourceType":"Condition","id":"35ad8a2e-3e3a-4180-96ab-715192ce7849","meta":{"profile":["http://hl7.org/fhir/us/qicore/StructureDefinition/qicore-condition"]},"clinicalStatus":{"coding":[{"system":"http://terminology.hl7.org/CodeSystem/condition-clinical","code":"active","display":"Active"}]},"verificationStatus":{"coding":[{"system":"http://terminology.hl7.org/CodeSystem/condition-ver-status","code":"confirmed","display":"Confirmed"}]},"category":[{"coding":[{"system":"http://terminology.hl7.org/CodeSystem/condition-category","code":"problem-list-item","display":"Problem List Item"}]}],"code":{"coding":[{"system":"http://snomed.info/sct","version":"http://snomed.info/sct/731000124108/version/20240301","code":"991000124109","display":"Severe left ventricular systolic dysfunction (disorder)"}]},"subject":{"reference":"Patient/ed36c619-3ef8-44ca-86fa-1993920d76ef"},"onsetPeriod":{"start":"2025-03-25T16:00:00.000+00:00","end":"2025-03-30T16:00:00.000+00:00"}},"request":{"method":"PUT","url":"Condition/35ad8a2e-3e3a-4180-96ab-715192ce7849"}},{"fullUrl":"https://madie.cms.gov/AllergyIntolerance/7876135133144131","resource":{"resourceType":"AllergyIntolerance","id":"2c40dc5d-bb6d-498c-99b1-2aa0f1fc430a","meta":{"profile":["http://hl7.org/fhir/us/qicore/StructureDefinition/qicore-allergyintolerance"]},"clinicalStatus":{"coding":[{"system":"http://terminology.hl7.org/CodeSystem/allergyintolerance-clinical","code":"active","display":"Active"}]},"verificationStatus":{"coding":[{"system":"http://terminology.hl7.org/CodeSystem/allergyintolerance-verification","code":"confirmed","display":"Confirmed"}]},"type":"allergy","category":["medication"],"criticality":"high","code":{"coding":[{"system":"http://snomed.info/sct","version":"http://snomed.info/sct/731000124108/version/20240301","code":"372733002","display":"Substance with angiotensin-converting enzyme inhibitor mechanism of action (substance)"}]},"patient":{"reference":"Patient/ed36c619-3ef8-44ca-86fa-1993920d76ef"},"onsetDateTime":"2004","recordedDate":"2024-09-25T16:00:00.000+00:00"},"request":{"method":"PUT","url":"AllergyIntolerance/2c40dc5d-bb6d-498c-99b1-2aa0f1fc430a"}},{"fullUrl":"https://madie.cms.gov/MeasureReport/431cb047-3488-4dc4-b943-d51e52a70084","resource":{"resourceType":"MeasureReport","id":"431cb047-3488-4dc4-b943-d51e52a70084","meta":{"profile":["http://hl7.org/fhir/us/cqfmeasures/StructureDefinition/test-case-cqfm"]},"contained":[{"resourceType":"Parameters","id":"94e860d4-ee78-457a-ac6f-f57c22e7d12f-parameters","parameter":[{"name":"subject","valueString":"ed36c619-3ef8-44ca-86fa-1993920d76ef"}]}],"extension":[{"url":"http://hl7.org/fhir/us/cqfmeasures/StructureDefinition/cqfm-inputParameters","valueReference":{"reference":"#94e860d4-ee78-457a-ac6f-f57c22e7d12f-parameters"}},{"url":"http://hl7.org/fhir/us/cqfmeasures/StructureDefinition/cqfm-testCaseDescription","valueMarkdown":"Patient has 2 ambulatory encounters, HF diagnosis and LVSD and meets denominator exception with confirmed ACE inhibitor allergy"}],"modifierExtension":[{"url":"http://hl7.org/fhir/us/cqfmeasures/StructureDefinition/cqfm-isTestCase","valueBoolean":true}],"status":"complete","type":"individual","measure":"https://madie.cms.gov/Measure/HFACEIorARBorARNIforLVSDFHIR","period":{"start":"2025-01-01","end":"2025-12-31"},"group":[{"population":[{"code":{"coding":[{"system":"http://terminology.hl7.org/CodeSystem/measure-population","code":"initial-population","display":"Initial Population"}]},"count":1},{"code":{"coding":[{"system":"http://terminology.hl7.org/CodeSystem/measure-population","code":"denominator","display":"Denominator"}]},"count":1},{"code":{"coding":[{"system":"http://terminology.hl7.org/CodeSystem/measure-population","code":"denominator-exclusion","display":"Denominator Exclusion"}]},"count":0},{"code":{"coding":[{"system":"http://terminology.hl7.org/CodeSystem/measure-population","code":"numerator","display":"Numerator"}]},"count":0},{"code":{"coding":[{"system":"http://terminology.hl7.org/CodeSystem/measure-population","code":"denominator-exception","display":"Denominator Exception"}]},"count":1}]}]},"request":{"method":"PUT","url":"MeasureReport/431cb047-3488-4dc4-b943-d51e52a70084"}}]}