{"resourceType":"Bundle","id":"tests-4cb09359-02c1-46e5-9480-3e6048c81f7b-bundle","type":"transaction","entry":[{"fullUrl":"https://madie.cms.gov/Patient/4cb09359-02c1-46e5-9480-3e6048c81f7b","resource":{"resourceType":"Patient","id":"4cb09359-02c1-46e5-9480-3e6048c81f7b","meta":{"profile":["http://hl7.org/fhir/us/qicore/StructureDefinition/qicore-patient"]},"extension":[{"url":"http://hl7.org/fhir/us/core/StructureDefinition/us-core-race","extension":[{"url":"ombCategory","valueCoding":{"system":"urn:oid:2.16.840.1.113883.6.238","code":"1002-5","display":"American Indian or Alaska Native"}},{"url":"text","valueString":"American Indian or Alaska Native"}]},{"url":"http://hl7.org/fhir/us/core/StructureDefinition/us-core-ethnicity","extension":[{"url":"ombCategory","valueCoding":{"system":"urn:oid:2.16.840.1.113883.6.238","code":"2135-2","display":"Hispanic or Latino"}},{"url":"text","valueString":"Hispanic or Latino"}]}],"identifier":[{"type":{"coding":[{"system":"http://terminology.hl7.org/CodeSystem/v2-0203","code":"MR"}]},"system":"https://bonnie-fhir.healthit.gov/","value":"3565161351315351"}],"name":[{"family":"DENEXCEPFail","given":["MedicalReasonAfter"]}],"gender":"male","birthDate":"1981-01-01"},"request":{"method":"PUT","url":"Patient/4cb09359-02c1-46e5-9480-3e6048c81f7b"}},{"fullUrl":"https://madie.cms.gov/Encounter/684684135131614","resource":{"resourceType":"Encounter","id":"3d1d90f5-a432-40b0-8e9b-98779b5fc236","meta":{"profile":["http://hl7.org/fhir/us/qicore/StructureDefinition/qicore-encounter"]},"status":"finished","class":{"system":"http://terminology.hl7.org/CodeSystem/v3-ActCode","code":"AMB","display":"ambulatory"},"type":[{"coding":[{"system":"http://snomed.info/sct","version":"http://snomed.info/sct/731000124108/version/20240301","code":"185463005","display":"Visit out of hours (procedure)"}]}],"subject":{"reference":"Patient/4cb09359-02c1-46e5-9480-3e6048c81f7b"},"period":{"start":"2025-02-03T08:00:00.000+00:00","end":"2025-02-03T08:15:00.000+00:00"}},"request":{"method":"PUT","url":"Encounter/3d1d90f5-a432-40b0-8e9b-98779b5fc236"}},{"fullUrl":"https://madie.cms.gov/Encounter/461351341316564","resource":{"resourceType":"Encounter","id":"093a1437-01f1-4c12-a9f0-2b2da0f47cbe","meta":{"profile":["http://hl7.org/fhir/us/qicore/StructureDefinition/qicore-encounter"]},"status":"finished","class":{"system":"http://terminology.hl7.org/CodeSystem/v3-ActCode","code":"AMB","display":"ambulatory"},"type":[{"coding":[{"system":"http://snomed.info/sct","version":"http://snomed.info/sct/731000124108/version/20240301","code":"185463005","display":"Visit out of hours (procedure)"}]}],"subject":{"reference":"Patient/4cb09359-02c1-46e5-9480-3e6048c81f7b"},"period":{"start":"2025-03-01T08:00:00.000+00:00","end":"2025-03-01T08:15:00.000+00:00"}},"request":{"method":"PUT","url":"Encounter/093a1437-01f1-4c12-a9f0-2b2da0f47cbe"}},{"fullUrl":"https://madie.cms.gov/Condition/9468464646135164","resource":{"resourceType":"Condition","id":"07994ed7-6514-4fd2-a1b1-92858ff560ab","meta":{"profile":["http://hl7.org/fhir/us/qicore/StructureDefinition/qicore-condition"]},"clinicalStatus":{"coding":[{"system":"http://terminology.hl7.org/CodeSystem/condition-clinical","code":"active","display":"Active"}]},"verificationStatus":{"coding":[{"system":"http://terminology.hl7.org/CodeSystem/condition-ver-status","code":"confirmed","display":"Confirmed"}]},"category":[{"coding":[{"system":"http://terminology.hl7.org/CodeSystem/condition-category","code":"problem-list-item","display":"Problem List Item"}]}],"code":{"coding":[{"system":"http://snomed.info/sct","version":"http://snomed.info/sct/731000124108/version/20240301","code":"10091002","display":"High output heart failure (disorder)"}]},"subject":{"reference":"Patient/4cb09359-02c1-46e5-9480-3e6048c81f7b"},"onsetPeriod":{"start":"2025-02-03T08:00:00.000+00:00","end":"2025-02-03T08:15:00.000+00:00"}},"request":{"method":"PUT","url":"Condition/07994ed7-6514-4fd2-a1b1-92858ff560ab"}},{"fullUrl":"https://madie.cms.gov/Condition/89468464649684646","resource":{"resourceType":"Condition","id":"73309b72-148c-467d-a2d0-9aca57545246","meta":{"profile":["http://hl7.org/fhir/us/qicore/StructureDefinition/qicore-condition"]},"clinicalStatus":{"coding":[{"system":"http://terminology.hl7.org/CodeSystem/condition-clinical","code":"active","display":"Active"}]},"verificationStatus":{"coding":[{"system":"http://terminology.hl7.org/CodeSystem/condition-ver-status","code":"confirmed","display":"Confirmed"}]},"category":[{"coding":[{"system":"http://terminology.hl7.org/CodeSystem/condition-category","code":"problem-list-item","display":"Problem List Item"}]}],"severity":{"coding":[{"system":"http://snomed.info/sct","version":"http://snomed.info/sct/731000124108/version/20240301","code":"24484000","display":"Severe (severity modifier) (qualifier value)"}]},"code":{"coding":[{"system":"http://snomed.info/sct","version":"http://snomed.info/sct/731000124108/version/20240301","code":"134401001","display":"Left ventricular systolic dysfunction (disorder)"}]},"subject":{"reference":"Patient/4cb09359-02c1-46e5-9480-3e6048c81f7b"},"onsetPeriod":{"start":"2025-02-03T08:00:00.000+00:00","end":"2025-02-03T08:15:00.000+00:00"}},"request":{"method":"PUT","url":"Condition/73309b72-148c-467d-a2d0-9aca57545246"}},{"fullUrl":"https://madie.cms.gov/MedicationRequest/684646464641631","resource":{"resourceType":"MedicationRequest","id":"ddfd1e46-98da-4f87-9853-0dbe31bf6160","meta":{"profile":["http://hl7.org/fhir/us/qicore/StructureDefinition/qicore-mednotrequested"]},"status":"completed","intent":"order","doNotPerform":true,"medicationCodeableConcept":{"coding":[{"system":"http://www.nlm.nih.gov/research/umls/rxnorm","version":"04012024","code":"1091652","display":"azilsartan medoxomil 80 MG Oral Tablet"}]},"subject":{"reference":"Patient/4cb09359-02c1-46e5-9480-3e6048c81f7b"},"authoredOn":"2025-03-03T08:00:00.000+00:00","requester":{"reference":"Practitioner/78541321313"},"reasonCode":[{"coding":[{"system":"http://snomed.info/sct","code":"183966005","display":"Drug treatment not indicated (situation)"}]}]},"request":{"method":"PUT","url":"MedicationRequest/ddfd1e46-98da-4f87-9853-0dbe31bf6160"}},{"fullUrl":"https://madie.cms.gov/Practitioner/78541321313","resource":{"resourceType":"Practitioner","id":"2186e528-e3bf-4e0c-95c9-990267cdc3a1","meta":{"profile":["http://hl7.org/fhir/us/qicore/StructureDefinition/qicore-practitioner"]},"identifier":[{"use":"temp","system":"urn:oid:2.16.840.1.113883.4.336","value":"Practitioner-23"}],"active":true,"name":[{"family":"Careful","given":["Adam"],"prefix":["Dr"]}],"address":[{"use":"home","line":["534 Erewhon St"],"city":"PleasantVille","state":"UT","postalCode":"84414"}],"qualification":[{"identifier":[{"system":"http://example.org/UniversityIdentifier","value":"12345"}],"code":{"coding":[{"system":"http://terminology.hl7.org/CodeSystem/v2-0360|2.7","code":"BS","display":"Bachelor of Science"}],"text":"Bachelor of Science"},"period":{"start":"1995"},"issuer":{"display":"Example University"}}]},"request":{"method":"PUT","url":"Practitioner/2186e528-e3bf-4e0c-95c9-990267cdc3a1"}},{"fullUrl":"https://madie.cms.gov/MeasureReport/0e7980c4-6901-4bf0-a38b-bdf4f78abe64","resource":{"resourceType":"MeasureReport","id":"0e7980c4-6901-4bf0-a38b-bdf4f78abe64","meta":{"profile":["http://hl7.org/fhir/us/cqfmeasures/StructureDefinition/test-case-cqfm"]},"contained":[{"resourceType":"Parameters","id":"23b488e9-8918-4132-ac3e-61ec6fc5b922-parameters","parameter":[{"name":"subject","valueString":"4cb09359-02c1-46e5-9480-3e6048c81f7b"}]}],"extension":[{"url":"http://hl7.org/fhir/us/cqfmeasures/StructureDefinition/cqfm-inputParameters","valueReference":{"reference":"#23b488e9-8918-4132-ac3e-61ec6fc5b922-parameters"}},{"url":"http://hl7.org/fhir/us/cqfmeasures/StructureDefinition/cqfm-testCaseDescription","valueMarkdown":"Patient with  HF encounters and LVSD not prescribed ACE/ARB with documented medical reason outside of required window."}],"modifierExtension":[{"url":"http://hl7.org/fhir/us/cqfmeasures/StructureDefinition/cqfm-isTestCase","valueBoolean":true}],"status":"complete","type":"individual","measure":"https://madie.cms.gov/Measure/HFACEIorARBorARNIforLVSDFHIR","period":{"start":"2025-01-01","end":"2025-12-31"},"group":[{"population":[{"code":{"coding":[{"system":"http://terminology.hl7.org/CodeSystem/measure-population","code":"initial-population","display":"Initial Population"}]},"count":1},{"code":{"coding":[{"system":"http://terminology.hl7.org/CodeSystem/measure-population","code":"denominator","display":"Denominator"}]},"count":1},{"code":{"coding":[{"system":"http://terminology.hl7.org/CodeSystem/measure-population","code":"denominator-exclusion","display":"Denominator Exclusion"}]},"count":0},{"code":{"coding":[{"system":"http://terminology.hl7.org/CodeSystem/measure-population","code":"numerator","display":"Numerator"}]},"count":0},{"code":{"coding":[{"system":"http://terminology.hl7.org/CodeSystem/measure-population","code":"denominator-exception","display":"Denominator Exception"}]},"count":0}]}]},"request":{"method":"PUT","url":"MeasureReport/0e7980c4-6901-4bf0-a38b-bdf4f78abe64"}}]}