{"resourceType":"Bundle","id":"tests-a995bd9f-dec6-44fd-9b1f-458509443b91-bundle","type":"transaction","entry":[{"fullUrl":"https://madie.cms.gov/Patient/a995bd9f-dec6-44fd-9b1f-458509443b91","resource":{"resourceType":"Patient","id":"a995bd9f-dec6-44fd-9b1f-458509443b91","meta":{"profile":["http://hl7.org/fhir/us/qicore/StructureDefinition/qicore-patient"]},"extension":[{"url":"http://hl7.org/fhir/us/core/StructureDefinition/us-core-race","extension":[{"url":"ombCategory","valueCoding":{"system":"urn:oid:2.16.840.1.113883.6.238","code":"1002-5","display":"American Indian or Alaska Native"}},{"url":"text","valueString":"American Indian or Alaska Native"}]},{"url":"http://hl7.org/fhir/us/core/StructureDefinition/us-core-ethnicity","extension":[{"url":"ombCategory","valueCoding":{"system":"urn:oid:2.16.840.1.113883.6.238","code":"2186-5","display":"Not Hispanic or Latino"}},{"url":"text","valueString":"Not Hispanic or Latino"}]}],"identifier":[{"type":{"coding":[{"system":"http://terminology.hl7.org/CodeSystem/v2-0203","code":"MR"}]},"system":"https://bonnie-fhir.healthit.gov/","value":"431385494631"}],"name":[{"family":"DENEXPass","given":["HrtTransplComplictnsInterval"]}],"gender":"male","birthDate":"1968-06-14"},"request":{"method":"PUT","url":"Patient/a995bd9f-dec6-44fd-9b1f-458509443b91"}},{"fullUrl":"https://madie.cms.gov/Encounter/1354681313178798","resource":{"resourceType":"Encounter","id":"f77585a9-5c35-454f-b704-f6e4af020a6a","meta":{"profile":["http://hl7.org/fhir/us/qicore/StructureDefinition/qicore-encounter"]},"status":"finished","class":{"system":"http://terminology.hl7.org/CodeSystem/v3-ActCode","code":"AMB","display":"ambulatory"},"type":[{"coding":[{"system":"http://snomed.info/sct","version":"http://snomed.info/sct/731000124108/version/20240301","code":"18170008","display":"Subsequent nursing facility visit (procedure)"}]}],"subject":{"reference":"Patient/a995bd9f-dec6-44fd-9b1f-458509443b91"},"period":{"start":"2025-03-31T14:40:00.000+00:00","end":"2025-03-31T14:40:00.000+00:00"}},"request":{"method":"PUT","url":"Encounter/f77585a9-5c35-454f-b704-f6e4af020a6a"}},{"fullUrl":"https://madie.cms.gov/Encounter/8791638516516","resource":{"resourceType":"Encounter","id":"e128c45e-95d9-4119-a932-fc586e3cf49f","meta":{"profile":["http://hl7.org/fhir/us/qicore/StructureDefinition/qicore-encounter"]},"status":"finished","class":{"system":"http://terminology.hl7.org/CodeSystem/v3-ActCode","code":"AMB","display":"ambulatory"},"type":[{"coding":[{"system":"http://snomed.info/sct","version":"http://snomed.info/sct/731000124108/version/20240301","code":"185466002","display":"Home visit for urgent condition (procedure)"}]}],"subject":{"reference":"Patient/a995bd9f-dec6-44fd-9b1f-458509443b91"},"period":{"start":"2025-05-15T11:50:00.000+00:00","end":"2025-05-15T11:50:00.000+00:00"}},"request":{"method":"PUT","url":"Encounter/e128c45e-95d9-4119-a932-fc586e3cf49f"}},{"fullUrl":"https://madie.cms.gov/Condition/87946164331351","resource":{"resourceType":"Condition","id":"43a6b468-a7d3-48e3-8ae2-2e9e16f4e783","meta":{"profile":["http://hl7.org/fhir/us/qicore/StructureDefinition/qicore-condition"]},"clinicalStatus":{"coding":[{"system":"http://terminology.hl7.org/CodeSystem/condition-clinical","code":"active","display":"active"}]},"verificationStatus":{"coding":[{"system":"http://terminology.hl7.org/CodeSystem/condition-ver-status","code":"confirmed","display":"Confirmed"}]},"category":[{"coding":[{"system":"http://terminology.hl7.org/CodeSystem/condition-category","code":"problem-list-item","display":"Problem List Item"}]}],"code":{"coding":[{"system":"http://snomed.info/sct","version":"http://snomed.info/sct/731000124108/version/20240301","code":"10091002","display":"High output heart failure (disorder)"}]},"subject":{"reference":"Patient/a995bd9f-dec6-44fd-9b1f-458509443b91"},"onsetPeriod":{"start":"2024-05-17T10:00:00.000+00:00"}},"request":{"method":"PUT","url":"Condition/43a6b468-a7d3-48e3-8ae2-2e9e16f4e783"}},{"fullUrl":"https://madie.cms.gov/Condition/6846816565151","resource":{"resourceType":"Condition","id":"1c14d90b-1e63-4bf3-a750-9ef60a19bdae","meta":{"profile":["http://hl7.org/fhir/us/qicore/StructureDefinition/qicore-condition"]},"clinicalStatus":{"coding":[{"system":"http://terminology.hl7.org/CodeSystem/condition-clinical","code":"active","display":"Active"}]},"verificationStatus":{"coding":[{"system":"http://terminology.hl7.org/CodeSystem/condition-ver-status","code":"confirmed","display":"Confirmed"}]},"category":[{"coding":[{"system":"http://terminology.hl7.org/CodeSystem/condition-category","code":"problem-list-item","display":"Problem List Item"}]}],"code":{"coding":[{"system":"http://snomed.info/sct","version":"http://snomed.info/sct/731000124108/version/20240301","code":"991000124109","display":"Severe left ventricular systolic dysfunction (disorder)"}]},"subject":{"reference":"Patient/a995bd9f-dec6-44fd-9b1f-458509443b91"},"onsetPeriod":{"start":"2025-03-25T16:00:00.000+00:00","end":"2025-03-30T16:00:00.000+00:00"}},"request":{"method":"PUT","url":"Condition/1c14d90b-1e63-4bf3-a750-9ef60a19bdae"}},{"fullUrl":"https://madie.cms.gov/Condition/12163513511531","resource":{"resourceType":"Condition","id":"7cba7dc7-d4ad-4a2c-a83c-d68d6855b7f4","meta":{"profile":["http://hl7.org/fhir/us/qicore/StructureDefinition/qicore-condition"]},"clinicalStatus":{"coding":[{"system":"http://terminology.hl7.org/CodeSystem/condition-clinical","code":"active","display":"Active"}]},"verificationStatus":{"coding":[{"system":"http://terminology.hl7.org/CodeSystem/condition-ver-status","code":"confirmed","display":"Confirmed"}]},"category":[{"coding":[{"system":"http://terminology.hl7.org/CodeSystem/condition-category","code":"problem-list-item","display":"Problem List Item"}]}],"code":{"coding":[{"system":"http://snomed.info/sct","version":"http://snomed.info/sct/731000124108/version/20240301","code":"429257001","display":"Disorder of transplanted heart (disorder)"}]},"subject":{"reference":"Patient/a995bd9f-dec6-44fd-9b1f-458509443b91"},"onsetDateTime":"2024-09-25T16:00:00.000+00:00"},"request":{"method":"PUT","url":"Condition/7cba7dc7-d4ad-4a2c-a83c-d68d6855b7f4"}},{"fullUrl":"https://madie.cms.gov/MeasureReport/f0fb4d39-e5a2-4680-a76b-fe9f5f8020c9","resource":{"resourceType":"MeasureReport","id":"f0fb4d39-e5a2-4680-a76b-fe9f5f8020c9","meta":{"profile":["http://hl7.org/fhir/us/cqfmeasures/StructureDefinition/test-case-cqfm"]},"contained":[{"resourceType":"Parameters","id":"cb237e2f-0fa9-4cf3-a1d3-fbe688337e7e-parameters","parameter":[{"name":"subject","valueString":"a995bd9f-dec6-44fd-9b1f-458509443b91"}]}],"extension":[{"url":"http://hl7.org/fhir/us/cqfmeasures/StructureDefinition/cqfm-inputParameters","valueReference":{"reference":"#cb237e2f-0fa9-4cf3-a1d3-fbe688337e7e-parameters"}},{"url":"http://hl7.org/fhir/us/cqfmeasures/StructureDefinition/cqfm-testCaseDescription","valueMarkdown":"Patient with HF and LVSD encounters not prescribed ACE/ARB medication qualifies for denominator exclusion with Heart Transplant Complication history (using Onset)."}],"modifierExtension":[{"url":"http://hl7.org/fhir/us/cqfmeasures/StructureDefinition/cqfm-isTestCase","valueBoolean":true}],"status":"complete","type":"individual","measure":"https://madie.cms.gov/Measure/HFACEIorARBorARNIforLVSDFHIR","period":{"start":"2025-01-01","end":"2025-12-31"},"group":[{"population":[{"code":{"coding":[{"system":"http://terminology.hl7.org/CodeSystem/measure-population","code":"initial-population","display":"Initial Population"}]},"count":1},{"code":{"coding":[{"system":"http://terminology.hl7.org/CodeSystem/measure-population","code":"denominator","display":"Denominator"}]},"count":1},{"code":{"coding":[{"system":"http://terminology.hl7.org/CodeSystem/measure-population","code":"denominator-exclusion","display":"Denominator Exclusion"}]},"count":1},{"code":{"coding":[{"system":"http://terminology.hl7.org/CodeSystem/measure-population","code":"numerator","display":"Numerator"}]},"count":0},{"code":{"coding":[{"system":"http://terminology.hl7.org/CodeSystem/measure-population","code":"denominator-exception","display":"Denominator Exception"}]},"count":0}]}]},"request":{"method":"PUT","url":"MeasureReport/f0fb4d39-e5a2-4680-a76b-fe9f5f8020c9"}}]}