{"resourceType":"Bundle","id":"tests-b7d36e19-a42e-4b09-a83f-4525cd7de100-bundle","type":"transaction","entry":[{"fullUrl":"https://madie.cms.gov/Patient/b7d36e19-a42e-4b09-a83f-4525cd7de100","resource":{"resourceType":"Patient","id":"b7d36e19-a42e-4b09-a83f-4525cd7de100","meta":{"profile":["http://hl7.org/fhir/us/qicore/StructureDefinition/qicore-patient"]},"extension":[{"url":"http://hl7.org/fhir/us/core/StructureDefinition/us-core-race","extension":[{"url":"ombCategory","valueCoding":{"system":"urn:oid:2.16.840.1.113883.6.238","code":"1002-5","display":"American Indian or Alaska Native"}},{"url":"text","valueString":"American Indian or Alaska Native"}]},{"url":"http://hl7.org/fhir/us/core/StructureDefinition/us-core-ethnicity","extension":[{"url":"ombCategory","valueCoding":{"system":"urn:oid:2.16.840.1.113883.6.238","code":"2186-5","display":"Not Hispanic or Latino"}},{"url":"text","valueString":"Not Hispanic or Latino"}]}],"identifier":[{"type":{"coding":[{"system":"http://terminology.hl7.org/CodeSystem/v2-0203","code":"MR"}]},"system":"https://bonnie-fhir.healthit.gov/","value":"431385494631"}],"name":[{"family":"DENEXPass","given":["LVADPlcmntSBEEnc"]}],"gender":"male","birthDate":"1968-06-14"},"request":{"method":"PUT","url":"Patient/b7d36e19-a42e-4b09-a83f-4525cd7de100"}},{"fullUrl":"https://madie.cms.gov/Encounter/1354168413031874","resource":{"resourceType":"Encounter","id":"2ac98096-be4c-4a3a-b99d-c7f961132f60","meta":{"profile":["http://hl7.org/fhir/us/qicore/StructureDefinition/qicore-encounter"]},"status":"finished","class":{"system":"http://terminology.hl7.org/CodeSystem/v3-ActCode","code":"AMB","display":"ambulatory"},"type":[{"coding":[{"system":"http://snomed.info/sct","version":"http://snomed.info/sct/731000124108/version/20240301","code":"281036007","display":"Follow-up consultation (procedure)"}]}],"subject":{"reference":"Patient/b7d36e19-a42e-4b09-a83f-4525cd7de100"},"period":{"start":"2025-03-31T14:40:00.000+00:00","end":"2025-03-31T14:40:00.000+00:00"}},"request":{"method":"PUT","url":"Encounter/2ac98096-be4c-4a3a-b99d-c7f961132f60"}},{"fullUrl":"https://madie.cms.gov/Encounter/98784135163851","resource":{"resourceType":"Encounter","id":"92db0ae4-2928-45fb-b8cb-938dc3bc12f2","meta":{"profile":["http://hl7.org/fhir/us/qicore/StructureDefinition/qicore-encounter"]},"status":"finished","class":{"system":"http://terminology.hl7.org/CodeSystem/v3-ActCode","code":"AMB","display":"ambulatory"},"type":[{"coding":[{"system":"http://snomed.info/sct","version":"http://snomed.info/sct/731000124108/version/20240301","code":"281036007","display":"Follow-up consultation (procedure)"}]}],"subject":{"reference":"Patient/b7d36e19-a42e-4b09-a83f-4525cd7de100"},"period":{"start":"2025-05-15T11:50:00.000+00:00","end":"2025-05-15T11:50:00.000+00:00"}},"request":{"method":"PUT","url":"Encounter/92db0ae4-2928-45fb-b8cb-938dc3bc12f2"}},{"fullUrl":"https://madie.cms.gov/Condition/897496516461631","resource":{"resourceType":"Condition","id":"b581946f-59d2-4314-b538-4ad3417fc934","meta":{"profile":["http://hl7.org/fhir/us/qicore/StructureDefinition/qicore-condition"]},"clinicalStatus":{"coding":[{"system":"http://terminology.hl7.org/CodeSystem/condition-clinical","code":"active","display":"active"}]},"verificationStatus":{"coding":[{"system":"http://terminology.hl7.org/CodeSystem/condition-ver-status","code":"confirmed","display":"Confirmed"}]},"category":[{"coding":[{"system":"http://terminology.hl7.org/CodeSystem/condition-category","code":"problem-list-item","display":"Problem List Item"}]}],"code":{"coding":[{"system":"http://snomed.info/sct","version":"http://snomed.info/sct/731000124108/version/20240301","code":"10091002","display":"High output heart failure (disorder)"}]},"subject":{"reference":"Patient/b7d36e19-a42e-4b09-a83f-4525cd7de100"},"onsetPeriod":{"start":"2024-05-17T10:00:00.000+00:00"}},"request":{"method":"PUT","url":"Condition/b581946f-59d2-4314-b538-4ad3417fc934"}},{"fullUrl":"https://madie.cms.gov/Condition/18549465116854","resource":{"resourceType":"Condition","id":"03e9f414-2f96-4416-8117-dd7596555055","meta":{"profile":["http://hl7.org/fhir/us/qicore/StructureDefinition/qicore-condition"]},"clinicalStatus":{"coding":[{"system":"http://terminology.hl7.org/CodeSystem/condition-clinical","code":"active","display":"Active"}]},"verificationStatus":{"coding":[{"system":"http://terminology.hl7.org/CodeSystem/condition-ver-status","code":"confirmed","display":"Confirmed"}]},"category":[{"coding":[{"system":"http://terminology.hl7.org/CodeSystem/condition-category","code":"problem-list-item","display":"Problem List Item"}]}],"code":{"coding":[{"system":"http://snomed.info/sct","version":"http://snomed.info/sct/731000124108/version/20240301","code":"991000124109","display":"Severe left ventricular systolic dysfunction (disorder)"}]},"subject":{"reference":"Patient/b7d36e19-a42e-4b09-a83f-4525cd7de100"},"onsetPeriod":{"start":"2025-03-25T16:00:00.000+00:00","end":"2025-03-30T16:00:00.000+00:00"}},"request":{"method":"PUT","url":"Condition/03e9f414-2f96-4416-8117-dd7596555055"}},{"fullUrl":"https://madie.cms.gov/Procedure/87916516816631","resource":{"resourceType":"Procedure","id":"efcf5d01-2e71-4d8f-8248-651f56f98d5a","meta":{"profile":["http://hl7.org/fhir/us/qicore/StructureDefinition/qicore-procedure"]},"extension":[{"url":"http://hl7.org/fhir/us/qicore/StructureDefinition/qicore-recorded","valueDateTime":"2024-09-25T13:00:00.000+00:00"}],"status":"completed","code":{"coding":[{"system":"http://www.ama-assn.org/go/cpt","version":"2024","code":"33976","display":"Insertion of ventricular assist device; extracorporeal, biventricular"}]},"subject":{"reference":"Patient/b7d36e19-a42e-4b09-a83f-4525cd7de100"},"performedPeriod":{"start":"2024-09-25T11:00:00.000+00:00","end":"2024-09-25T12:00:00.000+00:00"}},"request":{"method":"PUT","url":"Procedure/efcf5d01-2e71-4d8f-8248-651f56f98d5a"}},{"fullUrl":"https://madie.cms.gov/MeasureReport/22eae295-d9c5-4b98-bfa1-320554fffb21","resource":{"resourceType":"MeasureReport","id":"22eae295-d9c5-4b98-bfa1-320554fffb21","meta":{"profile":["http://hl7.org/fhir/us/cqfmeasures/StructureDefinition/test-case-cqfm"]},"contained":[{"resourceType":"Parameters","id":"887ee70b-35d4-4978-9b6e-03b012ab4969-parameters","parameter":[{"name":"subject","valueString":"b7d36e19-a42e-4b09-a83f-4525cd7de100"}]}],"extension":[{"url":"http://hl7.org/fhir/us/cqfmeasures/StructureDefinition/cqfm-inputParameters","valueReference":{"reference":"#887ee70b-35d4-4978-9b6e-03b012ab4969-parameters"}},{"url":"http://hl7.org/fhir/us/cqfmeasures/StructureDefinition/cqfm-testCaseDescription","valueMarkdown":"Patient has 2 ambulatory encounters, HF diagnosis and LVSD and meets denominator exclusion with history of Left Ventricular Assisted Device placement."}],"modifierExtension":[{"url":"http://hl7.org/fhir/us/cqfmeasures/StructureDefinition/cqfm-isTestCase","valueBoolean":true}],"status":"complete","type":"individual","measure":"https://madie.cms.gov/Measure/HFACEIorARBorARNIforLVSDFHIR","period":{"start":"2025-01-01","end":"2025-12-31"},"group":[{"population":[{"code":{"coding":[{"system":"http://terminology.hl7.org/CodeSystem/measure-population","code":"initial-population","display":"Initial Population"}]},"count":1},{"code":{"coding":[{"system":"http://terminology.hl7.org/CodeSystem/measure-population","code":"denominator","display":"Denominator"}]},"count":1},{"code":{"coding":[{"system":"http://terminology.hl7.org/CodeSystem/measure-population","code":"denominator-exclusion","display":"Denominator Exclusion"}]},"count":1},{"code":{"coding":[{"system":"http://terminology.hl7.org/CodeSystem/measure-population","code":"numerator","display":"Numerator"}]},"count":0},{"code":{"coding":[{"system":"http://terminology.hl7.org/CodeSystem/measure-population","code":"denominator-exception","display":"Denominator Exception"}]},"count":0}]}]},"request":{"method":"PUT","url":"MeasureReport/22eae295-d9c5-4b98-bfa1-320554fffb21"}}]}