{
  "resourceType": "Bundle",
  "id": "Patient-3-IPFail-2MonthsWithURIEnc",
  "type": "transaction",
  "entry": [ {
    "fullUrl": "https://madie.cms.gov/Patient/f0fb8f46-3185-4b14-ac9c-227d67cedc3e",
    "resource": {
      "resourceType": "Patient",
      "id": "f0fb8f46-3185-4b14-ac9c-227d67cedc3e",
      "meta": {
        "profile": [ "http://hl7.org/fhir/us/qicore/StructureDefinition/qicore-patient" ]
      },
      "extension": [ {
        "url": "http://hl7.org/fhir/us/core/StructureDefinition/us-core-race",
        "extension": [ {
          "url": "ombCategory",
          "valueCoding": {
            "system": "urn:oid:2.16.840.1.113883.6.238",
            "code": "2028-9",
            "display": "Asian"
          }
        }, {
          "url": "text",
          "valueString": "Asian"
        } ]
      }, {
        "url": "http://hl7.org/fhir/us/core/StructureDefinition/us-core-ethnicity",
        "extension": [ {
          "url": "ombCategory",
          "valueCoding": {
            "system": "urn:oid:2.16.840.1.113883.6.238",
            "code": "2135-2",
            "display": "Hispanic or Latino"
          }
        }, {
          "url": "text",
          "valueString": "Hispanic or Latino"
        } ]
      } ],
      "identifier": [ {
        "system": "http://hospital.smarthealthit.org",
        "value": "999999995"
      } ],
      "name": [ {
        "family": "Bertha",
        "given": [ "Betty" ]
      } ],
      "gender": "female",
      "birthDate": "2024-11-01"
    },
    "request": {
      "method": "POST",
      "url": "Patient/f0fb8f46-3185-4b14-ac9c-227d67cedc3e"
    }
  }, {
    "fullUrl": "https://madie.cms.gov/Encounter/Encounter-5",
    "resource": {
      "resourceType": "Encounter",
      "id": "Encounter-5",
      "meta": {
        "profile": [ "http://hl7.org/fhir/us/qicore/StructureDefinition/qicore-encounter" ]
      },
      "status": "finished",
      "class": {
        "system": "http://terminology.hl7.org/CodeSystem/v3-ActCode",
        "code": "AMB",
        "display": "ambulatory"
      },
      "type": [ {
        "coding": [ {
          "system": "http://snomed.info/sct",
          "code": "185317003",
          "display": "Telephone encounter (procedure)"
        } ]
      } ],
      "subject": {
        "reference": "Patient/f0fb8f46-3185-4b14-ac9c-227d67cedc3e"
      },
      "period": {
        "start": "2025-01-01T01:00:00.000Z",
        "end": "2025-01-01T01:15:00.000Z"
      }
    },
    "request": {
      "method": "POST",
      "url": "Encounter/Encounter-5"
    }
  }, {
    "fullUrl": "https://madie.cms.gov/Condition/Condition-3",
    "resource": {
      "resourceType": "Condition",
      "id": "Condition-3",
      "meta": {
        "profile": [ "http://hl7.org/fhir/us/qicore/StructureDefinition/qicore-condition" ]
      },
      "clinicalStatus": {
        "coding": [ {
          "system": "http://terminology.hl7.org/CodeSystem/condition-clinical",
          "code": "active"
        } ]
      },
      "category": [ {
        "coding": [ {
          "system": "http://terminology.hl7.org/CodeSystem/condition-category",
          "code": "problem-list-item",
          "display": "Problem List Item"
        } ]
      } ],
      "code": {
        "coding": [ {
          "system": "http://snomed.info/sct",
          "code": "54398005",
          "display": "Acute upper respiratory infection (disorder)"
        } ]
      },
      "subject": {
        "reference": "Patient/f0fb8f46-3185-4b14-ac9c-227d67cedc3e"
      },
      "onsetDateTime": "2025-01-01T01:00:00.000Z"
    },
    "request": {
      "method": "POST",
      "url": "Condition/Condition-3"
    }
  }, {
    "fullUrl": "https://madie.cms.gov/Encounter/Encounter-6",
    "resource": {
      "resourceType": "Encounter",
      "id": "Encounter-6",
      "meta": {
        "profile": [ "http://hl7.org/fhir/us/qicore/StructureDefinition/qicore-encounter" ]
      },
      "status": "finished",
      "class": {
        "system": "http://terminology.hl7.org/CodeSystem/v3-ActCode",
        "code": "AMB",
        "display": "ambulatory"
      },
      "type": [ {
        "coding": [ {
          "system": "http://snomed.info/sct",
          "code": "305336008",
          "display": "Admission to hospice (procedure)"
        } ]
      } ],
      "subject": {
        "reference": "Patient/f0fb8f46-3185-4b14-ac9c-227d67cedc3e"
      },
      "period": {
        "start": "2025-01-02T01:00:00.000Z",
        "end": "2025-01-02T01:15:00.000Z"
      }
    },
    "request": {
      "method": "POST",
      "url": "Encounter/Encounter-6"
    }
  }, {
    "fullUrl": "https://madie.cms.gov/MeasureReport/e411cc14-be80-4a6e-acae-60c0f684c57c",
    "resource": {
      "resourceType": "MeasureReport",
      "id": "e411cc14-be80-4a6e-acae-60c0f684c57c",
      "meta": {
        "profile": [ "http://hl7.org/fhir/us/cqfmeasures/StructureDefinition/test-case-cqfm" ]
      },
      "contained": [ {
        "resourceType": "Parameters",
        "id": "c50a24f8-da20-4ed5-8cdc-4d2cab737626-parameters",
        "parameter": [ {
          "name": "subject",
          "valueString": "f0fb8f46-3185-4b14-ac9c-227d67cedc3e"
        } ]
      } ],
      "extension": [ {
        "url": "http://hl7.org/fhir/us/cqfmeasures/StructureDefinition/cqfm-inputParameters",
        "valueReference": {
          "reference": "#c50a24f8-da20-4ed5-8cdc-4d2cab737626-parameters"
        }
      }, {
        "url": "http://hl7.org/fhir/us/cqfmeasures/StructureDefinition/cqfm-testCaseDescription",
        "valueMarkdown": "Patient is 2 months with an encounter with URI diagnosis"
      } ],
      "modifierExtension": [ {
        "url": "http://hl7.org/fhir/us/cqfmeasures/StructureDefinition/cqfm-isTestCase",
        "valueBoolean": true
      } ],
      "status": "complete",
      "type": "individual",
      "measure": "https://madie.cms.gov/Measure/AppropriateTreatmentforUpperRespiratoryInfectionURIFHIR",
      "period": {
        "start": "2025-01-01",
        "end": "2025-12-31"
      },
      "group": [ {
        "population": [ {
          "code": {
            "coding": [ {
              "system": "http://terminology.hl7.org/CodeSystem/measure-population",
              "code": "initial-population",
              "display": "Initial Population"
            } ]
          },
          "count": 0
        }, {
          "code": {
            "coding": [ {
              "system": "http://terminology.hl7.org/CodeSystem/measure-population",
              "code": "denominator",
              "display": "Denominator"
            } ]
          },
          "count": 0
        }, {
          "code": {
            "coding": [ {
              "system": "http://terminology.hl7.org/CodeSystem/measure-population",
              "code": "denominator-exclusion",
              "display": "Denominator Exclusion"
            } ]
          },
          "count": 0
        }, {
          "code": {
            "coding": [ {
              "system": "http://terminology.hl7.org/CodeSystem/measure-population",
              "code": "numerator",
              "display": "Numerator"
            } ]
          },
          "count": 0
        } ]
      } ],
      "evaluatedResource": [ {
        "reference": "https://madie.cms.gov/Patient/f0fb8f46-3185-4b14-ac9c-227d67cedc3e"
      }, {
        "reference": "https://madie.cms.gov/Encounter/Encounter-5"
      }, {
        "reference": "https://madie.cms.gov/Condition/Condition-3"
      }, {
        "reference": "https://madie.cms.gov/Encounter/Encounter-6"
      } ]
    },
    "request": {
      "method": "POST",
      "url": "MeasureReport/e411cc14-be80-4a6e-acae-60c0f684c57c"
    }
  } ]
}