{"resourceType":"Bundle","id":"tests-bfd7f398-ab96-457e-bcab-23ecf3f8c631-bundle","type":"transaction","entry":[{"fullUrl":"https://madie.cms.gov/Patient/bfd7f398-ab96-457e-bcab-23ecf3f8c631","resource":{"resourceType":"Patient","id":"bfd7f398-ab96-457e-bcab-23ecf3f8c631","meta":{"profile":["http://hl7.org/fhir/us/qicore/StructureDefinition/qicore-patient"]},"extension":[{"url":"http://hl7.org/fhir/us/core/StructureDefinition/us-core-race","extension":[{"url":"ombCategory","valueCoding":{"system":"urn:oid:2.16.840.1.113883.6.238","code":"2028-9","display":"Asian"}},{"url":"text","valueString":"Asian"}]},{"url":"http://hl7.org/fhir/us/core/StructureDefinition/us-core-ethnicity","extension":[{"url":"ombCategory","valueCoding":{"system":"urn:oid:2.16.840.1.113883.6.238","code":"2135-2","display":"Hispanic or Latino"}},{"url":"text","valueString":"Hispanic or Latino"}]}],"identifier":[{"system":"http://hospital.smarthealthit.org","value":"999999995"}],"name":[{"family":"Bertha","given":["Betty"]}],"gender":"female","birthDate":"2017-12-31"},"request":{"method":"PUT","url":"Patient/bfd7f398-ab96-457e-bcab-23ecf3f8c631"}},{"fullUrl":"https://madie.cms.gov/Encounter/Encounter-1","resource":{"resourceType":"Encounter","id":"8695ce97-a020-4695-a4fc-159fdf5ffc9c","meta":{"profile":["http://hl7.org/fhir/us/qicore/StructureDefinition/qicore-encounter"]},"status":"finished","class":{"system":"http://terminology.hl7.org/CodeSystem/v3-ActCode","code":"AMB","display":"ambulatory"},"type":[{"coding":[{"system":"http://www.ama-assn.org/go/cpt","code":"99393","display":"Periodic comprehensive preventive medicine reevaluation and management of an individual including an age and gender appropriate history, examination, counseling/anticipatory guidance/risk factor reduction interventions, and the ordering of laboratory/diagnostic procedures, established patient; late childhood (age 5 through 11 years)"}]}],"subject":{"reference":"Patient/bfd7f398-ab96-457e-bcab-23ecf3f8c631"},"period":{"start":"2025-01-01T00:00:00.000Z","end":"2025-01-01T01:00:00.000Z"}},"request":{"method":"PUT","url":"Encounter/8695ce97-a020-4695-a4fc-159fdf5ffc9c"}},{"fullUrl":"https://madie.cms.gov/MedicationRequest/MedicationRequest-1","resource":{"resourceType":"MedicationRequest","id":"9607bebb-b29c-4075-a592-c1a36af62673","meta":{"profile":["http://hl7.org/fhir/us/qicore/StructureDefinition/qicore-medicationrequest"]},"status":"completed","intent":"order","medicationCodeableConcept":{"coding":[{"system":"http://www.nlm.nih.gov/research/umls/rxnorm","code":"884173","display":"clonidine hydrochloride 0.1 MG Oral Tablet"}]},"subject":{"reference":"Patient/bfd7f398-ab96-457e-bcab-23ecf3f8c631"},"authoredOn":"2025-01-01T00:00:00.000Z","requester":{"reference":"Practitioner/example"},"dosageInstruction":[{"timing":{"repeat":{"boundsPeriod":{"start":"2025-01-01T00:00:00.000Z","end":"2025-03-31T23:59:59.000Z"}}}}],"dispenseRequest":{"expectedSupplyDuration":{"value":90,"system":"http://unitsofmeasure.org","code":"d"}}},"request":{"method":"PUT","url":"MedicationRequest/9607bebb-b29c-4075-a592-c1a36af62673"}},{"fullUrl":"https://madie.cms.gov/MeasureReport/498d7ac1-6b86-4caf-8980-7dea526d3a83","resource":{"resourceType":"MeasureReport","id":"498d7ac1-6b86-4caf-8980-7dea526d3a83","meta":{"profile":["http://hl7.org/fhir/us/cqfmeasures/StructureDefinition/test-case-cqfm"]},"contained":[{"resourceType":"Parameters","id":"51dcf385-a4bc-4ae1-9cde-c818ffa0161b-parameters","parameter":[{"name":"subject","valueString":"bfd7f398-ab96-457e-bcab-23ecf3f8c631"}]}],"extension":[{"url":"http://hl7.org/fhir/us/cqfmeasures/StructureDefinition/cqfm-inputParameters","valueReference":{"reference":"#51dcf385-a4bc-4ae1-9cde-c818ffa0161b-parameters"}},{"url":"http://hl7.org/fhir/us/cqfmeasures/StructureDefinition/cqfm-testCaseDescription","valueMarkdown":"Qualifying encounter is established office visit"}],"modifierExtension":[{"url":"http://hl7.org/fhir/us/cqfmeasures/StructureDefinition/cqfm-isTestCase","valueBoolean":true}],"status":"complete","type":"individual","measure":"https://madie.cms.gov/Measure/FollowUpCareforChildrenPrescribedADHDMedicationADDFHIR","period":{"start":"2025-01-01","end":"2025-12-31"},"group":[{"population":[{"code":{"coding":[{"system":"http://terminology.hl7.org/CodeSystem/measure-population","code":"initial-population","display":"Initial Population"}]},"count":1},{"code":{"coding":[{"system":"http://terminology.hl7.org/CodeSystem/measure-population","code":"denominator","display":"Denominator"}]},"count":1},{"code":{"coding":[{"system":"http://terminology.hl7.org/CodeSystem/measure-population","code":"denominator-exclusion","display":"Denominator Exclusion"}]},"count":0},{"code":{"coding":[{"system":"http://terminology.hl7.org/CodeSystem/measure-population","code":"numerator","display":"Numerator"}]},"count":0}]},{"population":[{"code":{"coding":[{"system":"http://terminology.hl7.org/CodeSystem/measure-population","code":"initial-population","display":"Initial Population"}]},"count":0},{"code":{"coding":[{"system":"http://terminology.hl7.org/CodeSystem/measure-population","code":"denominator","display":"Denominator"}]},"count":0},{"code":{"coding":[{"system":"http://terminology.hl7.org/CodeSystem/measure-population","code":"denominator-exclusion","display":"Denominator Exclusion"}]},"count":0},{"code":{"coding":[{"system":"http://terminology.hl7.org/CodeSystem/measure-population","code":"numerator","display":"Numerator"}]},"count":0}]}]},"request":{"method":"PUT","url":"MeasureReport/498d7ac1-6b86-4caf-8980-7dea526d3a83"}}]}