{
  "resourceType": "Bundle",
  "id": "64a2f99b6bc362e28fa378ba",
  "type": "transaction",
  "entry": [ {
    "fullUrl": "https://madie.cms.gov/Patient/7fafc4ad-74d9-48e7-b12e-d51a11030a14",
    "resource": {
      "resourceType": "Patient",
      "id": "7fafc4ad-74d9-48e7-b12e-d51a11030a14",
      "meta": {
        "profile": [ "http://hl7.org/fhir/us/qicore/StructureDefinition/qicore-patient" ]
      },
      "extension": [ {
        "url": "http://hl7.org/fhir/us/core/StructureDefinition/us-core-race",
        "extension": [ {
          "url": "ombCategory",
          "valueCoding": {
            "system": "urn:oid:2.16.840.1.113883.6.238",
            "code": "2054-5",
            "display": "Black or African American",
            "userSelected": true
          }
        }, {
          "url": "detailed",
          "valueCoding": {
            "system": "urn:oid:2.16.840.1.113883.6.238",
            "code": "2036-2",
            "display": "Filipino"
          }
        }, {
          "url": "text",
          "valueString": "Black or African American"
        } ]
      }, {
        "url": "http://hl7.org/fhir/us/core/StructureDefinition/us-core-ethnicity",
        "extension": [ {
          "url": "ombCategory",
          "valueCoding": {
            "system": "urn:oid:2.16.840.1.113883.6.238",
            "code": "2186-5",
            "display": "Not Hispanic or Latino",
            "userSelected": true
          }
        }, {
          "url": "detailed",
          "valueCoding": {
            "system": "urn:oid:2.16.840.1.113883.6.238",
            "code": "2184-0",
            "display": "Dominican"
          }
        }, {
          "url": "detailed",
          "valueCoding": {
            "system": "urn:oid:2.16.840.1.113883.6.238",
            "code": "2148-5",
            "display": "Mexican"
          }
        }, {
          "url": "text",
          "valueString": "Not Hispanic or Latino"
        } ]
      } ],
      "identifier": [ {
        "type": {
          "coding": [ {
            "system": "http://terminology.hl7.org/CodeSystem/v2-0203",
            "code": "MR"
          } ]
        },
        "system": "https://bonnie-fhir.healthit.gov/",
        "value": "64a2f99b6bc362e28fa378ba"
      } ],
      "name": [ {
        "family": "NumPass",
        "given": [ "AllLabTestsMultipleEnc" ]
      } ],
      "gender": "female",
      "birthDate": "2000-02-04"
    },
    "request": {
      "method": "POST",
      "url": "Patient/7fafc4ad-74d9-48e7-b12e-d51a11030a14"
    }
  }, {
    "fullUrl": "https://madie.cms.gov/Condition/hiv-78bb",
    "resource": {
      "resourceType": "Condition",
      "id": "hiv-78bb",
      "meta": {
        "profile": [ "http://hl7.org/fhir/us/qicore/StructureDefinition/qicore-condition" ]
      },
      "clinicalStatus": {
        "coding": [ {
          "system": "http://terminology.hl7.org/CodeSystem/condition-clinical",
          "code": "active",
          "display": "active",
          "userSelected": true
        } ]
      },
      "category": [ {
        "coding": [ {
          "system": "http://terminology.hl7.org/CodeSystem/condition-category",
          "code": "problem-list-item",
          "display": "Problem List Item"
        } ]
      } ],
      "code": {
        "coding": [ {
          "system": "http://hl7.org/fhir/sid/icd-9-cm",
          "version": "2013",
          "code": "042",
          "display": "Human immunodeficiency virus [HIV] disease",
          "userSelected": true
        }, {
          "system": "http://snomed.info/sct",
          "code": "165816005",
          "userSelected": true
        } ]
      },
      "subject": {
        "reference": "Patient/7fafc4ad-74d9-48e7-b12e-d51a11030a14"
      },
      "onsetDateTime": "2017-09-28T08:00:00.000+00:00",
      "recordedDate": "2017-09-28T08:00:00.000+00:00"
    },
    "request": {
      "method": "POST",
      "url": "Condition/hiv-78bb"
    }
  }, {
    "fullUrl": "https://madie.cms.gov/Encounter/preventive-care-established-office-visit-0-to-17-78bc",
    "resource": {
      "resourceType": "Encounter",
      "id": "preventive-care-established-office-visit-0-to-17-78bc",
      "meta": {
        "profile": [ "http://hl7.org/fhir/us/qicore/StructureDefinition/qicore-encounter" ]
      },
      "status": "finished",
      "class": {
        "system": "http://terminology.hl7.org/CodeSystem/v3-ActCode",
        "code": "AMB",
        "display": "ambulatory"
      },
      "type": [ {
        "coding": [ {
          "system": "http://www.ama-assn.org/go/cpt",
          "version": "2023",
          "code": "99391",
          "display": "Periodic comprehensive preventive medicine reevaluation and management of an individual including an age and gender appropriate history, examination, counseling/anticipatory guidance/risk factor reduction interventions, and the ordering of laboratory/diagnostic procedures, established patient; infant (age younger than 1 year)",
          "userSelected": true
        } ]
      } ],
      "subject": {
        "reference": "Patient/7fafc4ad-74d9-48e7-b12e-d51a11030a14"
      },
      "period": {
        "start": "2025-09-29T08:00:00.000+00:00",
        "end": "2025-09-29T08:30:00.000+00:00"
      }
    },
    "request": {
      "method": "POST",
      "url": "Encounter/preventive-care-established-office-visit-0-to-17-78bc"
    }
  }, {
    "fullUrl": "https://madie.cms.gov/Observation/syphilis-tests-78bd",
    "resource": {
      "resourceType": "Observation",
      "id": "syphilis-tests-78bd",
      "meta": {
        "profile": [ "http://hl7.org/fhir/us/qicore/StructureDefinition/qicore-observation" ]
      },
      "status": "final",
      "category": [ {
        "coding": [ {
          "system": "http://terminology.hl7.org/CodeSystem/observation-category"
        } ]
      } ],
      "code": {
        "coding": [ {
          "system": "http://loinc.org",
          "version": "2.73",
          "code": "11084-1",
          "display": "Reagin Ab [Titer] in Serum",
          "userSelected": true
        } ]
      },
      "subject": {
        "reference": "Patient/7fafc4ad-74d9-48e7-b12e-d51a11030a14"
      },
      "effectivePeriod": {
        "start": "2025-08-30T08:00:00.000+00:00",
        "end": "2025-08-30T08:15:00.000+00:00"
      },
      "issued": "2025-08-30T08:00:00.000+00:00",
      "valueBoolean": true
    },
    "request": {
      "method": "POST",
      "url": "Observation/syphilis-tests-78bd"
    }
  }, {
    "fullUrl": "https://madie.cms.gov/Observation/chlamydia-screening-78be",
    "resource": {
      "resourceType": "Observation",
      "id": "chlamydia-screening-78be",
      "meta": {
        "profile": [ "http://hl7.org/fhir/us/qicore/StructureDefinition/qicore-observation" ]
      },
      "status": "final",
      "category": [ {
        "coding": [ {
          "system": "http://terminology.hl7.org/CodeSystem/observation-category"
        } ]
      } ],
      "code": {
        "coding": [ {
          "system": "http://loinc.org",
          "version": "2.73",
          "code": "14463-4",
          "display": "Chlamydia trachomatis [Presence] in Cervix by Organism specific culture",
          "userSelected": true
        } ]
      },
      "subject": {
        "reference": "Patient/7fafc4ad-74d9-48e7-b12e-d51a11030a14"
      },
      "effectivePeriod": {
        "start": "2025-08-30T08:00:00.000+00:00",
        "end": "2025-08-30T08:15:00.000+00:00"
      },
      "issued": "2025-08-30T08:00:00.000+00:00",
      "valueQuantity": {
        "value": 12
      }
    },
    "request": {
      "method": "POST",
      "url": "Observation/chlamydia-screening-78be"
    }
  }, {
    "fullUrl": "https://madie.cms.gov/Encounter/office-visit-78bf",
    "resource": {
      "resourceType": "Encounter",
      "id": "office-visit-78bf",
      "meta": {
        "profile": [ "http://hl7.org/fhir/us/qicore/StructureDefinition/qicore-encounter" ]
      },
      "status": "finished",
      "class": {
        "system": "http://terminology.hl7.org/CodeSystem/v3-ActCode",
        "code": "AMB",
        "display": "ambulatory"
      },
      "type": [ {
        "coding": [ {
          "system": "http://snomed.info/sct",
          "code": "30346009",
          "userSelected": true
        } ]
      } ],
      "subject": {
        "reference": "Patient/7fafc4ad-74d9-48e7-b12e-d51a11030a14"
      },
      "period": {
        "start": "2025-01-02T08:00:00.000+00:00",
        "end": "2025-01-02T08:45:00.000+00:00"
      }
    },
    "request": {
      "method": "POST",
      "url": "Encounter/office-visit-78bf"
    }
  }, {
    "fullUrl": "https://madie.cms.gov/Observation/gonorrhea-screening-78c0",
    "resource": {
      "resourceType": "Observation",
      "id": "gonorrhea-screening-78c0",
      "meta": {
        "profile": [ "http://hl7.org/fhir/us/qicore/StructureDefinition/qicore-observation" ]
      },
      "status": "final",
      "category": [ {
        "coding": [ {
          "system": "http://terminology.hl7.org/CodeSystem/observation-category"
        } ]
      } ],
      "code": {
        "coding": [ {
          "system": "http://loinc.org",
          "version": "2.73",
          "code": "21415-5",
          "display": "Neisseria gonorrhoeae DNA [Presence] in Cervical mucus by NAA with probe detection",
          "userSelected": true
        } ]
      },
      "subject": {
        "reference": "Patient/7fafc4ad-74d9-48e7-b12e-d51a11030a14"
      },
      "effectivePeriod": {
        "start": "2025-08-30T08:00:00.000+00:00",
        "end": "2025-08-30T08:15:00.000+00:00"
      },
      "issued": "2025-08-30T08:00:00.000+00:00",
      "valueQuantity": {
        "value": 16
      }
    },
    "request": {
      "method": "POST",
      "url": "Observation/gonorrhea-screening-78c0"
    }
  }, {
    "fullUrl": "https://madie.cms.gov/Coverage/1",
    "resource": {
      "resourceType": "Coverage",
      "id": "1",
      "meta": {
        "profile": [ "http://hl7.org/fhir/us/qicore/StructureDefinition/qicore-coverage" ]
      },
      "status": "active",
      "beneficiary": {
        "reference": "Patient/7fafc4ad-74d9-48e7-b12e-d51a11030a14"
      },
      "payor": [ {
        "reference": "Organization/123456"
      } ]
    },
    "request": {
      "method": "POST",
      "url": "Coverage/1"
    }
  }, {
    "fullUrl": "https://madie.cms.gov/Coverage/6846813516441",
    "resource": {
      "resourceType": "Coverage",
      "id": "6846813516441",
      "meta": {
        "profile": [ "http://hl7.org/fhir/us/qicore/StructureDefinition/qicore-coverage" ]
      },
      "identifier": [ {
        "system": "http://benefitsinc.com/certificate",
        "value": "12345"
      } ],
      "status": "active",
      "type": {
        "coding": [ {
          "system": "https://nahdo.org/sopt",
          "version": "9.2",
          "code": "59",
          "display": "Other Private Insurance"
        } ]
      },
      "beneficiary": {
        "reference": "Patient/7fafc4ad-74d9-48e7-b12e-d51a11030a14"
      },
      "dependent": "0",
      "relationship": {
        "coding": [ {
          "system": "http://terminology.hl7.org/CodeSystem/subscriber-relationship",
          "code": "self"
        } ]
      },
      "period": {
        "start": "2015-05-23",
        "end": "2025-05-23"
      },
      "payor": [ {
        "reference": "Organization/4654531645616"
      } ],
      "order": 9
    },
    "request": {
      "method": "POST",
      "url": "Coverage/6846813516441"
    }
  }, {
    "fullUrl": "https://madie.cms.gov/Practitioner/practitioner-123456",
    "resource": {
      "resourceType": "Practitioner",
      "id": "practitioner-123456",
      "meta": {
        "profile": [ "http://hl7.org/fhir/us/qicore/StructureDefinition/qicore-practitioner" ]
      },
      "identifier": [ {
        "system": "http://hl7.org/fhir/sid/us-npi",
        "value": "123456"
      } ],
      "name": [ {
        "family": "Evil",
        "prefix": [ "Dr" ]
      } ]
    },
    "request": {
      "method": "POST",
      "url": "Practitioner/practitioner-123456"
    }
  }, {
    "fullUrl": "https://madie.cms.gov/MeasureReport/1339a952-0f45-44a4-9b60-01d1f1a74bcf",
    "resource": {
      "resourceType": "MeasureReport",
      "id": "1339a952-0f45-44a4-9b60-01d1f1a74bcf",
      "meta": {
        "profile": [ "http://hl7.org/fhir/us/cqfmeasures/StructureDefinition/test-case-cqfm" ]
      },
      "contained": [ {
        "resourceType": "Parameters",
        "id": "1da67e70-a7a9-4357-bf78-8d4a8c63fa7e-parameters",
        "parameter": [ {
          "name": "subject",
          "valueString": "7fafc4ad-74d9-48e7-b12e-d51a11030a14"
        } ]
      } ],
      "extension": [ {
        "url": "http://hl7.org/fhir/us/cqfmeasures/StructureDefinition/cqfm-inputParameters",
        "valueReference": {
          "reference": "#1da67e70-a7a9-4357-bf78-8d4a8c63fa7e-parameters"
        }
      }, {
        "url": "http://hl7.org/fhir/us/cqfmeasures/StructureDefinition/cqfm-testCaseDescription",
        "valueMarkdown": "Patient is over 13 years old and has multiple encounters during the MP and has all three lab tests during the MP"
      } ],
      "modifierExtension": [ {
        "url": "http://hl7.org/fhir/us/cqfmeasures/StructureDefinition/cqfm-isTestCase",
        "valueBoolean": true
      } ],
      "status": "complete",
      "type": "individual",
      "measure": "https://madie.cms.gov/Measure/HIVSTITestingFHIR",
      "period": {
        "start": "2025-01-01",
        "end": "2025-12-31"
      },
      "group": [ {
        "population": [ {
          "code": {
            "coding": [ {
              "system": "http://terminology.hl7.org/CodeSystem/measure-population",
              "code": "initial-population",
              "display": "Initial Population"
            } ]
          },
          "count": 1
        }, {
          "code": {
            "coding": [ {
              "system": "http://terminology.hl7.org/CodeSystem/measure-population",
              "code": "denominator",
              "display": "Denominator"
            } ]
          },
          "count": 1
        }, {
          "code": {
            "coding": [ {
              "system": "http://terminology.hl7.org/CodeSystem/measure-population",
              "code": "numerator",
              "display": "Numerator"
            } ]
          },
          "count": 1
        } ]
      } ],
      "evaluatedResource": [ {
        "reference": "Patient/7fafc4ad-74d9-48e7-b12e-d51a11030a14"
      }, {
        "reference": "Condition/hiv-78bb"
      }, {
        "reference": "Encounter/preventive-care-established-office-visit-0-to-17-78bc"
      }, {
        "reference": "Observation/syphilis-tests-78bd"
      }, {
        "reference": "Observation/chlamydia-screening-78be"
      }, {
        "reference": "Encounter/office-visit-78bf"
      }, {
        "reference": "Observation/gonorrhea-screening-78c0"
      }, {
        "reference": "Coverage/1"
      }, {
        "reference": "Coverage/6846813516441"
      }, {
        "reference": "Practitioner/practitioner-123456"
      } ]
    },
    "request": {
      "method": "POST",
      "url": "MeasureReport/1339a952-0f45-44a4-9b60-01d1f1a74bcf"
    }
  } ]
}