{"resourceType":"Bundle","id":"tests-00da3e6b-9ab1-48b6-8b34-a0f08754fb3c-bundle","type":"transaction","entry":[{"fullUrl":"https://madie.cms.gov/Patient/00da3e6b-9ab1-48b6-8b34-a0f08754fb3c","resource":{"resourceType":"Patient","id":"00da3e6b-9ab1-48b6-8b34-a0f08754fb3c","meta":{"profile":["http://hl7.org/fhir/us/qicore/StructureDefinition/qicore-patient"]},"extension":[{"url":"http://hl7.org/fhir/us/core/StructureDefinition/us-core-race","extension":[{"url":"ombCategory","valueCoding":{"system":"urn:oid:2.16.840.1.113883.6.238","code":"2028-9","display":"Asian","userSelected":true}},{"url":"text","valueString":"Asian"}]},{"url":"http://hl7.org/fhir/us/core/StructureDefinition/us-core-ethnicity","extension":[{"url":"ombCategory","valueCoding":{"system":"urn:oid:2.16.840.1.113883.6.238","code":"2135-2","display":"Hispanic or Latino","userSelected":true}},{"url":"text","valueString":"Hispanic or Latino"}]}],"identifier":[{"type":{"coding":[{"system":"http://terminology.hl7.org/CodeSystem/v2-0203","code":"MR"}]},"system":"http://hospital.smarthealthit.org","value":"999999995"}],"name":[{"family":"Bertha","given":["Betty"]}],"gender":"female","birthDate":"1960-01-01"},"request":{"method":"PUT","url":"Patient/00da3e6b-9ab1-48b6-8b34-a0f08754fb3c"}},{"fullUrl":"https://madie.cms.gov/Encounter/Encounter-26","resource":{"resourceType":"Encounter","id":"7629080b-7f0e-478e-88d8-a34e2cc39dfd","meta":{"profile":["http://hl7.org/fhir/us/qicore/StructureDefinition/qicore-encounter"]},"status":"finished","class":{"system":"http://terminology.hl7.org/CodeSystem/v3-ActCode","code":"AMB","display":"ambulatory"},"type":[{"coding":[{"system":"http://snomed.info/sct","code":"185317003","display":"Telephone contact by consultant (procedure)"}]}],"subject":{"reference":"Patient/00da3e6b-9ab1-48b6-8b34-a0f08754fb3c"},"period":{"start":"2025-01-01T00:00:00.000Z","end":"2025-01-01T01:15:00.000Z"}},"request":{"method":"PUT","url":"Encounter/7629080b-7f0e-478e-88d8-a34e2cc39dfd"}},{"fullUrl":"https://madie.cms.gov/MedicationRequest/MedicationRequest-13","resource":{"resourceType":"MedicationRequest","id":"677777df-f9c5-4eba-91f4-20c0c05db0b1","meta":{"profile":["http://hl7.org/fhir/us/qicore/StructureDefinition/qicore-medicationrequest"]},"status":"active","intent":"order","category":[{"coding":[{"system":"http://terminology.hl7.org/CodeSystem/medicationrequest-category","code":"discharge","display":"Discharge"}]}],"medicationCodeableConcept":{"coding":[{"system":"http://www.nlm.nih.gov/research/umls/rxnorm","code":"885209","display":"benztropine mesylate 2 MG Oral Tablet","userSelected":true}]},"subject":{"reference":"Patient/00da3e6b-9ab1-48b6-8b34-a0f08754fb3c"},"authoredOn":"2025-01-01T00:00:00.000Z","requester":{"reference":"Practitioner/example"}},"request":{"method":"PUT","url":"MedicationRequest/677777df-f9c5-4eba-91f4-20c0c05db0b1"}},{"fullUrl":"https://madie.cms.gov/MedicationRequest/MedicationRequest-14","resource":{"resourceType":"MedicationRequest","id":"15501c8e-0fdb-462e-9bc3-5f1f3dc2164f","meta":{"profile":["http://hl7.org/fhir/us/qicore/StructureDefinition/qicore-medicationrequest"]},"status":"active","intent":"order","category":[{"coding":[{"system":"http://terminology.hl7.org/CodeSystem/medicationrequest-category","code":"discharge","display":"Discharge"}]}],"medicationCodeableConcept":{"coding":[{"system":"http://www.nlm.nih.gov/research/umls/rxnorm","code":"885209","display":"benztropine mesylate 2 MG Oral Tablet","userSelected":true}]},"subject":{"reference":"Patient/00da3e6b-9ab1-48b6-8b34-a0f08754fb3c"},"authoredOn":"2025-01-02T00:00:00.000Z","requester":{"reference":"Practitioner/example"}},"request":{"method":"PUT","url":"MedicationRequest/15501c8e-0fdb-462e-9bc3-5f1f3dc2164f"}},{"fullUrl":"https://madie.cms.gov/MeasureReport/15bc0df0-8710-4e13-8d44-c518767a8f31","resource":{"resourceType":"MeasureReport","id":"15bc0df0-8710-4e13-8d44-c518767a8f31","meta":{"profile":["http://hl7.org/fhir/us/cqfmeasures/StructureDefinition/test-case-cqfm"]},"contained":[{"resourceType":"Parameters","id":"837e6e07-6891-45bf-ad5b-cb45af574334-parameters","parameter":[{"name":"subject","valueString":"00da3e6b-9ab1-48b6-8b34-a0f08754fb3c"}]}],"extension":[{"url":"http://hl7.org/fhir/us/cqfmeasures/StructureDefinition/cqfm-inputParameters","valueReference":{"reference":"#837e6e07-6891-45bf-ad5b-cb45af574334-parameters"}},{"url":"http://hl7.org/fhir/us/cqfmeasures/StructureDefinition/cqfm-testCaseDescription","valueMarkdown":"Antiparkinsonian medications ordered on different days"}],"modifierExtension":[{"url":"http://hl7.org/fhir/us/cqfmeasures/StructureDefinition/cqfm-isTestCase","valueBoolean":true}],"status":"complete","type":"individual","measure":"https://madie.cms.gov/Measure/UseofHighRiskMedicationsintheElderlyFHIR","period":{"start":"2025-01-01","end":"2025-12-31"},"group":[{"population":[{"code":{"coding":[{"system":"http://terminology.hl7.org/CodeSystem/measure-population","code":"initial-population","display":"Initial Population"}]},"count":1},{"code":{"coding":[{"system":"http://terminology.hl7.org/CodeSystem/measure-population","code":"denominator","display":"Denominator"}]},"count":1},{"code":{"coding":[{"system":"http://terminology.hl7.org/CodeSystem/measure-population","code":"denominator-exclusion","display":"Denominator Exclusion"}]},"count":0},{"code":{"coding":[{"system":"http://terminology.hl7.org/CodeSystem/measure-population","code":"numerator","display":"Numerator"}]},"count":1}]},{"population":[{"code":{"coding":[{"system":"http://terminology.hl7.org/CodeSystem/measure-population","code":"initial-population","display":"Initial Population"}]},"count":1},{"code":{"coding":[{"system":"http://terminology.hl7.org/CodeSystem/measure-population","code":"denominator","display":"Denominator"}]},"count":1},{"code":{"coding":[{"system":"http://terminology.hl7.org/CodeSystem/measure-population","code":"denominator-exclusion","display":"Denominator Exclusion"}]},"count":0},{"code":{"coding":[{"system":"http://terminology.hl7.org/CodeSystem/measure-population","code":"numerator","display":"Numerator"}]},"count":0}]},{"population":[{"code":{"coding":[{"system":"http://terminology.hl7.org/CodeSystem/measure-population","code":"initial-population","display":"Initial Population"}]},"count":1},{"code":{"coding":[{"system":"http://terminology.hl7.org/CodeSystem/measure-population","code":"denominator","display":"Denominator"}]},"count":1},{"code":{"coding":[{"system":"http://terminology.hl7.org/CodeSystem/measure-population","code":"denominator-exclusion","display":"Denominator Exclusion"}]},"count":0},{"code":{"coding":[{"system":"http://terminology.hl7.org/CodeSystem/measure-population","code":"numerator","display":"Numerator"}]},"count":1}]}]},"request":{"method":"PUT","url":"MeasureReport/15bc0df0-8710-4e13-8d44-c518767a8f31"}}]}