{"resourceType":"Bundle","id":"tests-5e621e43-02f5-4a41-9cc3-048414e67ec6-bundle","type":"transaction","entry":[{"fullUrl":"https://madie.cms.gov/Patient/5e621e43-02f5-4a41-9cc3-048414e67ec6","resource":{"resourceType":"Patient","id":"5e621e43-02f5-4a41-9cc3-048414e67ec6","meta":{"profile":["http://hl7.org/fhir/us/qicore/StructureDefinition/qicore-patient"]},"extension":[{"url":"http://hl7.org/fhir/us/core/StructureDefinition/us-core-race","extension":[{"url":"ombCategory","valueCoding":{"system":"urn:oid:2.16.840.1.113883.6.238","code":"2028-9","display":"Asian"}},{"url":"text","valueString":"Asian"}]},{"url":"http://hl7.org/fhir/us/core/StructureDefinition/us-core-ethnicity","extension":[{"url":"ombCategory","valueCoding":{"system":"urn:oid:2.16.840.1.113883.6.238","code":"2135-2","display":"Hispanic or Latino"}},{"url":"text","valueString":"Hispanic or Latino"}]}],"identifier":[{"system":"http://hospital.smarthealthit.org","value":"999999995"}],"name":[{"family":"Bertha","given":["Betty"]}],"gender":"female","birthDate":"2006-01-01"},"request":{"method":"PUT","url":"Patient/5e621e43-02f5-4a41-9cc3-048414e67ec6"}},{"fullUrl":"https://madie.cms.gov/Encounter/Encounter-32","resource":{"resourceType":"Encounter","id":"b59c23e0-bc79-416e-8423-1fd2990c1a55","meta":{"profile":["http://hl7.org/fhir/us/qicore/StructureDefinition/qicore-encounter"]},"status":"finished","class":{"system":"http://terminology.hl7.org/CodeSystem/v3-ActCode","code":"AMB","display":"ambulatory"},"type":[{"coding":[{"system":"http://snomed.info/sct","code":"281036007","display":"Follow-up consultation (procedure)"}]}],"subject":{"reference":"Patient/5e621e43-02f5-4a41-9cc3-048414e67ec6"},"period":{"start":"2024-11-01T00:00:00.000Z","end":"2024-11-01T01:15:00.000Z"}},"request":{"method":"PUT","url":"Encounter/b59c23e0-bc79-416e-8423-1fd2990c1a55"}},{"fullUrl":"https://madie.cms.gov/Procedure/Procedure-32","resource":{"resourceType":"Procedure","id":"532b562f-d4d6-412c-9cca-f3e2b738023f","meta":{"profile":["http://hl7.org/fhir/us/qicore/StructureDefinition/qicore-procedure"]},"extension":[{"url":"http://hl7.org/fhir/us/qicore/StructureDefinition/qicore-recorded","valueDateTime":"2025-01-15T00:00:00.000Z"}],"status":"completed","code":{"coding":[{"system":"http://www.cms.gov/Medicare/Coding/ICD10","code":"0SR9019","display":"Replacement of Right Hip Joint with Metal Synthetic Substitute, Cemented, Open Approach"}]},"subject":{"reference":"Patient/5e621e43-02f5-4a41-9cc3-048414e67ec6"},"performedPeriod":{"start":"2023-11-01T00:00:00.000Z","end":"2023-11-01T01:00:00.000Z"}},"request":{"method":"PUT","url":"Procedure/532b562f-d4d6-412c-9cca-f3e2b738023f"}},{"fullUrl":"https://madie.cms.gov/ServiceRequest/ServiceRequest-32","resource":{"resourceType":"ServiceRequest","id":"a52a75e6-ebf2-4bd2-ae4e-d1d1a6c0ce6a","meta":{"profile":["http://hl7.org/fhir/us/qicore/StructureDefinition/qicore-servicerequest"]},"status":"draft","intent":"order","category":[{"coding":[{"system":"http://snomed.info/sct","code":"387713003","display":"Surgical procedure"}]}],"priority":"routine","code":{"coding":[{"system":"http://snomed.info/sct","code":"385765002","display":"Hospice care management (procedure)"}]},"subject":{"reference":"Patient/5e621e43-02f5-4a41-9cc3-048414e67ec6"},"authoredOn":"2024-12-31T23:59:00.000Z","performerType":{"coding":[{"system":"http://snomed.info/sct","code":"405279007","display":"Attending physician (occupation)"}]}},"request":{"method":"PUT","url":"ServiceRequest/a52a75e6-ebf2-4bd2-ae4e-d1d1a6c0ce6a"}},{"fullUrl":"https://madie.cms.gov/MeasureReport/db3c54e4-4701-4e05-bd79-5f862607aa04","resource":{"resourceType":"MeasureReport","id":"db3c54e4-4701-4e05-bd79-5f862607aa04","meta":{"profile":["http://hl7.org/fhir/us/cqfmeasures/StructureDefinition/test-case-cqfm"]},"contained":[{"resourceType":"Parameters","id":"cb882e36-993c-4362-af79-69e57bea080c-parameters","parameter":[{"name":"subject","valueString":"5e621e43-02f5-4a41-9cc3-048414e67ec6"}]}],"extension":[{"url":"http://hl7.org/fhir/us/cqfmeasures/StructureDefinition/cqfm-inputParameters","valueReference":{"reference":"#cb882e36-993c-4362-af79-69e57bea080c-parameters"}},{"url":"http://hl7.org/fhir/us/cqfmeasures/StructureDefinition/cqfm-testCaseDescription","valueMarkdown":"Patient has a hospice service request the year prior to the measurement period"}],"modifierExtension":[{"url":"http://hl7.org/fhir/us/cqfmeasures/StructureDefinition/cqfm-isTestCase","valueBoolean":true}],"status":"complete","type":"individual","measure":"https://madie.cms.gov/Measure/FunctionalStatusAssessmentforTotalHipReplacementFHIR","period":{"start":"2025-01-01","end":"2025-12-31"},"group":[{"population":[{"code":{"coding":[{"system":"http://terminology.hl7.org/CodeSystem/measure-population","code":"initial-population","display":"Initial Population"}]},"count":1},{"code":{"coding":[{"system":"http://terminology.hl7.org/CodeSystem/measure-population","code":"denominator","display":"Denominator"}]},"count":1},{"code":{"coding":[{"system":"http://terminology.hl7.org/CodeSystem/measure-population","code":"denominator-exclusion","display":"Denominator Exclusion"}]},"count":0},{"code":{"coding":[{"system":"http://terminology.hl7.org/CodeSystem/measure-population","code":"numerator","display":"Numerator"}]},"count":0}]}]},"request":{"method":"PUT","url":"MeasureReport/db3c54e4-4701-4e05-bd79-5f862607aa04"}}]}