{"resourceType":"Bundle","id":"tests-e1e74089-fc55-45de-8b9c-a03227754390-bundle","type":"transaction","entry":[{"fullUrl":"https://madie.cms.gov/Patient/e1e74089-fc55-45de-8b9c-a03227754390","resource":{"resourceType":"Patient","id":"e1e74089-fc55-45de-8b9c-a03227754390","meta":{"profile":["http://hl7.org/fhir/us/qicore/StructureDefinition/qicore-patient"]},"extension":[{"url":"http://hl7.org/fhir/us/core/StructureDefinition/us-core-race","extension":[{"url":"ombCategory","valueCoding":{"system":"urn:oid:2.16.840.1.113883.6.238","code":"2028-9","display":"Asian"}},{"url":"text","valueString":"Asian"}]},{"url":"http://hl7.org/fhir/us/core/StructureDefinition/us-core-ethnicity","extension":[{"url":"ombCategory","valueCoding":{"system":"urn:oid:2.16.840.1.113883.6.238","code":"2135-2","display":"Hispanic or Latino"}},{"url":"text","valueString":"Hispanic or Latino"}]}],"identifier":[{"system":"http://hospital.smarthealthit.org","value":"999999995"}],"name":[{"family":"Bertha","given":["Betty"]}],"gender":"female","birthDate":"2006-01-01"},"request":{"method":"PUT","url":"Patient/e1e74089-fc55-45de-8b9c-a03227754390"}},{"fullUrl":"https://madie.cms.gov/Procedure/Procedure-42","resource":{"resourceType":"Procedure","id":"2f44e829-83fc-45fe-8ed7-04a41119e1dc","meta":{"profile":["http://hl7.org/fhir/us/qicore/StructureDefinition/qicore-procedure"]},"extension":[{"url":"http://hl7.org/fhir/us/qicore/StructureDefinition/qicore-recorded","valueDateTime":"2023-11-01T00:00:00.000Z"}],"status":"completed","code":{"coding":[{"system":"http://www.cms.gov/Medicare/Coding/ICD10","code":"0SR9019","display":"Replacement of Right Hip Joint with Metal Synthetic Substitute, Cemented, Open Approach"}]},"subject":{"reference":"Patient/e1e74089-fc55-45de-8b9c-a03227754390"},"performedPeriod":{"start":"2023-11-01T00:00:00.000Z","end":"2023-11-01T01:00:00.000Z"}},"request":{"method":"PUT","url":"Procedure/2f44e829-83fc-45fe-8ed7-04a41119e1dc"}},{"fullUrl":"https://madie.cms.gov/Encounter/Encounter-42","resource":{"resourceType":"Encounter","id":"143207ae-7f37-468c-a69a-228da0cfe807","meta":{"profile":["http://hl7.org/fhir/us/qicore/StructureDefinition/qicore-encounter"]},"status":"finished","class":{"system":"http://terminology.hl7.org/CodeSystem/v3-ActCode","code":"AMB","display":"ambulatory"},"type":[{"coding":[{"system":"http://snomed.info/sct","code":"281036007","display":"Follow-up consultation (procedure)"}]}],"subject":{"reference":"Patient/e1e74089-fc55-45de-8b9c-a03227754390"},"period":{"start":"2024-11-01T00:00:00.000Z","end":"2024-11-01T01:15:00.000Z"}},"request":{"method":"PUT","url":"Encounter/143207ae-7f37-468c-a69a-228da0cfe807"}},{"fullUrl":"https://madie.cms.gov/Observation/Observation-42.1-1","resource":{"resourceType":"Observation","id":"fbbdde86-ae34-4f04-9743-16dafaae2c0d","meta":{"profile":["http://hl7.org/fhir/us/qicore/StructureDefinition/qicore-observation"]},"status":"final","category":[{"coding":[{"system":"http://terminology.hl7.org/CodeSystem/observation-category","code":"survey"}]}],"code":{"coding":[{"system":"http://loinc.org","code":"72026-8","display":"VR-12 Mental component summary (MCS) score - oblique method T-score"}]},"subject":{"reference":"Patient/e1e74089-fc55-45de-8b9c-a03227754390"},"effectivePeriod":{"start":"2023-08-03T00:00:00.000Z","end":"2023-08-03T01:00:00.000Z"},"valueInteger":60},"request":{"method":"PUT","url":"Observation/fbbdde86-ae34-4f04-9743-16dafaae2c0d"}},{"fullUrl":"https://madie.cms.gov/Observation/Observation-42.1-2","resource":{"resourceType":"Observation","id":"eebc2f40-62b2-4cd2-ad09-14da22575095","meta":{"profile":["http://hl7.org/fhir/us/qicore/StructureDefinition/qicore-observation"]},"status":"final","category":[{"coding":[{"system":"http://terminology.hl7.org/CodeSystem/observation-category","code":"survey"}]}],"code":{"coding":[{"system":"http://loinc.org","code":"72025-0","display":"VR-12 Physical component summary (PCS) score - oblique method T-score"}]},"subject":{"reference":"Patient/e1e74089-fc55-45de-8b9c-a03227754390"},"effectivePeriod":{"start":"2023-08-03T00:00:00.000Z","end":"2023-08-03T01:00:00.000Z"},"valueInteger":60},"request":{"method":"PUT","url":"Observation/eebc2f40-62b2-4cd2-ad09-14da22575095"}},{"fullUrl":"https://madie.cms.gov/Observation/Observation-42.2-1","resource":{"resourceType":"Observation","id":"e9cbcda5-eac2-4cb8-b6c3-f6d82a73ca0a","meta":{"profile":["http://hl7.org/fhir/us/qicore/StructureDefinition/qicore-observation"]},"status":"final","category":[{"coding":[{"system":"http://terminology.hl7.org/CodeSystem/observation-category","code":"survey"}]}],"code":{"coding":[{"system":"http://loinc.org","code":"72026-8","display":"VR-12 Mental component summary (MCS) score - oblique method T-score"}]},"subject":{"reference":"Patient/e1e74089-fc55-45de-8b9c-a03227754390"},"effectivePeriod":{"start":"2024-12-30T00:00:00.000Z","end":"2024-12-30T01:00:00.000Z"},"valueInteger":60},"request":{"method":"PUT","url":"Observation/e9cbcda5-eac2-4cb8-b6c3-f6d82a73ca0a"}},{"fullUrl":"https://madie.cms.gov/Observation/Observation-42.2-2","resource":{"resourceType":"Observation","id":"0065e8d6-a1c5-43e9-9f9b-c67d4650bdf8","meta":{"profile":["http://hl7.org/fhir/us/qicore/StructureDefinition/qicore-observation"]},"status":"final","category":[{"coding":[{"system":"http://terminology.hl7.org/CodeSystem/observation-category","code":"survey"}]}],"code":{"coding":[{"system":"http://loinc.org","code":"72025-0","display":"VR-12 Physical component summary (PCS) score - oblique method T-score"}]},"subject":{"reference":"Patient/e1e74089-fc55-45de-8b9c-a03227754390"},"effectivePeriod":{"start":"2024-12-30T00:00:00.000Z","end":"2024-12-30T01:00:00.000Z"},"valueInteger":60},"request":{"method":"PUT","url":"Observation/0065e8d6-a1c5-43e9-9f9b-c67d4650bdf8"}},{"fullUrl":"https://madie.cms.gov/MeasureReport/c46566f5-cd44-4a4e-9e1b-eb4c40c77292","resource":{"resourceType":"MeasureReport","id":"c46566f5-cd44-4a4e-9e1b-eb4c40c77292","meta":{"profile":["http://hl7.org/fhir/us/cqfmeasures/StructureDefinition/test-case-cqfm"]},"contained":[{"resourceType":"Parameters","id":"47a86e48-08d0-4f23-b032-dba7349b98ca-parameters","parameter":[{"name":"subject","valueString":"e1e74089-fc55-45de-8b9c-a03227754390"}]}],"extension":[{"url":"http://hl7.org/fhir/us/cqfmeasures/StructureDefinition/cqfm-inputParameters","valueReference":{"reference":"#47a86e48-08d0-4f23-b032-dba7349b98ca-parameters"}},{"url":"http://hl7.org/fhir/us/cqfmeasures/StructureDefinition/cqfm-testCaseDescription","valueMarkdown":"Patient w/ a THA Procedure 11/1, Initial Hip Assessment Oblique 90 days before THA Procedure(8/3), and FollowUp Hip Assessment Oblique 425 days after THA Procedure (12/30)"}],"modifierExtension":[{"url":"http://hl7.org/fhir/us/cqfmeasures/StructureDefinition/cqfm-isTestCase","valueBoolean":true}],"status":"complete","type":"individual","measure":"https://madie.cms.gov/Measure/FunctionalStatusAssessmentforTotalHipReplacementFHIR","period":{"start":"2025-01-01","end":"2025-12-31"},"group":[{"population":[{"code":{"coding":[{"system":"http://terminology.hl7.org/CodeSystem/measure-population","code":"initial-population","display":"Initial Population"}]},"count":1},{"code":{"coding":[{"system":"http://terminology.hl7.org/CodeSystem/measure-population","code":"denominator","display":"Denominator"}]},"count":1},{"code":{"coding":[{"system":"http://terminology.hl7.org/CodeSystem/measure-population","code":"denominator-exclusion","display":"Denominator Exclusion"}]},"count":0},{"code":{"coding":[{"system":"http://terminology.hl7.org/CodeSystem/measure-population","code":"numerator","display":"Numerator"}]},"count":1}]}]},"request":{"method":"PUT","url":"MeasureReport/c46566f5-cd44-4a4e-9e1b-eb4c40c77292"}}]}