{"resourceType":"Bundle","id":"tests-99ce6fa9-4214-4859-9f73-b1da82212b92-bundle","type":"transaction","entry":[{"fullUrl":"https://madie.cms.gov/Patient/99ce6fa9-4214-4859-9f73-b1da82212b92","resource":{"resourceType":"Patient","id":"99ce6fa9-4214-4859-9f73-b1da82212b92","meta":{"profile":["http://hl7.org/fhir/us/qicore/StructureDefinition/qicore-patient"]},"extension":[{"url":"http://hl7.org/fhir/us/core/StructureDefinition/us-core-race","extension":[{"url":"ombCategory","valueCoding":{"system":"urn:oid:2.16.840.1.113883.6.238","code":"2028-9","display":"Asian"}},{"url":"text","valueString":"Asian"}]},{"url":"http://hl7.org/fhir/us/core/StructureDefinition/us-core-ethnicity","extension":[{"url":"ombCategory","valueCoding":{"system":"urn:oid:2.16.840.1.113883.6.238","code":"2135-2","display":"Hispanic or Latino"}},{"url":"text","valueString":"Hispanic or Latino"}]}],"identifier":[{"system":"http://hospital.smarthealthit.org","value":"999999995"}],"name":[{"family":"Bertha","given":["Betty"]}],"gender":"female","birthDate":"2006-01-01"},"request":{"method":"PUT","url":"Patient/99ce6fa9-4214-4859-9f73-b1da82212b92"}},{"fullUrl":"https://madie.cms.gov/Procedure/Procedure-16","resource":{"resourceType":"Procedure","id":"71db5e59-1361-4218-8a68-104d249a2695","meta":{"profile":["http://hl7.org/fhir/us/qicore/StructureDefinition/qicore-procedure"]},"extension":[{"url":"http://hl7.org/fhir/us/qicore/StructureDefinition/qicore-recorded","valueDateTime":"2025-11-01T00:00:00.000Z"}],"status":"completed","code":{"coding":[{"system":"http://www.cms.gov/Medicare/Coding/ICD10","code":"0SR9019","display":"Replacement of Right Hip Joint with Metal Synthetic Substitute, Cemented, Open Approach"}]},"subject":{"reference":"Patient/99ce6fa9-4214-4859-9f73-b1da82212b92"},"performedPeriod":{"start":"2023-11-01T00:00:00.000Z","end":"2023-11-01T01:00:00.000Z"}},"request":{"method":"PUT","url":"Procedure/71db5e59-1361-4218-8a68-104d249a2695"}},{"fullUrl":"https://madie.cms.gov/Encounter/Encounter-16","resource":{"resourceType":"Encounter","id":"63957776-2a00-45ee-86b4-fbaf369cf65c","meta":{"profile":["http://hl7.org/fhir/us/qicore/StructureDefinition/qicore-encounter"]},"status":"finished","class":{"system":"http://terminology.hl7.org/CodeSystem/v3-ActCode","code":"AMB","display":"ambulatory"},"type":[{"coding":[{"system":"http://snomed.info/sct","code":"281036007","display":"Follow-up consultation (procedure)"}]}],"subject":{"reference":"Patient/99ce6fa9-4214-4859-9f73-b1da82212b92"},"period":{"start":"2024-11-01T00:00:00.000Z","end":"2024-11-01T01:15:00.000Z"}},"request":{"method":"PUT","url":"Encounter/63957776-2a00-45ee-86b4-fbaf369cf65c"}},{"fullUrl":"https://madie.cms.gov/Procedure/Procedure-16.1","resource":{"resourceType":"Procedure","id":"c6dd2576-3f55-42b0-b089-b72be3e3e6e6","meta":{"profile":["http://hl7.org/fhir/us/qicore/StructureDefinition/qicore-procedure"]},"extension":[{"url":"http://hl7.org/fhir/us/qicore/StructureDefinition/qicore-recorded","valueDateTime":"2023-11-01T00:00:00.000Z"}],"status":"completed","code":{"coding":[{"system":"http://www.cms.gov/Medicare/Coding/ICD10","code":"0SRA009","display":"Replacement of Right Hip Joint, Acetabular Surface with Polyethylene Synthetic Substitute, Cemented, Open Approach"}]},"subject":{"reference":"Patient/99ce6fa9-4214-4859-9f73-b1da82212b92"},"performedPeriod":{"start":"2023-10-31T00:00:00.000Z","end":"2023-10-31T11:59:59.000Z"}},"request":{"method":"PUT","url":"Procedure/c6dd2576-3f55-42b0-b089-b72be3e3e6e6"}},{"fullUrl":"https://madie.cms.gov/MeasureReport/20f81199-71b6-48e0-b399-47a006cd76e0","resource":{"resourceType":"MeasureReport","id":"20f81199-71b6-48e0-b399-47a006cd76e0","meta":{"profile":["http://hl7.org/fhir/us/cqfmeasures/StructureDefinition/test-case-cqfm"]},"contained":[{"resourceType":"Parameters","id":"7f9b9078-88d3-4c57-8cfc-1042e36230d5-parameters","parameter":[{"name":"subject","valueString":"99ce6fa9-4214-4859-9f73-b1da82212b92"}]}],"extension":[{"url":"http://hl7.org/fhir/us/cqfmeasures/StructureDefinition/cqfm-inputParameters","valueReference":{"reference":"#7f9b9078-88d3-4c57-8cfc-1042e36230d5-parameters"}},{"url":"http://hl7.org/fhir/us/cqfmeasures/StructureDefinition/cqfm-testCaseDescription","valueMarkdown":"Patient Has Partial Hip Arthroplasty Procedure on a different day than THAProcedure"}],"modifierExtension":[{"url":"http://hl7.org/fhir/us/cqfmeasures/StructureDefinition/cqfm-isTestCase","valueBoolean":true}],"status":"complete","type":"individual","measure":"https://madie.cms.gov/Measure/FunctionalStatusAssessmentforTotalHipReplacementFHIR","period":{"start":"2025-01-01","end":"2025-12-31"},"group":[{"population":[{"code":{"coding":[{"system":"http://terminology.hl7.org/CodeSystem/measure-population","code":"initial-population","display":"Initial Population"}]},"count":1},{"code":{"coding":[{"system":"http://terminology.hl7.org/CodeSystem/measure-population","code":"denominator","display":"Denominator"}]},"count":1},{"code":{"coding":[{"system":"http://terminology.hl7.org/CodeSystem/measure-population","code":"denominator-exclusion","display":"Denominator Exclusion"}]},"count":0},{"code":{"coding":[{"system":"http://terminology.hl7.org/CodeSystem/measure-population","code":"numerator","display":"Numerator"}]},"count":0}]}]},"request":{"method":"PUT","url":"MeasureReport/20f81199-71b6-48e0-b399-47a006cd76e0"}}]}