{"resourceType":"Bundle","id":"tests-8846c820-cea6-4c64-b03b-7bbbe6e26954-bundle","type":"transaction","entry":[{"fullUrl":"https://madie.cms.gov/Patient/8846c820-cea6-4c64-b03b-7bbbe6e26954","resource":{"resourceType":"Patient","id":"8846c820-cea6-4c64-b03b-7bbbe6e26954","meta":{"profile":["http://hl7.org/fhir/us/qicore/StructureDefinition/qicore-patient"]},"extension":[{"url":"http://hl7.org/fhir/us/core/StructureDefinition/us-core-race","extension":[{"url":"ombCategory","valueCoding":{"system":"urn:oid:2.16.840.1.113883.6.238","code":"2028-9","display":"Asian"}},{"url":"text","valueString":"Asian"}]},{"url":"http://hl7.org/fhir/us/core/StructureDefinition/us-core-ethnicity","extension":[{"url":"ombCategory","valueCoding":{"system":"urn:oid:2.16.840.1.113883.6.238","code":"2135-2","display":"Hispanic or Latino"}},{"url":"text","valueString":"Hispanic or Latino"}]}],"identifier":[{"system":"http://hospital.smarthealthit.org","value":"999999995"}],"name":[{"family":"Bertha","given":["Betty"]}],"gender":"female","birthDate":"2006-01-01"},"request":{"method":"PUT","url":"Patient/8846c820-cea6-4c64-b03b-7bbbe6e26954"}},{"fullUrl":"https://madie.cms.gov/Procedure/Procedure-24","resource":{"resourceType":"Procedure","id":"387d6b2f-ee59-4e63-982b-50f1327c5788","meta":{"profile":["http://hl7.org/fhir/us/qicore/StructureDefinition/qicore-procedure"]},"extension":[{"url":"http://hl7.org/fhir/us/qicore/StructureDefinition/qicore-recorded","valueDateTime":"2025-11-01T00:00:00.000Z"}],"status":"completed","code":{"coding":[{"system":"http://www.cms.gov/Medicare/Coding/ICD10","code":"0SR9019","display":"Replacement of Right Hip Joint with Metal Synthetic Substitute, Cemented, Open Approach"}]},"subject":{"reference":"Patient/8846c820-cea6-4c64-b03b-7bbbe6e26954"},"performedPeriod":{"start":"2023-11-01T00:00:00.000Z","end":"2023-11-01T01:00:00.000Z"}},"request":{"method":"PUT","url":"Procedure/387d6b2f-ee59-4e63-982b-50f1327c5788"}},{"fullUrl":"https://madie.cms.gov/Encounter/Encounter-24","resource":{"resourceType":"Encounter","id":"827c6ab0-d940-46d8-ac89-c22b8be04905","meta":{"profile":["http://hl7.org/fhir/us/qicore/StructureDefinition/qicore-encounter"]},"status":"finished","class":{"system":"http://terminology.hl7.org/CodeSystem/v3-ActCode","code":"AMB","display":"ambulatory"},"type":[{"coding":[{"system":"http://snomed.info/sct","code":"281036007","display":"Follow-up consultation (procedure)"}]}],"subject":{"reference":"Patient/8846c820-cea6-4c64-b03b-7bbbe6e26954"},"period":{"start":"2024-11-01T00:00:00.000Z","end":"2024-11-01T01:15:00.000Z"}},"request":{"method":"PUT","url":"Encounter/827c6ab0-d940-46d8-ac89-c22b8be04905"}},{"fullUrl":"https://madie.cms.gov/Procedure/Procedure-24.1","resource":{"resourceType":"Procedure","id":"7a240911-c62c-4de2-8273-9ee6cd2bc893","meta":{"profile":["http://hl7.org/fhir/us/qicore/StructureDefinition/qicore-procedure"]},"extension":[{"url":"http://hl7.org/fhir/us/qicore/StructureDefinition/qicore-recorded","valueDateTime":"2023-11-01T00:00:00.000Z"}],"status":"completed","code":{"coding":[{"system":"http://www.cms.gov/Medicare/Coding/ICD10","code":"0SRB019","display":"Replacement of Left Hip Joint with Metal Synthetic Substitute, Cemented, Open Approach"}]},"subject":{"reference":"Patient/8846c820-cea6-4c64-b03b-7bbbe6e26954"},"performedPeriod":{"start":"2022-10-31T00:00:00.000Z","end":"2022-10-31T11:59:59.000Z"}},"request":{"method":"PUT","url":"Procedure/7a240911-c62c-4de2-8273-9ee6cd2bc893"}},{"fullUrl":"https://madie.cms.gov/MeasureReport/a7980496-f0c2-4a07-91f0-cdc59c4630ea","resource":{"resourceType":"MeasureReport","id":"a7980496-f0c2-4a07-91f0-cdc59c4630ea","meta":{"profile":["http://hl7.org/fhir/us/cqfmeasures/StructureDefinition/test-case-cqfm"]},"contained":[{"resourceType":"Parameters","id":"ed494cb4-e391-4e19-a12f-202977aaff3c-parameters","parameter":[{"name":"subject","valueString":"8846c820-cea6-4c64-b03b-7bbbe6e26954"}]}],"extension":[{"url":"http://hl7.org/fhir/us/cqfmeasures/StructureDefinition/cqfm-inputParameters","valueReference":{"reference":"#ed494cb4-e391-4e19-a12f-202977aaff3c-parameters"}},{"url":"http://hl7.org/fhir/us/cqfmeasures/StructureDefinition/cqfm-testCaseDescription","valueMarkdown":"Patient Has Elective THAProcedure 1 year and 1 day before Initial THAProcedure"}],"modifierExtension":[{"url":"http://hl7.org/fhir/us/cqfmeasures/StructureDefinition/cqfm-isTestCase","valueBoolean":true}],"status":"complete","type":"individual","measure":"https://madie.cms.gov/Measure/FunctionalStatusAssessmentforTotalHipReplacementFHIR","period":{"start":"2025-01-01","end":"2025-12-31"},"group":[{"population":[{"code":{"coding":[{"system":"http://terminology.hl7.org/CodeSystem/measure-population","code":"initial-population","display":"Initial Population"}]},"count":1},{"code":{"coding":[{"system":"http://terminology.hl7.org/CodeSystem/measure-population","code":"denominator","display":"Denominator"}]},"count":1},{"code":{"coding":[{"system":"http://terminology.hl7.org/CodeSystem/measure-population","code":"denominator-exclusion","display":"Denominator Exclusion"}]},"count":0},{"code":{"coding":[{"system":"http://terminology.hl7.org/CodeSystem/measure-population","code":"numerator","display":"Numerator"}]},"count":0}]}]},"request":{"method":"PUT","url":"MeasureReport/a7980496-f0c2-4a07-91f0-cdc59c4630ea"}}]}