{"resourceType":"Bundle","id":"tests-e431bac0-47d3-4917-84ab-144869665b2a-bundle","type":"transaction","entry":[{"fullUrl":"https://madie.cms.gov/Patient/e431bac0-47d3-4917-84ab-144869665b2a","resource":{"resourceType":"Patient","id":"e431bac0-47d3-4917-84ab-144869665b2a","meta":{"profile":["http://hl7.org/fhir/us/qicore/StructureDefinition/qicore-patient"]},"extension":[{"url":"http://hl7.org/fhir/us/core/StructureDefinition/us-core-race","extension":[{"url":"ombCategory","valueCoding":{"system":"urn:oid:2.16.840.1.113883.6.238","code":"2028-9","display":"Asian"}},{"url":"text","valueString":"Asian"}]},{"url":"http://hl7.org/fhir/us/core/StructureDefinition/us-core-ethnicity","extension":[{"url":"ombCategory","valueCoding":{"system":"urn:oid:2.16.840.1.113883.6.238","code":"2135-2","display":"Hispanic or Latino"}},{"url":"text","valueString":"Hispanic or Latino"}]}],"identifier":[{"system":"http://hospital.smarthealthit.org","value":"999999995"}],"name":[{"family":"Bertha","given":["Betty"]}],"gender":"female","birthDate":"2006-01-01"},"request":{"method":"PUT","url":"Patient/e431bac0-47d3-4917-84ab-144869665b2a"}},{"fullUrl":"https://madie.cms.gov/Procedure/Procedure-25","resource":{"resourceType":"Procedure","id":"d4f7c8bb-ffce-4c7e-b220-ee2e99072212","meta":{"profile":["http://hl7.org/fhir/us/qicore/StructureDefinition/qicore-procedure"]},"extension":[{"url":"http://hl7.org/fhir/us/qicore/StructureDefinition/qicore-recorded","valueDateTime":"2025-11-01T00:00:00.000Z"}],"status":"completed","code":{"coding":[{"system":"http://www.cms.gov/Medicare/Coding/ICD10","code":"0SR9019","display":"Replacement of Right Hip Joint with Metal Synthetic Substitute, Cemented, Open Approach"}]},"subject":{"reference":"Patient/e431bac0-47d3-4917-84ab-144869665b2a"},"performedPeriod":{"start":"2023-11-01T00:00:00.000Z","end":"2023-11-01T01:00:00.000Z"}},"request":{"method":"PUT","url":"Procedure/d4f7c8bb-ffce-4c7e-b220-ee2e99072212"}},{"fullUrl":"https://madie.cms.gov/Encounter/Encounter-25","resource":{"resourceType":"Encounter","id":"0325d776-1ce4-4f97-bb77-e6af9d81da25","meta":{"profile":["http://hl7.org/fhir/us/qicore/StructureDefinition/qicore-encounter"]},"status":"finished","class":{"system":"http://terminology.hl7.org/CodeSystem/v3-ActCode","code":"AMB","display":"ambulatory"},"type":[{"coding":[{"system":"http://snomed.info/sct","code":"281036007","display":"Follow-up consultation (procedure)"}]}],"subject":{"reference":"Patient/e431bac0-47d3-4917-84ab-144869665b2a"},"period":{"start":"2024-11-01T00:00:00.000Z","end":"2024-11-01T01:15:00.000Z"}},"request":{"method":"PUT","url":"Encounter/0325d776-1ce4-4f97-bb77-e6af9d81da25"}},{"fullUrl":"https://madie.cms.gov/Procedure/Procedure-25.1","resource":{"resourceType":"Procedure","id":"daa096aa-07e9-40ef-b113-d85a26d8eb6e","meta":{"profile":["http://hl7.org/fhir/us/qicore/StructureDefinition/qicore-procedure"]},"extension":[{"url":"http://hl7.org/fhir/us/qicore/StructureDefinition/qicore-recorded","valueDateTime":"2023-11-01T00:00:00.000Z"}],"status":"completed","code":{"coding":[{"system":"http://www.cms.gov/Medicare/Coding/ICD10","code":"0SRB019","display":"Replacement of Left Hip Joint with Metal Synthetic Substitute, Cemented, Open Approach"}]},"subject":{"reference":"Patient/e431bac0-47d3-4917-84ab-144869665b2a"},"performedPeriod":{"start":"2022-11-01T00:00:00.000Z","end":"2022-11-01T01:00:00.000Z"}},"request":{"method":"PUT","url":"Procedure/daa096aa-07e9-40ef-b113-d85a26d8eb6e"}},{"fullUrl":"https://madie.cms.gov/MeasureReport/de4c4817-e5f4-4ce4-bc80-8a18da5aecdc","resource":{"resourceType":"MeasureReport","id":"de4c4817-e5f4-4ce4-bc80-8a18da5aecdc","meta":{"profile":["http://hl7.org/fhir/us/cqfmeasures/StructureDefinition/test-case-cqfm"]},"contained":[{"resourceType":"Parameters","id":"e09de921-9746-4f15-9cb3-8e3c222f8fd6-parameters","parameter":[{"name":"subject","valueString":"e431bac0-47d3-4917-84ab-144869665b2a"}]}],"extension":[{"url":"http://hl7.org/fhir/us/cqfmeasures/StructureDefinition/cqfm-inputParameters","valueReference":{"reference":"#e09de921-9746-4f15-9cb3-8e3c222f8fd6-parameters"}},{"url":"http://hl7.org/fhir/us/cqfmeasures/StructureDefinition/cqfm-testCaseDescription","valueMarkdown":"Patient Has Elective THAProcedure 1 year after Initial THAProcedure"}],"modifierExtension":[{"url":"http://hl7.org/fhir/us/cqfmeasures/StructureDefinition/cqfm-isTestCase","valueBoolean":true}],"status":"complete","type":"individual","measure":"https://madie.cms.gov/Measure/FunctionalStatusAssessmentforTotalHipReplacementFHIR","period":{"start":"2025-01-01","end":"2025-12-31"},"group":[{"population":[{"code":{"coding":[{"system":"http://terminology.hl7.org/CodeSystem/measure-population","code":"initial-population","display":"Initial Population"}]},"count":1},{"code":{"coding":[{"system":"http://terminology.hl7.org/CodeSystem/measure-population","code":"denominator","display":"Denominator"}]},"count":1},{"code":{"coding":[{"system":"http://terminology.hl7.org/CodeSystem/measure-population","code":"denominator-exclusion","display":"Denominator Exclusion"}]},"count":1},{"code":{"coding":[{"system":"http://terminology.hl7.org/CodeSystem/measure-population","code":"numerator","display":"Numerator"}]},"count":0}]}]},"request":{"method":"PUT","url":"MeasureReport/de4c4817-e5f4-4ce4-bc80-8a18da5aecdc"}}]}