{"resourceType":"Bundle","id":"tests-88c3c931-7633-43fe-84f8-e16b4b8fb3d0-bundle","type":"transaction","entry":[{"fullUrl":"https://madie.cms.gov/Patient/88c3c931-7633-43fe-84f8-e16b4b8fb3d0","resource":{"resourceType":"Patient","id":"88c3c931-7633-43fe-84f8-e16b4b8fb3d0","meta":{"profile":["http://hl7.org/fhir/us/qicore/StructureDefinition/qicore-patient"]},"extension":[{"url":"http://hl7.org/fhir/us/core/StructureDefinition/us-core-race","extension":[{"url":"ombCategory","valueCoding":{"system":"urn:oid:2.16.840.1.113883.6.238","code":"2028-9","display":"Asian"}},{"url":"text","valueString":"Asian"}]},{"url":"http://hl7.org/fhir/us/core/StructureDefinition/us-core-ethnicity","extension":[{"url":"ombCategory","valueCoding":{"system":"urn:oid:2.16.840.1.113883.6.238","code":"2135-2","display":"Hispanic or Latino"}},{"url":"text","valueString":"Hispanic or Latino"}]}],"identifier":[{"system":"http://hospital.smarthealthit.org","value":"999999995"}],"name":[{"family":"Bertha","given":["Betty"]}],"gender":"female","birthDate":"2006-01-01"},"request":{"method":"PUT","url":"Patient/88c3c931-7633-43fe-84f8-e16b4b8fb3d0"}},{"fullUrl":"https://madie.cms.gov/Procedure/Procedure-43","resource":{"resourceType":"Procedure","id":"2f3cb51a-51e8-46c7-aa61-ab0e927d087a","meta":{"profile":["http://hl7.org/fhir/us/qicore/StructureDefinition/qicore-procedure"]},"extension":[{"url":"http://hl7.org/fhir/us/qicore/StructureDefinition/qicore-recorded","valueDateTime":"2023-11-01T00:00:00.000Z"}],"status":"completed","code":{"coding":[{"system":"http://www.cms.gov/Medicare/Coding/ICD10","code":"0SR9019","display":"Replacement of Right Hip Joint with Metal Synthetic Substitute, Cemented, Open Approach"}]},"subject":{"reference":"Patient/88c3c931-7633-43fe-84f8-e16b4b8fb3d0"},"performedPeriod":{"start":"2023-11-01T00:00:00.000Z","end":"2023-11-01T01:00:00.000Z"}},"request":{"method":"PUT","url":"Procedure/2f3cb51a-51e8-46c7-aa61-ab0e927d087a"}},{"fullUrl":"https://madie.cms.gov/Encounter/Encounter-43","resource":{"resourceType":"Encounter","id":"609e73f2-c692-4245-9c3b-de99e998d767","meta":{"profile":["http://hl7.org/fhir/us/qicore/StructureDefinition/qicore-encounter"]},"status":"finished","class":{"system":"http://terminology.hl7.org/CodeSystem/v3-ActCode","code":"AMB","display":"ambulatory"},"type":[{"coding":[{"system":"http://snomed.info/sct","code":"281036007","display":"Follow-up consultation (procedure)"}]}],"subject":{"reference":"Patient/88c3c931-7633-43fe-84f8-e16b4b8fb3d0"},"period":{"start":"2024-11-01T00:00:00.000Z","end":"2024-11-01T01:15:00.000Z"}},"request":{"method":"PUT","url":"Encounter/609e73f2-c692-4245-9c3b-de99e998d767"}},{"fullUrl":"https://madie.cms.gov/Observation/Observation-43.1-1","resource":{"resourceType":"Observation","id":"9d32345e-10f8-4466-921a-eab0752db379","meta":{"profile":["http://hl7.org/fhir/us/qicore/StructureDefinition/qicore-observation"]},"status":"final","category":[{"coding":[{"system":"http://terminology.hl7.org/CodeSystem/observation-category","code":"survey"}]}],"code":{"coding":[{"system":"http://loinc.org","code":"72028-4","display":"VR-12 Mental component summary (MCS) score - oblique method T-score"}]},"subject":{"reference":"Patient/88c3c931-7633-43fe-84f8-e16b4b8fb3d0"},"effectivePeriod":{"start":"2023-11-01T00:00:00.000Z","end":"2023-11-01T01:00:00.000Z"},"valueInteger":60},"request":{"method":"PUT","url":"Observation/9d32345e-10f8-4466-921a-eab0752db379"}},{"fullUrl":"https://madie.cms.gov/Observation/Observation-43.1-2","resource":{"resourceType":"Observation","id":"dc6a7e8d-add1-48a9-803c-d930d44a2e0e","meta":{"profile":["http://hl7.org/fhir/us/qicore/StructureDefinition/qicore-observation"]},"status":"final","category":[{"coding":[{"system":"http://terminology.hl7.org/CodeSystem/observation-category","code":"survey"}]}],"code":{"coding":[{"system":"http://loinc.org","code":"72027-6","display":"VR-12 Physical component summary (PCS) score - orthogonal method T-score"}]},"subject":{"reference":"Patient/88c3c931-7633-43fe-84f8-e16b4b8fb3d0"},"effectivePeriod":{"start":"2023-11-01T00:00:00.000Z","end":"2023-11-01T01:00:00.000Z"},"valueInteger":60},"request":{"method":"PUT","url":"Observation/dc6a7e8d-add1-48a9-803c-d930d44a2e0e"}},{"fullUrl":"https://madie.cms.gov/Observation/Observation-43.2-1","resource":{"resourceType":"Observation","id":"29971afe-8035-4fa3-8697-ebf5c91205fa","meta":{"profile":["http://hl7.org/fhir/us/qicore/StructureDefinition/qicore-observation"]},"status":"final","category":[{"coding":[{"system":"http://terminology.hl7.org/CodeSystem/observation-category","code":"survey"}]}],"code":{"coding":[{"system":"http://loinc.org","code":"72028-4","display":"VR-12 Mental component summary (MCS) score - oblique method T-score"}]},"subject":{"reference":"Patient/88c3c931-7633-43fe-84f8-e16b4b8fb3d0"},"effectivePeriod":{"start":"2024-08-27T00:00:00.000Z","end":"2024-08-27T01:00:00.000Z"},"valueInteger":60},"request":{"method":"PUT","url":"Observation/29971afe-8035-4fa3-8697-ebf5c91205fa"}},{"fullUrl":"https://madie.cms.gov/Observation/Observation-43.2-2","resource":{"resourceType":"Observation","id":"c73bab8c-3a92-4860-ada3-2dc211f76b8c","meta":{"profile":["http://hl7.org/fhir/us/qicore/StructureDefinition/qicore-observation"]},"status":"final","category":[{"coding":[{"system":"http://terminology.hl7.org/CodeSystem/observation-category","code":"survey"}]}],"code":{"coding":[{"system":"http://loinc.org","code":"72027-6","display":"VR-12 Physical component summary (PCS) score - orthogonal method T-score"}]},"subject":{"reference":"Patient/88c3c931-7633-43fe-84f8-e16b4b8fb3d0"},"effectivePeriod":{"start":"2024-08-27T00:00:00.000Z","end":"2024-08-27T01:00:00.000Z"},"valueInteger":60},"request":{"method":"PUT","url":"Observation/c73bab8c-3a92-4860-ada3-2dc211f76b8c"}},{"fullUrl":"https://madie.cms.gov/MeasureReport/c7aa9cc6-9d9a-4f45-a780-1c8daaed072f","resource":{"resourceType":"MeasureReport","id":"c7aa9cc6-9d9a-4f45-a780-1c8daaed072f","meta":{"profile":["http://hl7.org/fhir/us/cqfmeasures/StructureDefinition/test-case-cqfm"]},"contained":[{"resourceType":"Parameters","id":"4594a6be-eb7f-45b6-ae9a-6ab608f3e66d-parameters","parameter":[{"name":"subject","valueString":"88c3c931-7633-43fe-84f8-e16b4b8fb3d0"}]}],"extension":[{"url":"http://hl7.org/fhir/us/cqfmeasures/StructureDefinition/cqfm-inputParameters","valueReference":{"reference":"#4594a6be-eb7f-45b6-ae9a-6ab608f3e66d-parameters"}},{"url":"http://hl7.org/fhir/us/cqfmeasures/StructureDefinition/cqfm-testCaseDescription","valueMarkdown":"Patient w/ a THA Procedure 11/1, Initial Hip Assessment Orthogonal Same day as THA Procedure(11/1), and FollowUp Hip Assessment Orthogonal 300 days after THA Procedure (8/27)"}],"modifierExtension":[{"url":"http://hl7.org/fhir/us/cqfmeasures/StructureDefinition/cqfm-isTestCase","valueBoolean":true}],"status":"complete","type":"individual","measure":"https://madie.cms.gov/Measure/FunctionalStatusAssessmentforTotalHipReplacementFHIR","period":{"start":"2025-01-01","end":"2025-12-31"},"group":[{"population":[{"code":{"coding":[{"system":"http://terminology.hl7.org/CodeSystem/measure-population","code":"initial-population","display":"Initial Population"}]},"count":1},{"code":{"coding":[{"system":"http://terminology.hl7.org/CodeSystem/measure-population","code":"denominator","display":"Denominator"}]},"count":1},{"code":{"coding":[{"system":"http://terminology.hl7.org/CodeSystem/measure-population","code":"denominator-exclusion","display":"Denominator Exclusion"}]},"count":0},{"code":{"coding":[{"system":"http://terminology.hl7.org/CodeSystem/measure-population","code":"numerator","display":"Numerator"}]},"count":1}]}]},"request":{"method":"PUT","url":"MeasureReport/c7aa9cc6-9d9a-4f45-a780-1c8daaed072f"}}]}