{"resourceType":"Bundle","id":"tests-27d11a07-2d6b-42e5-a649-cd5ccc1584a0-bundle","type":"transaction","entry":[{"fullUrl":"https://madie.cms.gov/Patient/27d11a07-2d6b-42e5-a649-cd5ccc1584a0","resource":{"resourceType":"Patient","id":"27d11a07-2d6b-42e5-a649-cd5ccc1584a0","meta":{"profile":["http://hl7.org/fhir/us/qicore/StructureDefinition/qicore-patient"]},"extension":[{"url":"http://hl7.org/fhir/us/core/StructureDefinition/us-core-race","extension":[{"url":"ombCategory","valueCoding":{"system":"urn:oid:2.16.840.1.113883.6.238","code":"2028-9","display":"Asian"}},{"url":"text","valueString":"Asian"}]},{"url":"http://hl7.org/fhir/us/core/StructureDefinition/us-core-ethnicity","extension":[{"url":"ombCategory","valueCoding":{"system":"urn:oid:2.16.840.1.113883.6.238","code":"2135-2","display":"Hispanic or Latino"}},{"url":"text","valueString":"Hispanic or Latino"}]}],"identifier":[{"system":"http://hospital.smarthealthit.org","value":"999999995"}],"name":[{"family":"Bertha","given":["Betty"]}],"gender":"female","birthDate":"2006-01-01"},"request":{"method":"PUT","url":"Patient/27d11a07-2d6b-42e5-a649-cd5ccc1584a0"}},{"fullUrl":"https://madie.cms.gov/Procedure/Procedure-4","resource":{"resourceType":"Procedure","id":"01eb6048-557a-4b82-b463-f933bcb9fb8c","meta":{"profile":["http://hl7.org/fhir/us/qicore/StructureDefinition/qicore-procedure"]},"extension":[{"url":"http://hl7.org/fhir/us/qicore/StructureDefinition/qicore-recorded","valueDateTime":"2023-11-01T00:00:00.000Z"}],"status":"completed","code":{"coding":[{"system":"http://www.cms.gov/Medicare/Coding/ICD10","code":"0SR9019","display":"Replacement of Right Hip Joint with Metal Synthetic Substitute, Cemented, Open Approach"}]},"subject":{"reference":"Patient/27d11a07-2d6b-42e5-a649-cd5ccc1584a0"},"performedPeriod":{"start":"2023-11-01T00:00:00.000Z","end":"2023-11-01T01:00:00.000Z"}},"request":{"method":"PUT","url":"Procedure/01eb6048-557a-4b82-b463-f933bcb9fb8c"}},{"fullUrl":"https://madie.cms.gov/Encounter/Encounter-4","resource":{"resourceType":"Encounter","id":"f2a8bb5b-7b1c-4ec7-9c9c-3466b356ec16","meta":{"profile":["http://hl7.org/fhir/us/qicore/StructureDefinition/qicore-encounter"]},"status":"finished","class":{"system":"http://terminology.hl7.org/CodeSystem/v3-ActCode","code":"AMB","display":"ambulatory"},"type":[{"coding":[{"system":"http://snomed.info/sct","code":"281036007","display":"Follow-up consultation (procedure)"}]}],"subject":{"reference":"Patient/27d11a07-2d6b-42e5-a649-cd5ccc1584a0"},"period":{"start":"2024-07-31T00:00:00.000Z","end":"2024-07-31T01:15:00.000Z"}},"request":{"method":"PUT","url":"Encounter/f2a8bb5b-7b1c-4ec7-9c9c-3466b356ec16"}},{"fullUrl":"https://madie.cms.gov/MeasureReport/8e9c6028-46da-4bb9-a7ad-210bf1e40bd8","resource":{"resourceType":"MeasureReport","id":"8e9c6028-46da-4bb9-a7ad-210bf1e40bd8","meta":{"profile":["http://hl7.org/fhir/us/cqfmeasures/StructureDefinition/test-case-cqfm"]},"contained":[{"resourceType":"Parameters","id":"b820f9c0-fea3-430a-9637-3be4c1e43f4a-parameters","parameter":[{"name":"subject","valueString":"27d11a07-2d6b-42e5-a649-cd5ccc1584a0"}]}],"extension":[{"url":"http://hl7.org/fhir/us/cqfmeasures/StructureDefinition/cqfm-inputParameters","valueReference":{"reference":"#b820f9c0-fea3-430a-9637-3be4c1e43f4a-parameters"}},{"url":"http://hl7.org/fhir/us/cqfmeasures/StructureDefinition/cqfm-testCaseDescription","valueMarkdown":"Patient 19yo w/ a THA Procedure 11/01 during THAProcedure Interval & Post Op Visit Outpatient Encounter on 07/31 before Qualifying Encounter Interval"}],"modifierExtension":[{"url":"http://hl7.org/fhir/us/cqfmeasures/StructureDefinition/cqfm-isTestCase","valueBoolean":true}],"status":"complete","type":"individual","measure":"https://madie.cms.gov/Measure/FunctionalStatusAssessmentforTotalHipReplacementFHIR","period":{"start":"2025-01-01","end":"2025-12-31"},"group":[{"population":[{"code":{"coding":[{"system":"http://terminology.hl7.org/CodeSystem/measure-population","code":"initial-population","display":"Initial Population"}]},"count":0},{"code":{"coding":[{"system":"http://terminology.hl7.org/CodeSystem/measure-population","code":"denominator","display":"Denominator"}]},"count":0},{"code":{"coding":[{"system":"http://terminology.hl7.org/CodeSystem/measure-population","code":"denominator-exclusion","display":"Denominator Exclusion"}]},"count":0},{"code":{"coding":[{"system":"http://terminology.hl7.org/CodeSystem/measure-population","code":"numerator","display":"Numerator"}]},"count":0}]}]},"request":{"method":"PUT","url":"MeasureReport/8e9c6028-46da-4bb9-a7ad-210bf1e40bd8"}}]}