{"resourceType":"Bundle","id":"tests-aede9d97-34b3-4a93-9b7b-2ec196c40d52-bundle","type":"transaction","entry":[{"fullUrl":"https://madie.cms.gov/Patient/aede9d97-34b3-4a93-9b7b-2ec196c40d52","resource":{"resourceType":"Patient","id":"aede9d97-34b3-4a93-9b7b-2ec196c40d52","meta":{"profile":["http://hl7.org/fhir/us/qicore/StructureDefinition/qicore-patient"]},"extension":[{"url":"http://hl7.org/fhir/us/core/StructureDefinition/us-core-race","extension":[{"url":"ombCategory","valueCoding":{"system":"urn:oid:2.16.840.1.113883.6.238","code":"2028-9","display":"Asian"}},{"url":"text","valueString":"Asian"}]},{"url":"http://hl7.org/fhir/us/core/StructureDefinition/us-core-ethnicity","extension":[{"url":"ombCategory","valueCoding":{"system":"urn:oid:2.16.840.1.113883.6.238","code":"2135-2","display":"Hispanic or Latino"}},{"url":"text","valueString":"Hispanic or Latino"}]}],"identifier":[{"system":"http://hospital.smarthealthit.org","value":"999999995"}],"name":[{"family":"Bertha","given":["Betty"]}],"gender":"female","birthDate":"2006-01-01"},"request":{"method":"PUT","url":"Patient/aede9d97-34b3-4a93-9b7b-2ec196c40d52"}},{"fullUrl":"https://madie.cms.gov/Procedure/Procedure-25","resource":{"resourceType":"Procedure","id":"fb176255-c594-4721-9598-511b2d9b707c","meta":{"profile":["http://hl7.org/fhir/us/qicore/StructureDefinition/qicore-procedure"]},"extension":[{"url":"http://hl7.org/fhir/us/qicore/StructureDefinition/qicore-recorded","valueDateTime":"2025-11-01T00:00:00.000Z"}],"status":"completed","code":{"coding":[{"system":"http://www.cms.gov/Medicare/Coding/ICD10","code":"0SR9019","display":"Replacement of Right Hip Joint with Metal Synthetic Substitute, Cemented, Open Approach"}]},"subject":{"reference":"Patient/aede9d97-34b3-4a93-9b7b-2ec196c40d52"},"performedPeriod":{"start":"2023-11-01T00:00:00.000Z","end":"2023-11-01T01:00:00.000Z"}},"request":{"method":"PUT","url":"Procedure/fb176255-c594-4721-9598-511b2d9b707c"}},{"fullUrl":"https://madie.cms.gov/Encounter/Encounter-25","resource":{"resourceType":"Encounter","id":"a3ee3554-25c5-47b6-b741-b09cc5cd0525","meta":{"profile":["http://hl7.org/fhir/us/qicore/StructureDefinition/qicore-encounter"]},"status":"finished","class":{"system":"http://terminology.hl7.org/CodeSystem/v3-ActCode","code":"AMB","display":"ambulatory"},"type":[{"coding":[{"system":"http://snomed.info/sct","code":"281036007","display":"Follow-up consultation (procedure)"}]}],"subject":{"reference":"Patient/aede9d97-34b3-4a93-9b7b-2ec196c40d52"},"period":{"start":"2024-11-01T00:00:00.000Z","end":"2024-11-01T01:15:00.000Z"}},"request":{"method":"PUT","url":"Encounter/a3ee3554-25c5-47b6-b741-b09cc5cd0525"}},{"fullUrl":"https://madie.cms.gov/Procedure/Procedure-25.1","resource":{"resourceType":"Procedure","id":"46437897-dc3c-4d0a-a31c-ae73c3a69ce1","meta":{"profile":["http://hl7.org/fhir/us/qicore/StructureDefinition/qicore-procedure"]},"extension":[{"url":"http://hl7.org/fhir/us/qicore/StructureDefinition/qicore-recorded","valueDateTime":"2023-11-01T00:00:00.000Z"}],"status":"completed","code":{"coding":[{"system":"http://www.cms.gov/Medicare/Coding/ICD10","code":"0SRB019","display":"Replacement of Left Hip Joint with Metal Synthetic Substitute, Cemented, Open Approach"}]},"subject":{"reference":"Patient/aede9d97-34b3-4a93-9b7b-2ec196c40d52"},"performedPeriod":{"start":"2022-11-01T00:00:00.000Z","end":"2022-11-01T01:00:00.000Z"}},"request":{"method":"PUT","url":"Procedure/46437897-dc3c-4d0a-a31c-ae73c3a69ce1"}},{"fullUrl":"https://madie.cms.gov/MeasureReport/9acf7ece-a6f2-4858-a457-4d0a0a75fe16","resource":{"resourceType":"MeasureReport","id":"9acf7ece-a6f2-4858-a457-4d0a0a75fe16","meta":{"profile":["http://hl7.org/fhir/us/cqfmeasures/StructureDefinition/test-case-cqfm"]},"contained":[{"resourceType":"Parameters","id":"0e55f568-b41b-4b88-9d54-a1a5824e32a2-parameters","parameter":[{"name":"subject","valueString":"aede9d97-34b3-4a93-9b7b-2ec196c40d52"}]}],"extension":[{"url":"http://hl7.org/fhir/us/cqfmeasures/StructureDefinition/cqfm-inputParameters","valueReference":{"reference":"#0e55f568-b41b-4b88-9d54-a1a5824e32a2-parameters"}},{"url":"http://hl7.org/fhir/us/cqfmeasures/StructureDefinition/cqfm-testCaseDescription","valueMarkdown":"Patient Has Elective THAProcedure 1 year before Initial THAProcedure"}],"modifierExtension":[{"url":"http://hl7.org/fhir/us/cqfmeasures/StructureDefinition/cqfm-isTestCase","valueBoolean":true}],"status":"complete","type":"individual","measure":"https://madie.cms.gov/Measure/FunctionalStatusAssessmentforTotalHipReplacementFHIR","period":{"start":"2025-01-01","end":"2025-12-31"},"group":[{"population":[{"code":{"coding":[{"system":"http://terminology.hl7.org/CodeSystem/measure-population","code":"initial-population","display":"Initial Population"}]},"count":1},{"code":{"coding":[{"system":"http://terminology.hl7.org/CodeSystem/measure-population","code":"denominator","display":"Denominator"}]},"count":1},{"code":{"coding":[{"system":"http://terminology.hl7.org/CodeSystem/measure-population","code":"denominator-exclusion","display":"Denominator Exclusion"}]},"count":1},{"code":{"coding":[{"system":"http://terminology.hl7.org/CodeSystem/measure-population","code":"numerator","display":"Numerator"}]},"count":0}]}]},"request":{"method":"PUT","url":"MeasureReport/9acf7ece-a6f2-4858-a457-4d0a0a75fe16"}}]}