{"resourceType":"Bundle","id":"tests-d6874cd1-1f84-4ad2-a1ad-07b71bc9ba9e-bundle","type":"transaction","entry":[{"fullUrl":"https://madie.cms.gov/Patient/d6874cd1-1f84-4ad2-a1ad-07b71bc9ba9e","resource":{"resourceType":"Patient","id":"d6874cd1-1f84-4ad2-a1ad-07b71bc9ba9e","meta":{"profile":["http://hl7.org/fhir/us/qicore/StructureDefinition/qicore-patient"]},"extension":[{"url":"http://hl7.org/fhir/us/core/StructureDefinition/us-core-race","extension":[{"url":"ombCategory","valueCoding":{"system":"urn:oid:2.16.840.1.113883.6.238","code":"2028-9","display":"Asian"}},{"url":"text","valueString":"Asian"}]},{"url":"http://hl7.org/fhir/us/core/StructureDefinition/us-core-ethnicity","extension":[{"url":"ombCategory","valueCoding":{"system":"urn:oid:2.16.840.1.113883.6.238","code":"2135-2","display":"Hispanic or Latino"}},{"url":"text","valueString":"Hispanic or Latino"}]}],"identifier":[{"system":"http://hospital.smarthealthit.org","value":"999999995"}],"name":[{"family":"Bertha","given":["Betty"]}],"gender":"female","birthDate":"2006-01-01"},"request":{"method":"PUT","url":"Patient/d6874cd1-1f84-4ad2-a1ad-07b71bc9ba9e"}},{"fullUrl":"https://madie.cms.gov/Procedure/Procedure-26","resource":{"resourceType":"Procedure","id":"8672d2b9-ff3e-4c4e-abb9-40d3763913a9","meta":{"profile":["http://hl7.org/fhir/us/qicore/StructureDefinition/qicore-procedure"]},"extension":[{"url":"http://hl7.org/fhir/us/qicore/StructureDefinition/qicore-recorded","valueDateTime":"2025-11-01T00:00:00.000Z"}],"status":"completed","code":{"coding":[{"system":"http://www.cms.gov/Medicare/Coding/ICD10","code":"0SR9019","display":"Replacement of Right Hip Joint with Metal Synthetic Substitute, Cemented, Open Approach"}]},"subject":{"reference":"Patient/d6874cd1-1f84-4ad2-a1ad-07b71bc9ba9e"},"performedPeriod":{"start":"2023-11-01T00:00:00.000Z","end":"2023-11-01T01:00:00.000Z"}},"request":{"method":"PUT","url":"Procedure/8672d2b9-ff3e-4c4e-abb9-40d3763913a9"}},{"fullUrl":"https://madie.cms.gov/Encounter/Encounter-26","resource":{"resourceType":"Encounter","id":"8e67a86b-e8d2-4b2f-9e77-98150e694c33","meta":{"profile":["http://hl7.org/fhir/us/qicore/StructureDefinition/qicore-encounter"]},"status":"finished","class":{"system":"http://terminology.hl7.org/CodeSystem/v3-ActCode","code":"AMB","display":"ambulatory"},"type":[{"coding":[{"system":"http://snomed.info/sct","code":"281036007","display":"Follow-up consultation (procedure)"}]}],"subject":{"reference":"Patient/d6874cd1-1f84-4ad2-a1ad-07b71bc9ba9e"},"period":{"start":"2024-11-01T00:00:00.000Z","end":"2024-11-01T01:15:00.000Z"}},"request":{"method":"PUT","url":"Encounter/8e67a86b-e8d2-4b2f-9e77-98150e694c33"}},{"fullUrl":"https://madie.cms.gov/Procedure/Procedure-26.1","resource":{"resourceType":"Procedure","id":"83e32d3d-14b9-4927-ac7b-fbef22ee01fe","meta":{"profile":["http://hl7.org/fhir/us/qicore/StructureDefinition/qicore-procedure"]},"extension":[{"url":"http://hl7.org/fhir/us/qicore/StructureDefinition/qicore-recorded","valueDateTime":"2023-11-01T00:00:00.000Z"}],"status":"completed","code":{"coding":[{"system":"http://www.cms.gov/Medicare/Coding/ICD10","code":"0SRB019","display":"Replacement of Left Hip Joint with Metal Synthetic Substitute, Cemented, Open Approach"}]},"subject":{"reference":"Patient/d6874cd1-1f84-4ad2-a1ad-07b71bc9ba9e"},"performedPeriod":{"start":"2024-11-02T00:00:00.000Z","end":"2024-11-02T11:59:59.000Z"}},"request":{"method":"PUT","url":"Procedure/83e32d3d-14b9-4927-ac7b-fbef22ee01fe"}},{"fullUrl":"https://madie.cms.gov/MeasureReport/f227157e-cfef-4813-9711-9c8a609e6736","resource":{"resourceType":"MeasureReport","id":"f227157e-cfef-4813-9711-9c8a609e6736","meta":{"profile":["http://hl7.org/fhir/us/cqfmeasures/StructureDefinition/test-case-cqfm"]},"contained":[{"resourceType":"Parameters","id":"759c585b-95cf-4a39-b868-7c7212a03ba8-parameters","parameter":[{"name":"subject","valueString":"d6874cd1-1f84-4ad2-a1ad-07b71bc9ba9e"}]}],"extension":[{"url":"http://hl7.org/fhir/us/cqfmeasures/StructureDefinition/cqfm-inputParameters","valueReference":{"reference":"#759c585b-95cf-4a39-b868-7c7212a03ba8-parameters"}},{"url":"http://hl7.org/fhir/us/cqfmeasures/StructureDefinition/cqfm-testCaseDescription","valueMarkdown":"Patient Has Elective THAProcedure 1 year and 1 day after Initial THAProcedure"}],"modifierExtension":[{"url":"http://hl7.org/fhir/us/cqfmeasures/StructureDefinition/cqfm-isTestCase","valueBoolean":true}],"status":"complete","type":"individual","measure":"https://madie.cms.gov/Measure/FunctionalStatusAssessmentforTotalHipReplacementFHIR","period":{"start":"2025-01-01","end":"2025-12-31"},"group":[{"population":[{"code":{"coding":[{"system":"http://terminology.hl7.org/CodeSystem/measure-population","code":"initial-population","display":"Initial Population"}]},"count":1},{"code":{"coding":[{"system":"http://terminology.hl7.org/CodeSystem/measure-population","code":"denominator","display":"Denominator"}]},"count":1},{"code":{"coding":[{"system":"http://terminology.hl7.org/CodeSystem/measure-population","code":"denominator-exclusion","display":"Denominator Exclusion"}]},"count":0},{"code":{"coding":[{"system":"http://terminology.hl7.org/CodeSystem/measure-population","code":"numerator","display":"Numerator"}]},"count":0}]}]},"request":{"method":"PUT","url":"MeasureReport/f227157e-cfef-4813-9711-9c8a609e6736"}}]}