{"resourceType":"Bundle","id":"tests-30cb1708-54d7-4268-bc37-5e7b4d31e789-bundle","type":"transaction","entry":[{"fullUrl":"https://madie.cms.gov/Patient/30cb1708-54d7-4268-bc37-5e7b4d31e789","resource":{"resourceType":"Patient","id":"30cb1708-54d7-4268-bc37-5e7b4d31e789","meta":{"profile":["http://hl7.org/fhir/us/qicore/StructureDefinition/qicore-patient"]},"extension":[{"url":"http://hl7.org/fhir/us/core/StructureDefinition/us-core-race","extension":[{"url":"ombCategory","valueCoding":{"system":"urn:oid:2.16.840.1.113883.6.238","code":"2028-9","display":"Asian"}},{"url":"text","valueString":"Asian"}]},{"url":"http://hl7.org/fhir/us/core/StructureDefinition/us-core-ethnicity","extension":[{"url":"ombCategory","valueCoding":{"system":"urn:oid:2.16.840.1.113883.6.238","code":"2135-2","display":"Hispanic or Latino"}},{"url":"text","valueString":"Hispanic or Latino"}]}],"identifier":[{"system":"http://hospital.smarthealthit.org","value":"999999995"}],"name":[{"family":"Bertha","given":["Betty"]}],"gender":"female","birthDate":"1975-01-01"},"request":{"method":"PUT","url":"Patient/30cb1708-54d7-4268-bc37-5e7b4d31e789"}},{"fullUrl":"https://madie.cms.gov/Encounter/Encounter-27","resource":{"resourceType":"Encounter","id":"a2e1a45c-4f2a-4eaf-99fa-1225fd98fbbd","meta":{"profile":["http://hl7.org/fhir/us/qicore/StructureDefinition/qicore-encounter"]},"status":"finished","class":{"system":"http://terminology.hl7.org/CodeSystem/v3-ActCode","code":"AMB","display":"ambulatory"},"type":[{"coding":[{"system":"http://snomed.info/sct","code":"185317003","display":"Telephone encounter (procedure)"}]}],"subject":{"reference":"Patient/30cb1708-54d7-4268-bc37-5e7b4d31e789"},"period":{"start":"2025-01-01T01:00:00.000Z","end":"2025-01-01T01:15:00.000Z"}},"request":{"method":"PUT","url":"Encounter/a2e1a45c-4f2a-4eaf-99fa-1225fd98fbbd"}},{"fullUrl":"https://madie.cms.gov/Observation/Observation-27","resource":{"resourceType":"Observation","id":"794c4bad-8293-4fe7-b3d1-8ede6511bfed","meta":{"profile":["http://hl7.org/fhir/us/qicore/StructureDefinition/qicore-observation"]},"status":"final","category":[{"coding":[{"system":"http://terminology.hl7.org/CodeSystem/observation-category","code":"survey","display":"Survey"}],"text":"Survey"}],"code":{"coding":[{"system":"http://loinc.org","code":"98139-9","display":"Osteoporosis Risk Assessment Instrument"}],"text":"ORAI"},"subject":{"reference":"Patient/30cb1708-54d7-4268-bc37-5e7b4d31e789"},"effectiveDateTime":"2025-01-01T00:00:00.000Z","valueInteger":9},"request":{"method":"PUT","url":"Observation/794c4bad-8293-4fe7-b3d1-8ede6511bfed"}},{"fullUrl":"https://madie.cms.gov/ServiceRequest/ServiceRequest-27","resource":{"resourceType":"ServiceRequest","id":"c62e8292-f72a-4ba2-b5a0-90620d7c4afe","meta":{"profile":["http://hl7.org/fhir/us/qicore/StructureDefinition/qicore-servicerequest"]},"extension":[{"url":"http://hl7.org/fhir/StructureDefinition/request-statusReason","valueCodeableConcept":{"coding":[{"system":"http://snomed.info/sct","code":"15635006","display":"Requested by Patient"}]}}],"status":"completed","intent":"order","category":[{"coding":[{"system":"http://snomed.info/sct","code":"387713003","display":"Surgical procedure"}]}],"priority":"routine","code":{"coding":[{"system":"http://loinc.org","code":"24701-5","display":"DXA Femur [Mass/Area] Bone density"}]},"subject":{"reference":"Patient/30cb1708-54d7-4268-bc37-5e7b4d31e789"},"encounter":{"reference":"Encounter/Encounter-27"},"occurrenceDateTime":"2025-01-02","authoredOn":"2025-01-02","performerType":{"coding":[{"system":"http://snomed.info/sct","code":"405279007","display":"Attending physician (occupation)"}]},"reasonCode":[{"coding":[{"system":"http://snomed.info/sct","code":"123614006","display":"Partial Cataract (disorder)"}]}]},"request":{"method":"PUT","url":"ServiceRequest/c62e8292-f72a-4ba2-b5a0-90620d7c4afe"}},{"fullUrl":"https://madie.cms.gov/MeasureReport/7b6bb1fe-7492-462b-bca4-37356a232b3d","resource":{"resourceType":"MeasureReport","id":"7b6bb1fe-7492-462b-bca4-37356a232b3d","meta":{"profile":["http://hl7.org/fhir/us/cqfmeasures/StructureDefinition/test-case-cqfm"]},"contained":[{"resourceType":"Parameters","id":"0159ec1e-653c-49cf-a9da-0063995d707f-parameters","parameter":[{"name":"subject","valueString":"30cb1708-54d7-4268-bc37-5e7b4d31e789"}]}],"extension":[{"url":"http://hl7.org/fhir/us/cqfmeasures/StructureDefinition/cqfm-inputParameters","valueReference":{"reference":"#0159ec1e-653c-49cf-a9da-0063995d707f-parameters"}},{"url":"http://hl7.org/fhir/us/cqfmeasures/StructureDefinition/cqfm-testCaseDescription","valueMarkdown":"ORAI risk assessment observation before DXA scan"}],"modifierExtension":[{"url":"http://hl7.org/fhir/us/cqfmeasures/StructureDefinition/cqfm-isTestCase","valueBoolean":true}],"status":"complete","type":"individual","measure":"https://madie.cms.gov/Measure/AppropriateDXAScansForWomenUnder65FHIR","period":{"start":"2025-01-01","end":"2025-12-31"},"group":[{"population":[{"code":{"coding":[{"system":"http://terminology.hl7.org/CodeSystem/measure-population","code":"initial-population","display":"Initial Population"}]},"count":1},{"code":{"coding":[{"system":"http://terminology.hl7.org/CodeSystem/measure-population","code":"denominator","display":"Denominator"}]},"count":1},{"code":{"coding":[{"system":"http://terminology.hl7.org/CodeSystem/measure-population","code":"denominator-exclusion","display":"Denominator Exclusion"}]},"count":0},{"code":{"coding":[{"system":"http://terminology.hl7.org/CodeSystem/measure-population","code":"numerator","display":"Numerator"}]},"count":1},{"code":{"coding":[{"system":"http://terminology.hl7.org/CodeSystem/measure-population","code":"numerator-exclusion","display":"Numerator Exclusion"}]},"count":1}]}]},"request":{"method":"PUT","url":"MeasureReport/7b6bb1fe-7492-462b-bca4-37356a232b3d"}}]}