{"resourceType":"Bundle","id":"tests-d583270a-6db2-460c-b876-813bad668797-bundle","type":"transaction","entry":[{"fullUrl":"https://madie.cms.gov/Patient/d583270a-6db2-460c-b876-813bad668797","resource":{"resourceType":"Patient","id":"d583270a-6db2-460c-b876-813bad668797","meta":{"profile":["http://hl7.org/fhir/us/qicore/StructureDefinition/qicore-patient"]},"extension":[{"url":"http://hl7.org/fhir/us/core/StructureDefinition/us-core-race","extension":[{"url":"ombCategory","valueCoding":{"system":"urn:oid:2.16.840.1.113883.6.238","code":"2028-9","display":"Asian","userSelected":true}},{"url":"text","valueString":"Asian"}]},{"url":"http://hl7.org/fhir/us/core/StructureDefinition/us-core-ethnicity","extension":[{"url":"ombCategory","valueCoding":{"system":"urn:oid:2.16.840.1.113883.6.238","code":"2135-2","display":"Hispanic or Latino","userSelected":true}},{"url":"text","valueString":"Hispanic or Latino"}]}],"identifier":[{"type":{"coding":[{"system":"http://terminology.hl7.org/CodeSystem/v2-0203","code":"MR"}]},"system":"http://hospital.smarthealthit.org","value":"999999995"}],"name":[{"family":"Bertha","given":["Betty"]}],"gender":"female","birthDate":"1975-01-01"},"request":{"method":"PUT","url":"Patient/d583270a-6db2-460c-b876-813bad668797"}},{"fullUrl":"https://madie.cms.gov/Encounter/Encounter-43","resource":{"resourceType":"Encounter","id":"3974f0bb-8490-4d39-9df0-302255e36164","meta":{"profile":["http://hl7.org/fhir/us/qicore/StructureDefinition/qicore-encounter"]},"status":"finished","class":{"system":"http://terminology.hl7.org/CodeSystem/v3-ActCode","code":"AMB","display":"ambulatory"},"type":[{"coding":[{"system":"http://www.ama-assn.org/go/cpt","version":"2024","code":"99387","display":"Initial comprehensive preventive medicine evaluation and management of an individual including an age and gender appropriate history, examination, counseling/anticipatory guidance/risk factor reduction interventions, and the ordering of laboratory/diagnostic procedures, new patient; 65 years and older"}]}],"subject":{"reference":"Patient/d583270a-6db2-460c-b876-813bad668797"},"period":{"start":"2025-01-01T00:00:00.000Z","end":"2025-01-01T01:15:00.000Z"}},"request":{"method":"PUT","url":"Encounter/3974f0bb-8490-4d39-9df0-302255e36164"}},{"fullUrl":"https://madie.cms.gov/Condition/Condition-27","resource":{"resourceType":"Condition","id":"4c0fdd4e-4f77-4f94-8c4e-75f52f52def9","meta":{"profile":["http://hl7.org/fhir/us/qicore/StructureDefinition/qicore-condition"]},"clinicalStatus":{"coding":[{"system":"http://terminology.hl7.org/CodeSystem/condition-clinical","code":"active"}]},"category":[{"coding":[{"system":"http://terminology.hl7.org/CodeSystem/condition-category","code":"problem-list-item","display":"Problem List Item"}]}],"code":{"coding":[{"system":"http://snomed.info/sct","code":"17025000","display":"Ehlers-Danlos syndrome, type 4 (disorder)"}]},"subject":{"reference":"Patient/d583270a-6db2-460c-b876-813bad668797"},"onsetDateTime":"2025-12-31T23:59:00.000Z"},"request":{"method":"PUT","url":"Condition/4c0fdd4e-4f77-4f94-8c4e-75f52f52def9"}},{"fullUrl":"https://madie.cms.gov/MeasureReport/b1e43596-b9a0-4cd1-9dd5-cd67e330a5c4","resource":{"resourceType":"MeasureReport","id":"b1e43596-b9a0-4cd1-9dd5-cd67e330a5c4","meta":{"profile":["http://hl7.org/fhir/us/cqfmeasures/StructureDefinition/test-case-cqfm"]},"contained":[{"resourceType":"Parameters","id":"c21d2a04-225e-4802-ae17-892c13b779fe-parameters","parameter":[{"name":"subject","valueString":"d583270a-6db2-460c-b876-813bad668797"}]}],"extension":[{"url":"http://hl7.org/fhir/us/cqfmeasures/StructureDefinition/cqfm-inputParameters","valueReference":{"reference":"#c21d2a04-225e-4802-ae17-892c13b779fe-parameters"}},{"url":"http://hl7.org/fhir/us/cqfmeasures/StructureDefinition/cqfm-testCaseDescription","valueMarkdown":"Ehlers during MP"}],"modifierExtension":[{"url":"http://hl7.org/fhir/us/cqfmeasures/StructureDefinition/cqfm-isTestCase","valueBoolean":true}],"status":"complete","type":"individual","measure":"https://madie.cms.gov/Measure/AppropriateDXAScansForWomenUnder65FHIR","period":{"start":"2025-01-01","end":"2025-12-31"},"group":[{"population":[{"code":{"coding":[{"system":"http://terminology.hl7.org/CodeSystem/measure-population","code":"initial-population","display":"Initial Population"}]},"count":1},{"code":{"coding":[{"system":"http://terminology.hl7.org/CodeSystem/measure-population","code":"denominator","display":"Denominator"}]},"count":1},{"code":{"coding":[{"system":"http://terminology.hl7.org/CodeSystem/measure-population","code":"denominator-exclusion","display":"Denominator Exclusion"}]},"count":1},{"code":{"coding":[{"system":"http://terminology.hl7.org/CodeSystem/measure-population","code":"numerator","display":"Numerator"}]},"count":0},{"code":{"coding":[{"system":"http://terminology.hl7.org/CodeSystem/measure-population","code":"numerator-exclusion","display":"Numerator Exclusion"}]},"count":0}]}]},"request":{"method":"PUT","url":"MeasureReport/b1e43596-b9a0-4cd1-9dd5-cd67e330a5c4"}}]}