{"resourceType":"Bundle","id":"tests-aa36cead-d3a1-4101-a59b-accc2e16565b-bundle","type":"transaction","entry":[{"fullUrl":"https://madie.cms.gov/Patient/aa36cead-d3a1-4101-a59b-accc2e16565b","resource":{"resourceType":"Patient","id":"aa36cead-d3a1-4101-a59b-accc2e16565b","meta":{"profile":["http://hl7.org/fhir/us/qicore/StructureDefinition/qicore-patient"]},"extension":[{"url":"http://hl7.org/fhir/us/core/StructureDefinition/us-core-race","extension":[{"url":"ombCategory","valueCoding":{"system":"urn:oid:2.16.840.1.113883.6.238","code":"2028-9","display":"Asian"}},{"url":"text","valueString":"Asian"}]},{"url":"http://hl7.org/fhir/us/core/StructureDefinition/us-core-ethnicity","extension":[{"url":"ombCategory","valueCoding":{"system":"urn:oid:2.16.840.1.113883.6.238","code":"2135-2","display":"Hispanic or Latino"}},{"url":"text","valueString":"Hispanic or Latino"}]}],"identifier":[{"system":"http://hospital.smarthealthit.org","value":"999999995"}],"name":[{"family":"Bertha","given":["Betty"]}],"gender":"female","birthDate":"1975-01-01"},"request":{"method":"PUT","url":"Patient/aa36cead-d3a1-4101-a59b-accc2e16565b"}},{"fullUrl":"https://madie.cms.gov/Encounter/Encounter-5","resource":{"resourceType":"Encounter","id":"41aa66a4-d861-4540-ada0-616c9f04b0df","meta":{"profile":["http://hl7.org/fhir/us/qicore/StructureDefinition/qicore-encounter"]},"status":"finished","class":{"system":"http://terminology.hl7.org/CodeSystem/v3-ActCode","code":"AMB","display":"ambulatory"},"type":[{"coding":[{"system":"http://snomed.info/sct","code":"185317003","display":"Telephone encounter (procedure)"}]}],"subject":{"reference":"Patient/aa36cead-d3a1-4101-a59b-accc2e16565b"},"period":{"start":"2025-01-01T01:00:00.000Z","end":"2025-01-01T01:15:00.000Z"}},"request":{"method":"PUT","url":"Encounter/41aa66a4-d861-4540-ada0-616c9f04b0df"}},{"fullUrl":"https://madie.cms.gov/Observation/Observation-5","resource":{"resourceType":"Observation","id":"384b506a-5130-4c1e-a4e4-d2b20dd9dfe7","meta":{"profile":["http://hl7.org/fhir/us/qicore/StructureDefinition/qicore-observation"]},"status":"final","category":[{"coding":[{"system":"http://terminology.hl7.org/CodeSystem/observation-category","code":"survey","display":"Survey"}],"text":"Survey"}],"code":{"coding":[{"system":"http://loinc.org","code":"74013-4","display":"Alcoholic drinks per day"}],"text":"AverageDrinks"},"subject":{"reference":"Patient/aa36cead-d3a1-4101-a59b-accc2e16565b"},"effectiveDateTime":"2025-01-01T00:00:00.000Z","valueQuantity":{"value":3,"unit":"{drinks}/d","system":"http://unitsofmeasure.org","code":"{drinks}/d"}},"request":{"method":"PUT","url":"Observation/384b506a-5130-4c1e-a4e4-d2b20dd9dfe7"}},{"fullUrl":"https://madie.cms.gov/MeasureReport/53d34e5d-62af-48a3-9152-45f703bedfd4","resource":{"resourceType":"MeasureReport","id":"53d34e5d-62af-48a3-9152-45f703bedfd4","meta":{"profile":["http://hl7.org/fhir/us/cqfmeasures/StructureDefinition/test-case-cqfm"]},"contained":[{"resourceType":"Parameters","id":"c5e730b7-27b9-4c17-a60b-1631599b6153-parameters","parameter":[{"name":"subject","valueString":"aa36cead-d3a1-4101-a59b-accc2e16565b"}]}],"extension":[{"url":"http://hl7.org/fhir/us/cqfmeasures/StructureDefinition/cqfm-inputParameters","valueReference":{"reference":"#c5e730b7-27b9-4c17-a60b-1631599b6153-parameters"}},{"url":"http://hl7.org/fhir/us/cqfmeasures/StructureDefinition/cqfm-testCaseDescription","valueMarkdown":"Patient has more than 3 drinks per day"}],"modifierExtension":[{"url":"http://hl7.org/fhir/us/cqfmeasures/StructureDefinition/cqfm-isTestCase","valueBoolean":true}],"status":"complete","type":"individual","measure":"https://madie.cms.gov/Measure/AppropriateDXAScansForWomenUnder65FHIR","period":{"start":"2025-01-01","end":"2025-12-31"},"group":[{"population":[{"code":{"coding":[{"system":"http://terminology.hl7.org/CodeSystem/measure-population","code":"initial-population","display":"Initial Population"}]},"count":1},{"code":{"coding":[{"system":"http://terminology.hl7.org/CodeSystem/measure-population","code":"denominator","display":"Denominator"}]},"count":1},{"code":{"coding":[{"system":"http://terminology.hl7.org/CodeSystem/measure-population","code":"denominator-exclusion","display":"Denominator Exclusion"}]},"count":1},{"code":{"coding":[{"system":"http://terminology.hl7.org/CodeSystem/measure-population","code":"numerator","display":"Numerator"}]},"count":0},{"code":{"coding":[{"system":"http://terminology.hl7.org/CodeSystem/measure-population","code":"numerator-exclusion","display":"Numerator Exclusion"}]},"count":0}]}]},"request":{"method":"PUT","url":"MeasureReport/53d34e5d-62af-48a3-9152-45f703bedfd4"}}]}