{"resourceType":"Bundle","id":"tests-d00b99c9-7da0-43e7-8533-e7246fe1c039-bundle","type":"transaction","entry":[{"fullUrl":"https://madie.cms.gov/Patient/d00b99c9-7da0-43e7-8533-e7246fe1c039","resource":{"resourceType":"Patient","id":"d00b99c9-7da0-43e7-8533-e7246fe1c039","meta":{"profile":["http://hl7.org/fhir/us/qicore/StructureDefinition/qicore-patient"]},"extension":[{"url":"http://hl7.org/fhir/us/core/StructureDefinition/us-core-race","extension":[{"url":"ombCategory","valueCoding":{"system":"urn:oid:2.16.840.1.113883.6.238","code":"2028-9","display":"Asian","userSelected":true}},{"url":"text","valueString":"Asian"}]},{"url":"http://hl7.org/fhir/us/core/StructureDefinition/us-core-ethnicity","extension":[{"url":"ombCategory","valueCoding":{"system":"urn:oid:2.16.840.1.113883.6.238","code":"2135-2","display":"Hispanic or Latino","userSelected":true}},{"url":"text","valueString":"Hispanic or Latino"}]}],"identifier":[{"type":{"coding":[{"system":"http://terminology.hl7.org/CodeSystem/v2-0203","code":"MR"}]},"system":"http://hospital.smarthealthit.org","value":"999999995"}],"name":[{"family":"Bertha","given":["Betty"]}],"gender":"female","birthDate":"1975-01-01"},"request":{"method":"PUT","url":"Patient/d00b99c9-7da0-43e7-8533-e7246fe1c039"}},{"fullUrl":"https://madie.cms.gov/Encounter/Encounter-45","resource":{"resourceType":"Encounter","id":"82ed8d79-ca65-46b8-ad63-e2a5ff942aef","meta":{"profile":["http://hl7.org/fhir/us/qicore/StructureDefinition/qicore-encounter"]},"status":"finished","class":{"system":"http://terminology.hl7.org/CodeSystem/v3-ActCode","code":"AMB","display":"ambulatory"},"type":[{"coding":[{"system":"http://www.ama-assn.org/go/cpt","version":"2024","code":"99387","display":"Initial comprehensive preventive medicine evaluation and management of an individual including an age and gender appropriate history, examination, counseling/anticipatory guidance/risk factor reduction interventions, and the ordering of laboratory/diagnostic procedures, new patient; 65 years and older"}]}],"subject":{"reference":"Patient/d00b99c9-7da0-43e7-8533-e7246fe1c039"},"period":{"start":"2025-01-01T00:00:00.000Z","end":"2025-01-01T01:15:00.000Z"}},"request":{"method":"PUT","url":"Encounter/82ed8d79-ca65-46b8-ad63-e2a5ff942aef"}},{"fullUrl":"https://madie.cms.gov/Condition/Condition-29","resource":{"resourceType":"Condition","id":"4ae96b71-c19d-4b5d-94e7-274021a48de4","meta":{"profile":["http://hl7.org/fhir/us/qicore/StructureDefinition/qicore-condition"]},"clinicalStatus":{"coding":[{"system":"http://terminology.hl7.org/CodeSystem/condition-clinical","code":"active"}]},"category":[{"coding":[{"system":"http://terminology.hl7.org/CodeSystem/condition-category","code":"problem-list-item","display":"Problem List Item"}]}],"code":{"coding":[{"system":"http://snomed.info/sct","code":"190045361000119101","display":"Normocalcemic primary hyperparathyroidism (disorder)"}]},"subject":{"reference":"Patient/d00b99c9-7da0-43e7-8533-e7246fe1c039"},"onsetDateTime":"2025-12-31T23:59:00.000Z"},"request":{"method":"PUT","url":"Condition/4ae96b71-c19d-4b5d-94e7-274021a48de4"}},{"fullUrl":"https://madie.cms.gov/MeasureReport/f51644d5-e726-4edf-97de-d81f453a51bb","resource":{"resourceType":"MeasureReport","id":"f51644d5-e726-4edf-97de-d81f453a51bb","meta":{"profile":["http://hl7.org/fhir/us/cqfmeasures/StructureDefinition/test-case-cqfm"]},"contained":[{"resourceType":"Parameters","id":"6cf1b200-a372-4c96-967c-e1e0ae671e78-parameters","parameter":[{"name":"subject","valueString":"d00b99c9-7da0-43e7-8533-e7246fe1c039"}]}],"extension":[{"url":"http://hl7.org/fhir/us/cqfmeasures/StructureDefinition/cqfm-inputParameters","valueReference":{"reference":"#6cf1b200-a372-4c96-967c-e1e0ae671e78-parameters"}},{"url":"http://hl7.org/fhir/us/cqfmeasures/StructureDefinition/cqfm-testCaseDescription","valueMarkdown":"Hyperparathyroidism during MP"}],"modifierExtension":[{"url":"http://hl7.org/fhir/us/cqfmeasures/StructureDefinition/cqfm-isTestCase","valueBoolean":true}],"status":"complete","type":"individual","measure":"https://madie.cms.gov/Measure/AppropriateDXAScansForWomenUnder65FHIR","period":{"start":"2025-01-01","end":"2025-12-31"},"group":[{"population":[{"code":{"coding":[{"system":"http://terminology.hl7.org/CodeSystem/measure-population","code":"initial-population","display":"Initial Population"}]},"count":1},{"code":{"coding":[{"system":"http://terminology.hl7.org/CodeSystem/measure-population","code":"denominator","display":"Denominator"}]},"count":1},{"code":{"coding":[{"system":"http://terminology.hl7.org/CodeSystem/measure-population","code":"denominator-exclusion","display":"Denominator Exclusion"}]},"count":1},{"code":{"coding":[{"system":"http://terminology.hl7.org/CodeSystem/measure-population","code":"numerator","display":"Numerator"}]},"count":0},{"code":{"coding":[{"system":"http://terminology.hl7.org/CodeSystem/measure-population","code":"numerator-exclusion","display":"Numerator Exclusion"}]},"count":0}]}]},"request":{"method":"PUT","url":"MeasureReport/f51644d5-e726-4edf-97de-d81f453a51bb"}}]}