{"resourceType":"Bundle","id":"tests-c2885ae7-8b97-41e6-a6e4-3c0927995ad5-bundle","type":"transaction","entry":[{"fullUrl":"https://madie.cms.gov/Patient/c2885ae7-8b97-41e6-a6e4-3c0927995ad5","resource":{"resourceType":"Patient","id":"c2885ae7-8b97-41e6-a6e4-3c0927995ad5","meta":{"profile":["http://hl7.org/fhir/us/qicore/StructureDefinition/qicore-patient"]},"extension":[{"url":"http://hl7.org/fhir/us/core/StructureDefinition/us-core-race","extension":[{"url":"ombCategory","valueCoding":{"system":"urn:oid:2.16.840.1.113883.6.238","code":"2028-9","display":"Asian"}},{"url":"text","valueString":"Asian"}]},{"url":"http://hl7.org/fhir/us/core/StructureDefinition/us-core-ethnicity","extension":[{"url":"ombCategory","valueCoding":{"system":"urn:oid:2.16.840.1.113883.6.238","code":"2135-2","display":"Hispanic or Latino"}},{"url":"text","valueString":"Hispanic or Latino"}]}],"identifier":[{"system":"http://hospital.smarthealthit.org","value":"999999995"}],"name":[{"family":"Bertha","given":["Betty"]}],"gender":"female","birthDate":"1975-01-01"},"request":{"method":"PUT","url":"Patient/c2885ae7-8b97-41e6-a6e4-3c0927995ad5"}},{"fullUrl":"https://madie.cms.gov/Encounter/Encounter-11","resource":{"resourceType":"Encounter","id":"80524a20-5846-44cc-a731-73cff7f34d46","meta":{"profile":["http://hl7.org/fhir/us/qicore/StructureDefinition/qicore-encounter"]},"status":"finished","class":{"system":"http://terminology.hl7.org/CodeSystem/v3-ActCode","code":"AMB","display":"ambulatory"},"type":[{"coding":[{"system":"http://snomed.info/sct","code":"185317003","display":"Telephone encounter (procedure)"}]}],"subject":{"reference":"Patient/c2885ae7-8b97-41e6-a6e4-3c0927995ad5"},"period":{"start":"2025-01-01T01:00:00.000Z","end":"2025-01-01T01:15:00.000Z"}},"request":{"method":"PUT","url":"Encounter/80524a20-5846-44cc-a731-73cff7f34d46"}},{"fullUrl":"https://madie.cms.gov/Procedure/Procedure-11","resource":{"resourceType":"Procedure","id":"aed95ec4-5d43-478b-86ed-5476899a39a4","meta":{"profile":["http://hl7.org/fhir/us/qicore/StructureDefinition/qicore-procedure"]},"extension":[{"url":"http://hl7.org/fhir/us/qicore/StructureDefinition/qicore-recorded","valueDateTime":"2024-12-31T00:00:00.000Z"}],"status":"completed","code":{"coding":[{"system":"http://snomed.info/sct","code":"112860004","display":"Hemigastrectomy by abdominal approach (procedure)"}]},"subject":{"reference":"Patient/c2885ae7-8b97-41e6-a6e4-3c0927995ad5"},"performedPeriod":{"start":"2024-12-31T00:00:00.000Z","end":"2024-12-31T01:00:00.000Z"}},"request":{"method":"PUT","url":"Procedure/aed95ec4-5d43-478b-86ed-5476899a39a4"}},{"fullUrl":"https://madie.cms.gov/MedicationRequest/MedicationRequest-11","resource":{"resourceType":"MedicationRequest","id":"c11b5112-21e7-4390-b531-af70dad9270e","meta":{"profile":["http://hl7.org/fhir/us/qicore/StructureDefinition/qicore-medicationrequest"]},"status":"active","intent":"order","category":[{"coding":[{"system":"http://terminology.hl7.org/CodeSystem/medicationrequest-category","code":"discharge","display":"Discharge"}]}],"medicationCodeableConcept":{"coding":[{"system":"http://www.nlm.nih.gov/research/umls/rxnorm","code":"199224","display":"anastrozole 1 MG Oral Tablet","userSelected":true}]},"subject":{"reference":"Patient/c2885ae7-8b97-41e6-a6e4-3c0927995ad5"},"authoredOn":"2024-12-31T23:55:00.000Z","requester":{"reference":"Practitioner/example"},"dosageInstruction":[{"timing":{"repeat":{"boundsPeriod":{"start":"2024-12-31T23:59:00.000Z","end":"2024-12-31T23:59:00.000Z"}}}}]},"request":{"method":"PUT","url":"MedicationRequest/c11b5112-21e7-4390-b531-af70dad9270e"}},{"fullUrl":"https://madie.cms.gov/Observation/Observation-11","resource":{"resourceType":"Observation","id":"96cb83d7-122f-4128-9f4d-c8b8814db061","meta":{"profile":["http://hl7.org/fhir/us/qicore/StructureDefinition/qicore-observation"]},"status":"final","category":[{"coding":[{"system":"http://terminology.hl7.org/CodeSystem/observation-category","code":"survey","display":"Survey"}],"text":"Survey"}],"code":{"coding":[{"system":"http://snomed.info/sct","code":"391096007","display":"Family history: Maternal hip fracture (situation)"}]},"subject":{"reference":"Patient/c2885ae7-8b97-41e6-a6e4-3c0927995ad5"},"effectiveDateTime":"2024-12-31T00:00:00.000Z"},"request":{"method":"PUT","url":"Observation/96cb83d7-122f-4128-9f4d-c8b8814db061"}},{"fullUrl":"https://madie.cms.gov/MeasureReport/547be5ae-57d9-48e9-aadf-a4c65e71a7fc","resource":{"resourceType":"MeasureReport","id":"547be5ae-57d9-48e9-aadf-a4c65e71a7fc","meta":{"profile":["http://hl7.org/fhir/us/cqfmeasures/StructureDefinition/test-case-cqfm"]},"contained":[{"resourceType":"Parameters","id":"8208992a-61e8-44b6-bd05-9c2f4e5e8ffb-parameters","parameter":[{"name":"subject","valueString":"c2885ae7-8b97-41e6-a6e4-3c0927995ad5"}]}],"extension":[{"url":"http://hl7.org/fhir/us/cqfmeasures/StructureDefinition/cqfm-inputParameters","valueReference":{"reference":"#8208992a-61e8-44b6-bd05-9c2f4e5e8ffb-parameters"}},{"url":"http://hl7.org/fhir/us/cqfmeasures/StructureDefinition/cqfm-testCaseDescription","valueMarkdown":"Patient has active medication before the measurement period."}],"modifierExtension":[{"url":"http://hl7.org/fhir/us/cqfmeasures/StructureDefinition/cqfm-isTestCase","valueBoolean":true}],"status":"complete","type":"individual","measure":"https://madie.cms.gov/Measure/AppropriateDXAScansForWomenUnder65FHIR","period":{"start":"2025-01-01","end":"2025-12-31"},"group":[{"population":[{"code":{"coding":[{"system":"http://terminology.hl7.org/CodeSystem/measure-population","code":"initial-population","display":"Initial Population"}]},"count":1},{"code":{"coding":[{"system":"http://terminology.hl7.org/CodeSystem/measure-population","code":"denominator","display":"Denominator"}]},"count":1},{"code":{"coding":[{"system":"http://terminology.hl7.org/CodeSystem/measure-population","code":"denominator-exclusion","display":"Denominator Exclusion"}]},"count":1},{"code":{"coding":[{"system":"http://terminology.hl7.org/CodeSystem/measure-population","code":"numerator","display":"Numerator"}]},"count":0},{"code":{"coding":[{"system":"http://terminology.hl7.org/CodeSystem/measure-population","code":"numerator-exclusion","display":"Numerator Exclusion"}]},"count":0}]}]},"request":{"method":"PUT","url":"MeasureReport/547be5ae-57d9-48e9-aadf-a4c65e71a7fc"}}]}