{"resourceType":"Bundle","id":"tests-d665702b-77d4-4cce-9a4d-46b3da0157f1-bundle","type":"transaction","entry":[{"fullUrl":"https://madie.cms.gov/Patient/d665702b-77d4-4cce-9a4d-46b3da0157f1","resource":{"resourceType":"Patient","id":"d665702b-77d4-4cce-9a4d-46b3da0157f1","meta":{"profile":["http://hl7.org/fhir/us/qicore/StructureDefinition/qicore-patient"]},"extension":[{"url":"http://hl7.org/fhir/us/core/StructureDefinition/us-core-race","extension":[{"url":"ombCategory","valueCoding":{"system":"urn:oid:2.16.840.1.113883.6.238","code":"2028-9","display":"Asian","userSelected":true}},{"url":"text","valueString":"Asian"}]},{"url":"http://hl7.org/fhir/us/core/StructureDefinition/us-core-ethnicity","extension":[{"url":"ombCategory","valueCoding":{"system":"urn:oid:2.16.840.1.113883.6.238","code":"2135-2","display":"Hispanic or Latino","userSelected":true}},{"url":"text","valueString":"Hispanic or Latino"}]}],"identifier":[{"type":{"coding":[{"system":"http://terminology.hl7.org/CodeSystem/v2-0203","code":"MR"}]},"system":"http://hospital.smarthealthit.org","value":"999999995"}],"name":[{"family":"Bertha","given":["Betty"]}],"gender":"female","birthDate":"1975-01-01"},"request":{"method":"PUT","url":"Patient/d665702b-77d4-4cce-9a4d-46b3da0157f1"}},{"fullUrl":"https://madie.cms.gov/Encounter/Encounter-51","resource":{"resourceType":"Encounter","id":"fc437d1c-d245-441e-9a43-d8bda984318b","meta":{"profile":["http://hl7.org/fhir/us/qicore/StructureDefinition/qicore-encounter"]},"status":"finished","class":{"system":"http://terminology.hl7.org/CodeSystem/v3-ActCode","code":"AMB","display":"ambulatory"},"type":[{"coding":[{"system":"http://snomed.info/sct","code":"185317003","display":"Telephone encounter (procedure)"}]}],"subject":{"reference":"Patient/d665702b-77d4-4cce-9a4d-46b3da0157f1"},"period":{"start":"2025-01-01T01:00:00.000Z","end":"2025-01-01T01:15:00.000Z"}},"request":{"method":"PUT","url":"Encounter/fc437d1c-d245-441e-9a43-d8bda984318b"}},{"fullUrl":"https://madie.cms.gov/Observation/Observation-51","resource":{"resourceType":"Observation","id":"99280ce1-216d-4d85-98e2-ff1e7b3b99a4","meta":{"profile":["http://hl7.org/fhir/us/qicore/StructureDefinition/qicore-observation"]},"status":"final","category":[{"coding":[{"system":"http://terminology.hl7.org/CodeSystem/observation-category","code":"survey","display":"Survey"}],"text":"Survey"}],"code":{"coding":[{"system":"http://loinc.org","code":"98146-4","display":"Osteoporosis Self-Assessment Tool"}],"text":"OST"},"subject":{"reference":"Patient/d665702b-77d4-4cce-9a4d-46b3da0157f1"},"effectiveDateTime":"2025-01-01T00:00:00.000Z","valueQuantity":{"value":0.9}},"request":{"method":"PUT","url":"Observation/99280ce1-216d-4d85-98e2-ff1e7b3b99a4"}},{"fullUrl":"https://madie.cms.gov/ServiceRequest/ServiceRequest-51","resource":{"resourceType":"ServiceRequest","id":"27c6949a-dcd5-433a-8ad2-56ec7db4529f","meta":{"profile":["http://hl7.org/fhir/us/qicore/StructureDefinition/qicore-servicerequest"]},"extension":[{"url":"http://hl7.org/fhir/StructureDefinition/request-statusReason","valueCodeableConcept":{"coding":[{"system":"http://snomed.info/sct","code":"15635006","display":"Requested by Patient"}]}}],"status":"completed","intent":"order","category":[{"coding":[{"system":"http://snomed.info/sct","code":"387713003","display":"Surgical procedure"}]}],"priority":"routine","code":{"coding":[{"system":"http://loinc.org","code":"24701-5","display":"DXA Femur [Mass/Area] Bone density"}]},"subject":{"reference":"Patient/d665702b-77d4-4cce-9a4d-46b3da0157f1"},"encounter":{"reference":"Encounter/Encounter-51"},"occurrenceDateTime":"2025-01-02","authoredOn":"2025-01-02","performerType":{"coding":[{"system":"http://snomed.info/sct","code":"405279007","display":"Attending physician (occupation)"}]},"reasonCode":[{"coding":[{"system":"http://snomed.info/sct","code":"123614006","display":"Partial Cataract (disorder)"}]}]},"request":{"method":"PUT","url":"ServiceRequest/27c6949a-dcd5-433a-8ad2-56ec7db4529f"}},{"fullUrl":"https://madie.cms.gov/MeasureReport/efc2b031-8e69-424c-ba10-ca8dcb0291ac","resource":{"resourceType":"MeasureReport","id":"efc2b031-8e69-424c-ba10-ca8dcb0291ac","meta":{"profile":["http://hl7.org/fhir/us/cqfmeasures/StructureDefinition/test-case-cqfm"]},"contained":[{"resourceType":"Parameters","id":"42851307-d374-4680-9d74-c804f0eaf6d4-parameters","parameter":[{"name":"subject","valueString":"d665702b-77d4-4cce-9a4d-46b3da0157f1"}]}],"extension":[{"url":"http://hl7.org/fhir/us/cqfmeasures/StructureDefinition/cqfm-inputParameters","valueReference":{"reference":"#42851307-d374-4680-9d74-c804f0eaf6d4-parameters"}},{"url":"http://hl7.org/fhir/us/cqfmeasures/StructureDefinition/cqfm-testCaseDescription","valueMarkdown":"OST before DXA Scan"}],"modifierExtension":[{"url":"http://hl7.org/fhir/us/cqfmeasures/StructureDefinition/cqfm-isTestCase","valueBoolean":true}],"status":"complete","type":"individual","measure":"https://madie.cms.gov/Measure/AppropriateDXAScansForWomenUnder65FHIR","period":{"start":"2025-01-01","end":"2025-12-31"},"group":[{"population":[{"code":{"coding":[{"system":"http://terminology.hl7.org/CodeSystem/measure-population","code":"initial-population","display":"Initial Population"}]},"count":1},{"code":{"coding":[{"system":"http://terminology.hl7.org/CodeSystem/measure-population","code":"denominator","display":"Denominator"}]},"count":1},{"code":{"coding":[{"system":"http://terminology.hl7.org/CodeSystem/measure-population","code":"denominator-exclusion","display":"Denominator Exclusion"}]},"count":0},{"code":{"coding":[{"system":"http://terminology.hl7.org/CodeSystem/measure-population","code":"numerator","display":"Numerator"}]},"count":1},{"code":{"coding":[{"system":"http://terminology.hl7.org/CodeSystem/measure-population","code":"numerator-exclusion","display":"Numerator Exclusion"}]},"count":1}]}]},"request":{"method":"PUT","url":"MeasureReport/efc2b031-8e69-424c-ba10-ca8dcb0291ac"}}]}