{"resourceType":"Bundle","id":"tests-5436d957-23e1-4480-bf33-a9c7d27585ca-bundle","type":"transaction","entry":[{"fullUrl":"https://madie.cms.gov/Patient/5436d957-23e1-4480-bf33-a9c7d27585ca","resource":{"resourceType":"Patient","id":"5436d957-23e1-4480-bf33-a9c7d27585ca","meta":{"profile":["http://hl7.org/fhir/us/qicore/StructureDefinition/qicore-patient"]},"extension":[{"url":"http://hl7.org/fhir/us/core/StructureDefinition/us-core-race","extension":[{"url":"ombCategory","valueCoding":{"system":"urn:oid:2.16.840.1.113883.6.238","code":"2028-9","display":"Asian"}},{"url":"text","valueString":"Asian"}]},{"url":"http://hl7.org/fhir/us/core/StructureDefinition/us-core-ethnicity","extension":[{"url":"ombCategory","valueCoding":{"system":"urn:oid:2.16.840.1.113883.6.238","code":"2135-2","display":"Hispanic or Latino"}},{"url":"text","valueString":"Hispanic or Latino"}]}],"identifier":[{"system":"http://hospital.smarthealthit.org","value":"999999995"}],"name":[{"family":"Bertha","given":["Betty"]}],"gender":"female","birthDate":"1975-01-01"},"request":{"method":"PUT","url":"Patient/5436d957-23e1-4480-bf33-a9c7d27585ca"}},{"fullUrl":"https://madie.cms.gov/Encounter/Encounter-6","resource":{"resourceType":"Encounter","id":"fa5c31b3-d605-4c78-bdf8-f93e4130ba14","meta":{"profile":["http://hl7.org/fhir/us/qicore/StructureDefinition/qicore-encounter"]},"status":"finished","class":{"system":"http://terminology.hl7.org/CodeSystem/v3-ActCode","code":"AMB","display":"ambulatory"},"type":[{"coding":[{"system":"http://snomed.info/sct","code":"185317003","display":"Telephone encounter (procedure)"}]}],"subject":{"reference":"Patient/5436d957-23e1-4480-bf33-a9c7d27585ca"},"period":{"start":"2025-01-01T01:00:00.000Z","end":"2025-01-01T01:15:00.000Z"}},"request":{"method":"PUT","url":"Encounter/fa5c31b3-d605-4c78-bdf8-f93e4130ba14"}},{"fullUrl":"https://madie.cms.gov/Observation/Observation-6","resource":{"resourceType":"Observation","id":"f7dc0141-cdbe-4a45-9c25-f6261d1d4abe","meta":{"profile":["http://hl7.org/fhir/us/qicore/StructureDefinition/qicore-observation"]},"status":"final","category":[{"coding":[{"system":"http://terminology.hl7.org/CodeSystem/observation-category","code":"survey","display":"Survey"}],"text":"Survey"}],"code":{"coding":[{"system":"http://loinc.org","code":"74013-4","display":"Alcoholic drinks per day"}],"text":"AverageDrinks"},"subject":{"reference":"Patient/5436d957-23e1-4480-bf33-a9c7d27585ca"},"effectiveDateTime":"2025-01-01T00:00:00.000Z","valueQuantity":{"value":1,"unit":"{drinks}/d","system":"http://unitsofmeasure.org","code":"{drinks}/d"}},"request":{"method":"PUT","url":"Observation/f7dc0141-cdbe-4a45-9c25-f6261d1d4abe"}},{"fullUrl":"https://madie.cms.gov/MeasureReport/455d047d-9197-4f27-8454-544957298dee","resource":{"resourceType":"MeasureReport","id":"455d047d-9197-4f27-8454-544957298dee","meta":{"profile":["http://hl7.org/fhir/us/cqfmeasures/StructureDefinition/test-case-cqfm"]},"contained":[{"resourceType":"Parameters","id":"17db5242-3484-430e-9b82-b036b54b18e9-parameters","parameter":[{"name":"subject","valueString":"5436d957-23e1-4480-bf33-a9c7d27585ca"}]}],"extension":[{"url":"http://hl7.org/fhir/us/cqfmeasures/StructureDefinition/cqfm-inputParameters","valueReference":{"reference":"#17db5242-3484-430e-9b82-b036b54b18e9-parameters"}},{"url":"http://hl7.org/fhir/us/cqfmeasures/StructureDefinition/cqfm-testCaseDescription","valueMarkdown":"Patient only has 1 average drink per day."}],"modifierExtension":[{"url":"http://hl7.org/fhir/us/cqfmeasures/StructureDefinition/cqfm-isTestCase","valueBoolean":true}],"status":"complete","type":"individual","measure":"https://madie.cms.gov/Measure/AppropriateDXAScansForWomenUnder65FHIR","period":{"start":"2025-01-01","end":"2025-12-31"},"group":[{"population":[{"code":{"coding":[{"system":"http://terminology.hl7.org/CodeSystem/measure-population","code":"initial-population","display":"Initial Population"}]},"count":1},{"code":{"coding":[{"system":"http://terminology.hl7.org/CodeSystem/measure-population","code":"denominator","display":"Denominator"}]},"count":1},{"code":{"coding":[{"system":"http://terminology.hl7.org/CodeSystem/measure-population","code":"denominator-exclusion","display":"Denominator Exclusion"}]},"count":0},{"code":{"coding":[{"system":"http://terminology.hl7.org/CodeSystem/measure-population","code":"numerator","display":"Numerator"}]},"count":0},{"code":{"coding":[{"system":"http://terminology.hl7.org/CodeSystem/measure-population","code":"numerator-exclusion","display":"Numerator Exclusion"}]},"count":0}]}]},"request":{"method":"PUT","url":"MeasureReport/455d047d-9197-4f27-8454-544957298dee"}}]}