{"resourceType":"Bundle","id":"tests-52e1963a-b73b-49c8-853b-2eaac1803db1-bundle","type":"transaction","entry":[{"fullUrl":"https://madie.cms.gov/Patient/52e1963a-b73b-49c8-853b-2eaac1803db1","resource":{"resourceType":"Patient","id":"52e1963a-b73b-49c8-853b-2eaac1803db1","meta":{"profile":["http://hl7.org/fhir/us/qicore/StructureDefinition/qicore-patient"]},"extension":[{"url":"http://hl7.org/fhir/us/core/StructureDefinition/us-core-race","extension":[{"url":"ombCategory","valueCoding":{"system":"urn:oid:2.16.840.1.113883.6.238","code":"2028-9","display":"Asian"}},{"url":"text","valueString":"Asian"}]},{"url":"http://hl7.org/fhir/us/core/StructureDefinition/us-core-ethnicity","extension":[{"url":"ombCategory","valueCoding":{"system":"urn:oid:2.16.840.1.113883.6.238","code":"2135-2","display":"Hispanic or Latino"}},{"url":"text","valueString":"Hispanic or Latino"}]}],"identifier":[{"system":"http://hospital.smarthealthit.org","value":"999999995"}],"name":[{"family":"Bertha","given":["Betty"]}],"gender":"female","birthDate":"1975-01-01"},"request":{"method":"PUT","url":"Patient/52e1963a-b73b-49c8-853b-2eaac1803db1"}},{"fullUrl":"https://madie.cms.gov/Encounter/Encounter-22","resource":{"resourceType":"Encounter","id":"f6370e3e-5919-4fa6-9352-01a6ae05df36","meta":{"profile":["http://hl7.org/fhir/us/qicore/StructureDefinition/qicore-encounter"]},"status":"finished","class":{"system":"http://terminology.hl7.org/CodeSystem/v3-ActCode","code":"AMB","display":"ambulatory"},"type":[{"coding":[{"system":"http://snomed.info/sct","code":"185317003","display":"Telephone encounter (procedure)"}]}],"subject":{"reference":"Patient/52e1963a-b73b-49c8-853b-2eaac1803db1"},"period":{"start":"2025-01-01T00:00:00.000Z","end":"2025-01-01T01:15:00.000Z"}},"request":{"method":"PUT","url":"Encounter/f6370e3e-5919-4fa6-9352-01a6ae05df36"}},{"fullUrl":"https://madie.cms.gov/Procedure/Procedure-22","resource":{"resourceType":"Procedure","id":"2538c625-b674-48ef-9a62-759e76c1f11b","meta":{"profile":["http://hl7.org/fhir/us/qicore/StructureDefinition/qicore-procedure"]},"extension":[{"url":"http://hl7.org/fhir/us/qicore/StructureDefinition/qicore-recorded","valueDateTime":"2026-01-01T00:00:00.000Z"}],"status":"completed","code":{"coding":[{"system":"http://snomed.info/sct","code":"29827000","display":"Excision of bilateral fallopian tubes and ovaries (procedure)"}]},"subject":{"reference":"Patient/52e1963a-b73b-49c8-853b-2eaac1803db1"},"performedPeriod":{"start":"2026-01-01T00:00:00.000Z","end":"2026-01-01T23:59:00.000Z"}},"request":{"method":"PUT","url":"Procedure/2538c625-b674-48ef-9a62-759e76c1f11b"}},{"fullUrl":"https://madie.cms.gov/MeasureReport/09a299b0-12de-4ca8-a5c1-20bbf34ad9d1","resource":{"resourceType":"MeasureReport","id":"09a299b0-12de-4ca8-a5c1-20bbf34ad9d1","meta":{"profile":["http://hl7.org/fhir/us/cqfmeasures/StructureDefinition/test-case-cqfm"]},"contained":[{"resourceType":"Parameters","id":"99429a57-3b6a-4cfa-b4ed-60d8fc4857f0-parameters","parameter":[{"name":"subject","valueString":"52e1963a-b73b-49c8-853b-2eaac1803db1"}]}],"extension":[{"url":"http://hl7.org/fhir/us/cqfmeasures/StructureDefinition/cqfm-inputParameters","valueReference":{"reference":"#99429a57-3b6a-4cfa-b4ed-60d8fc4857f0-parameters"}},{"url":"http://hl7.org/fhir/us/cqfmeasures/StructureDefinition/cqfm-testCaseDescription","valueMarkdown":"Bilateral Oophorectomy procedure in patient history after the MP"}],"modifierExtension":[{"url":"http://hl7.org/fhir/us/cqfmeasures/StructureDefinition/cqfm-isTestCase","valueBoolean":true}],"status":"complete","type":"individual","measure":"https://madie.cms.gov/Measure/AppropriateDXAScansForWomenUnder65FHIR","period":{"start":"2025-01-01","end":"2025-12-31"},"group":[{"population":[{"code":{"coding":[{"system":"http://terminology.hl7.org/CodeSystem/measure-population","code":"initial-population","display":"Initial Population"}]},"count":1},{"code":{"coding":[{"system":"http://terminology.hl7.org/CodeSystem/measure-population","code":"denominator","display":"Denominator"}]},"count":1},{"code":{"coding":[{"system":"http://terminology.hl7.org/CodeSystem/measure-population","code":"denominator-exclusion","display":"Denominator Exclusion"}]},"count":0},{"code":{"coding":[{"system":"http://terminology.hl7.org/CodeSystem/measure-population","code":"numerator","display":"Numerator"}]},"count":0},{"code":{"coding":[{"system":"http://terminology.hl7.org/CodeSystem/measure-population","code":"numerator-exclusion","display":"Numerator Exclusion"}]},"count":0}]}]},"request":{"method":"PUT","url":"MeasureReport/09a299b0-12de-4ca8-a5c1-20bbf34ad9d1"}}]}