{"resourceType":"Bundle","id":"tests-65ebfa3e-53d4-4e0c-9870-c7247fc1eb97-bundle","type":"transaction","entry":[{"fullUrl":"https://madie.cms.gov/Patient/65ebfa3e-53d4-4e0c-9870-c7247fc1eb97","resource":{"resourceType":"Patient","id":"65ebfa3e-53d4-4e0c-9870-c7247fc1eb97","meta":{"profile":["http://hl7.org/fhir/us/qicore/StructureDefinition/qicore-patient"]},"extension":[{"url":"http://hl7.org/fhir/us/core/StructureDefinition/us-core-race","extension":[{"url":"ombCategory","valueCoding":{"system":"urn:oid:2.16.840.1.113883.6.238","code":"2028-9","display":"Asian","userSelected":true}},{"url":"text","valueString":"Asian"}]},{"url":"http://hl7.org/fhir/us/core/StructureDefinition/us-core-ethnicity","extension":[{"url":"ombCategory","valueCoding":{"system":"urn:oid:2.16.840.1.113883.6.238","code":"2135-2","display":"Hispanic or Latino","userSelected":true}},{"url":"text","valueString":"Hispanic or Latino"}]}],"identifier":[{"type":{"coding":[{"system":"http://terminology.hl7.org/CodeSystem/v2-0203","code":"MR"}]},"system":"http://hospital.smarthealthit.org","value":"999999995"}],"name":[{"family":"Bertha","given":["Betty"]}],"gender":"female","birthDate":"1975-01-01"},"request":{"method":"PUT","url":"Patient/65ebfa3e-53d4-4e0c-9870-c7247fc1eb97"}},{"fullUrl":"https://madie.cms.gov/Encounter/Encounter-50","resource":{"resourceType":"Encounter","id":"6190b5d0-0c47-40d5-9fbb-0fed7aad9e26","meta":{"profile":["http://hl7.org/fhir/us/qicore/StructureDefinition/qicore-encounter"]},"status":"finished","class":{"system":"http://terminology.hl7.org/CodeSystem/v3-ActCode","code":"AMB","display":"ambulatory"},"type":[{"coding":[{"system":"http://snomed.info/sct","code":"185317003","display":"Telephone encounter (procedure)"}]}],"subject":{"reference":"Patient/65ebfa3e-53d4-4e0c-9870-c7247fc1eb97"},"period":{"start":"2025-01-01T01:00:00.000Z","end":"2025-01-01T01:15:00.000Z"}},"request":{"method":"PUT","url":"Encounter/6190b5d0-0c47-40d5-9fbb-0fed7aad9e26"}},{"fullUrl":"https://madie.cms.gov/Observation/Observation-50","resource":{"resourceType":"Observation","id":"25cc6d0e-c20c-4e31-9e3e-fb13d2ad37c4","meta":{"profile":["http://hl7.org/fhir/us/qicore/StructureDefinition/qicore-observation"]},"status":"final","category":[{"coding":[{"system":"http://terminology.hl7.org/CodeSystem/observation-category","code":"survey","display":"Survey"}],"text":"Survey"}],"code":{"coding":[{"system":"http://loinc.org","code":"98133-2","display":"Osteoporosis Index of Risk panel"}],"text":"OSIRIS"},"subject":{"reference":"Patient/65ebfa3e-53d4-4e0c-9870-c7247fc1eb97"},"effectiveDateTime":"2025-01-01T00:00:00.000Z","valueQuantity":{"value":0.9}},"request":{"method":"PUT","url":"Observation/25cc6d0e-c20c-4e31-9e3e-fb13d2ad37c4"}},{"fullUrl":"https://madie.cms.gov/ServiceRequest/ServiceRequest-50","resource":{"resourceType":"ServiceRequest","id":"f1ee2382-fe0f-42f8-964d-e538c09d1e5c","meta":{"profile":["http://hl7.org/fhir/us/qicore/StructureDefinition/qicore-servicerequest"]},"extension":[{"url":"http://hl7.org/fhir/StructureDefinition/request-statusReason","valueCodeableConcept":{"coding":[{"system":"http://snomed.info/sct","code":"15635006","display":"Requested by Patient"}]}}],"status":"completed","intent":"order","category":[{"coding":[{"system":"http://snomed.info/sct","code":"387713003","display":"Surgical procedure"}]}],"priority":"routine","code":{"coding":[{"system":"http://loinc.org","code":"24701-5","display":"DXA Femur [Mass/Area] Bone density"}]},"subject":{"reference":"Patient/65ebfa3e-53d4-4e0c-9870-c7247fc1eb97"},"encounter":{"reference":"Encounter/Encounter-50"},"occurrenceDateTime":"2025-01-02","authoredOn":"2025-01-02","performerType":{"coding":[{"system":"http://snomed.info/sct","code":"405279007","display":"Attending physician (occupation)"}]},"reasonCode":[{"coding":[{"system":"http://snomed.info/sct","code":"123614006","display":"Partial Cataract (disorder)"}]}]},"request":{"method":"PUT","url":"ServiceRequest/f1ee2382-fe0f-42f8-964d-e538c09d1e5c"}},{"fullUrl":"https://madie.cms.gov/MeasureReport/f3ffed30-c16d-4894-acc3-32c1dd5f0c2f","resource":{"resourceType":"MeasureReport","id":"f3ffed30-c16d-4894-acc3-32c1dd5f0c2f","meta":{"profile":["http://hl7.org/fhir/us/cqfmeasures/StructureDefinition/test-case-cqfm"]},"contained":[{"resourceType":"Parameters","id":"3f602415-d1dd-4614-be00-d01828a505b5-parameters","parameter":[{"name":"subject","valueString":"65ebfa3e-53d4-4e0c-9870-c7247fc1eb97"}]}],"extension":[{"url":"http://hl7.org/fhir/us/cqfmeasures/StructureDefinition/cqfm-inputParameters","valueReference":{"reference":"#3f602415-d1dd-4614-be00-d01828a505b5-parameters"}},{"url":"http://hl7.org/fhir/us/cqfmeasures/StructureDefinition/cqfm-testCaseDescription","valueMarkdown":"OSIRIS before DXA Scan"}],"modifierExtension":[{"url":"http://hl7.org/fhir/us/cqfmeasures/StructureDefinition/cqfm-isTestCase","valueBoolean":true}],"status":"complete","type":"individual","measure":"https://madie.cms.gov/Measure/AppropriateDXAScansForWomenUnder65FHIR","period":{"start":"2025-01-01","end":"2025-12-31"},"group":[{"population":[{"code":{"coding":[{"system":"http://terminology.hl7.org/CodeSystem/measure-population","code":"initial-population","display":"Initial Population"}]},"count":1},{"code":{"coding":[{"system":"http://terminology.hl7.org/CodeSystem/measure-population","code":"denominator","display":"Denominator"}]},"count":1},{"code":{"coding":[{"system":"http://terminology.hl7.org/CodeSystem/measure-population","code":"denominator-exclusion","display":"Denominator Exclusion"}]},"count":0},{"code":{"coding":[{"system":"http://terminology.hl7.org/CodeSystem/measure-population","code":"numerator","display":"Numerator"}]},"count":1},{"code":{"coding":[{"system":"http://terminology.hl7.org/CodeSystem/measure-population","code":"numerator-exclusion","display":"Numerator Exclusion"}]},"count":1}]}]},"request":{"method":"PUT","url":"MeasureReport/f3ffed30-c16d-4894-acc3-32c1dd5f0c2f"}}]}