{
  "resourceType": "Bundle",
  "id": "63ec0969ccb3770120fe9ec7",
  "type": "transaction",
  "entry": [ {
    "fullUrl": "https://madie.cms.gov/Patient/b0245fca-030a-497b-9a0f-47ee78678dbe",
    "resource": {
      "resourceType": "Patient",
      "id": "b0245fca-030a-497b-9a0f-47ee78678dbe",
      "meta": {
        "profile": [ "http://hl7.org/fhir/us/qicore/StructureDefinition/qicore-patient" ]
      },
      "text": {
        "status": "generated",
        "div": "<div xmlns=\"http://www.w3.org/1999/xhtml\"><div class=\"hapiHeaderText\">24After <b>PLATELETPASS </b></div><table class=\"hapiPropertyTable\"><tbody><tr><td>Identifier</td><td>3fdea26b1d172050afffe1c0ff7bd899faa0bd0df7d367f433ae26111f27549c</td></tr><tr><td>Date of birth</td><td><span>15 June 1956</span></td></tr></tbody></table></div>"
      },
      "extension": [ {
        "url": "http://hl7.org/fhir/us/core/StructureDefinition/us-core-race",
        "extension": [ {
          "url": "ombCategory",
          "valueCoding": {
            "system": "urn:oid:2.16.840.1.113883.6.238",
            "code": "1002-5",
            "display": "American Indian or Alaska Native",
            "userSelected": true
          }
        }, {
          "url": "text",
          "valueString": "American Indian or Alaska Native"
        } ]
      }, {
        "url": "http://hl7.org/fhir/us/core/StructureDefinition/us-core-ethnicity",
        "extension": [ {
          "url": "ombCategory",
          "valueCoding": {
            "system": "urn:oid:2.16.840.1.113883.6.238",
            "code": "2186-5",
            "display": "Not Hispanic or Latino",
            "userSelected": true
          }
        }, {
          "url": "text",
          "valueString": "Not Hispanic or Latino"
        } ]
      } ],
      "identifier": [ {
        "type": {
          "coding": [ {
            "system": "http://terminology.hl7.org/CodeSystem/v2-0203",
            "code": "MR"
          } ]
        },
        "system": "https://bonnie-fhir.healthit.gov/",
        "value": "63ec0969ccb3770120fe9ec7"
      } ],
      "active": true,
      "name": [ {
        "use": "usual",
        "family": "PlateletPass",
        "given": [ "24AfterStartOfAdmit" ]
      } ],
      "gender": "male",
      "birthDate": "1960-06-30"
    },
    "request": {
      "method": "POST",
      "url": "Patient/b0245fca-030a-497b-9a0f-47ee78678dbe"
    }
  }, {
    "fullUrl": "https://madie.cms.gov/Encounter/5e06503a9350f90000fe25a8",
    "resource": {
      "resourceType": "Encounter",
      "id": "5e06503a9350f90000fe25a8",
      "meta": {
        "profile": [ "http://hl7.org/fhir/us/qicore/StructureDefinition/qicore-encounter" ]
      },
      "status": "finished",
      "class": {
        "system": "http://terminology.hl7.org/CodeSystem/v3-ActCode",
        "code": "IMP",
        "display": "inpatient encounter",
        "userSelected": true
      },
      "type": [ {
        "coding": [ {
          "system": "http://snomed.info/sct",
          "code": "183452005",
          "display": "Emergency hospital admission (procedure)"
        } ]
      } ],
      "subject": {
        "reference": "Patient/b0245fca-030a-497b-9a0f-47ee78678dbe"
      },
      "period": {
        "start": "2025-07-01T08:00:00.000+00:00",
        "end": "2025-07-03T11:15:00.000+00:00"
      },
      "length": {
        "value": 2.0,
        "unit": "days"
      }
    },
    "request": {
      "method": "POST",
      "url": "Encounter/5e06503a9350f90000fe25a8"
    }
  }, {
    "fullUrl": "https://madie.cms.gov/Coverage/5f996975b977ef0000c02e1a",
    "resource": {
      "resourceType": "Coverage",
      "id": "5f996975b977ef0000c02e1a",
      "meta": {
        "profile": [ "http://hl7.org/fhir/us/qicore/StructureDefinition/qicore-coverage" ]
      },
      "status": "active",
      "type": {
        "coding": [ {
          "system": "https://nahdo.org/sopt",
          "version": "1.0.1",
          "code": "1",
          "display": "Medicare payer",
          "userSelected": true
        } ]
      },
      "beneficiary": {
        "reference": "Patient/b0245fca-030a-497b-9a0f-47ee78678dbe"
      },
      "payor": [ {
        "reference": "Organization/123456"
      } ]
    },
    "request": {
      "method": "POST",
      "url": "Coverage/5f996975b977ef0000c02e1a"
    }
  }, {
    "fullUrl": "https://madie.cms.gov/Observation/5b5f8c6eb848461e71030b29",
    "resource": {
      "resourceType": "Observation",
      "id": "5b5f8c6eb848461e71030b29",
      "meta": {
        "profile": [ "http://hl7.org/fhir/us/core/StructureDefinition/us-core-observation-lab" ]
      },
      "status": "final",
      "category": [ {
        "coding": [ {
          "system": "http://terminology.hl7.org/CodeSystem/observation-category",
          "code": "laboratory",
          "display": "laboratory",
          "userSelected": true
        } ]
      } ],
      "code": {
        "coding": [ {
          "system": "http://loinc.org",
          "code": "13056-7",
          "display": "Platelets [#/volume] in Plasma by Automated count"
        } ]
      },
      "subject": {
        "reference": "Patient/b0245fca-030a-497b-9a0f-47ee78678dbe"
      },
      "effectiveDateTime": "2025-07-02T08:00:00.000+00:00",
      "issued": "2025-07-02T08:00:00.000+00:00",
      "valueQuantity": {
        "value": 150000,
        "unit": "/uL",
        "system": "http://unitsofmeasure.org",
        "code": "/uL"
      }
    },
    "request": {
      "method": "POST",
      "url": "Observation/5b5f8c6eb848461e71030b29"
    }
  }, {
    "fullUrl": "https://madie.cms.gov/Organization/123456",
    "resource": {
      "resourceType": "Organization",
      "id": "123456",
      "meta": {
        "profile": [ "http://hl7.org/fhir/us/qicore/StructureDefinition/qicore-organization" ]
      },
      "identifier": [ {
        "use": "temp",
        "system": "urn:oid:2.16.840.1.113883.4.4",
        "value": "21-3259825"
      } ],
      "active": true,
      "type": [ {
        "coding": [ {
          "system": "http://terminology.hl7.org/CodeSystem/organization-type",
          "code": "pay",
          "display": "Payer"
        } ]
      } ],
      "name": "Blue Cross Blue Shield of Texas",
      "telecom": [ {
        "system": "phone",
        "value": "(+1) 972-766-6900"
      } ],
      "address": [ {
        "use": "billing",
        "type": "postal",
        "line": [ "P.O. Box 660044" ],
        "city": "Dallas",
        "state": "TX",
        "postalCode": "75266-0044",
        "country": "USA"
      } ]
    },
    "request": {
      "method": "POST",
      "url": "Organization/123456"
    }
  }, {
    "fullUrl": "https://madie.cms.gov/Practitioner/practitioner-123456",
    "resource": {
      "resourceType": "Practitioner",
      "id": "practitioner-123456",
      "meta": {
        "profile": [ "http://hl7.org/fhir/us/qicore/StructureDefinition/qicore-practitioner" ]
      },
      "identifier": [ {
        "system": "http://hl7.org/fhir/sid/us-npi",
        "value": "123456"
      } ],
      "name": [ {
        "family": "Evil",
        "prefix": [ "Dr" ]
      } ]
    },
    "request": {
      "method": "POST",
      "url": "Practitioner/practitioner-123456"
    }
  }, {
    "fullUrl": "https://madie.cms.gov/MeasureReport/235cd5a9-d778-412d-a8e1-37655efea3f6",
    "resource": {
      "resourceType": "MeasureReport",
      "id": "235cd5a9-d778-412d-a8e1-37655efea3f6",
      "meta": {
        "profile": [ "http://hl7.org/fhir/us/cqfmeasures/StructureDefinition/test-case-cqfm" ]
      },
      "contained": [ {
        "resourceType": "Parameters",
        "id": "e08d83a5-30fa-4e2b-93dc-78e7f37ddb69-parameters",
        "parameter": [ {
          "name": "subject",
          "valueString": "b0245fca-030a-497b-9a0f-47ee78678dbe"
        } ]
      } ],
      "extension": [ {
        "url": "http://hl7.org/fhir/us/cqfmeasures/StructureDefinition/cqfm-inputParameters",
        "valueReference": {
          "reference": "#e08d83a5-30fa-4e2b-93dc-78e7f37ddb69-parameters"
        }
      }, {
        "url": "http://hl7.org/fhir/us/cqfmeasures/StructureDefinition/cqfm-testCaseDescription",
        "valueMarkdown": "Enc first day of  MP (7/1) , age 65 yesterday, Platelet lab occurred 24 hours after start of inpatient encounter\n"
      } ],
      "modifierExtension": [ {
        "url": "http://hl7.org/fhir/us/cqfmeasures/StructureDefinition/cqfm-isTestCase",
        "valueBoolean": true
      } ],
      "status": "complete",
      "type": "individual",
      "measure": "https://madie.cms.gov/Measure/HybridHospitalWideMortalityFHIR",
      "period": {
        "start": "2025-01-01",
        "end": "2025-12-31"
      },
      "group": [ {
        "population": [ {
          "code": {
            "coding": [ {
              "system": "http://terminology.hl7.org/CodeSystem/measure-population",
              "code": "initial-population",
              "display": "Initial Population"
            } ]
          },
          "count": 1
        } ]
      } ],
      "evaluatedResource": [ {
        "reference": "https://madie.cms.gov/Patient/b0245fca-030a-497b-9a0f-47ee78678dbe"
      }, {
        "reference": "https://madie.cms.gov/Encounter/5e06503a9350f90000fe25a8"
      }, {
        "reference": "https://madie.cms.gov/Coverage/5f996975b977ef0000c02e1a"
      }, {
        "reference": "https://madie.cms.gov/Observation/5b5f8c6eb848461e71030b29"
      }, {
        "reference": "https://madie.cms.gov/Organization/123456"
      }, {
        "reference": "https://madie.cms.gov/Practitioner/practitioner-123456"
      } ]
    },
    "request": {
      "method": "POST",
      "url": "MeasureReport/235cd5a9-d778-412d-a8e1-37655efea3f6"
    }
  } ]
}