{
  "resourceType": "Bundle",
  "id": "ippfail-duringencounter",
  "type": "transaction",
  "entry": [ {
    "fullUrl": "https://madie.cms.gov/Patient/9799ac8e-b6b6-4159-bd9a-97a4ba98366d",
    "resource": {
      "resourceType": "Patient",
      "id": "9799ac8e-b6b6-4159-bd9a-97a4ba98366d",
      "meta": {
        "profile": [ "http://hl7.org/fhir/us/core/StructureDefinition/us-core-patient", "http://hl7.org/fhir/us/qicore/StructureDefinition/qicore-patient" ]
      },
      "extension": [ {
        "url": "http://hl7.org/fhir/us/core/StructureDefinition/us-core-race",
        "extension": [ {
          "url": "ombCategory",
          "valueCoding": {
            "system": "urn:oid:2.16.840.1.113883.6.238",
            "code": "2028-9",
            "display": "Asian"
          }
        }, {
          "url": "text",
          "valueString": "Asian"
        } ]
      }, {
        "url": "http://hl7.org/fhir/us/core/StructureDefinition/us-core-ethnicity",
        "extension": [ {
          "url": "ombCategory",
          "valueCoding": {
            "system": "urn:oid:2.16.840.1.113883.6.238",
            "code": "2135-2",
            "display": "Hispanic or Latino"
          }
        }, {
          "url": "text",
          "valueString": "Hispanic or Latino"
        } ]
      } ],
      "identifier": [ {
        "system": "http://hospital.smarthealthit.org",
        "value": "999999995"
      } ],
      "name": [ {
        "family": "DuringEncounter",
        "given": [ "IPPFail" ]
      } ],
      "gender": "male",
      "birthDate": "1991-06-12"
    },
    "request": {
      "method": "POST",
      "url": "Patient/9799ac8e-b6b6-4159-bd9a-97a4ba98366d"
    }
  }, {
    "fullUrl": "https://madie.cms.gov/Encounter/ippfail-duringencounter-1",
    "resource": {
      "resourceType": "Encounter",
      "id": "0b2be7b6-4cd2-4449-8b02-433a2331c1b5",
      "meta": {
        "profile": [ "http://hl7.org/fhir/us/qicore/StructureDefinition/qicore-encounter" ]
      },
      "status": "finished",
      "class": {
        "system": "http://terminology.hl7.org/CodeSystem/v3-ActCode",
        "code": "IMP",
        "display": "inpatient encounter"
      },
      "type": [ {
        "coding": [ {
          "system": "http://snomed.info/sct",
          "code": "183452005",
          "display": "Emergency hospital admission"
        } ]
      } ],
      "subject": {
        "reference": "Patient/9799ac8e-b6b6-4159-bd9a-97a4ba98366d"
      },
      "period": {
        "start": "2025-02-01T00:00:00.000Z",
        "end": "2025-02-03T01:00:00.000Z"
      }
    },
    "request": {
      "method": "POST",
      "url": "Encounter/0b2be7b6-4cd2-4449-8b02-433a2331c1b5"
    }
  }, {
    "fullUrl": "https://madie.cms.gov/Observation/ippfail-duringencounter-2",
    "resource": {
      "resourceType": "Observation",
      "id": "ippfail-duringencounter-2",
      "meta": {
        "profile": [ "http://hl7.org/fhir/us/qicore/StructureDefinition/qicore-observation" ]
      },
      "status": "final",
      "category": [ {
        "coding": [ {
          "system": "http://terminology.hl7.org/CodeSystem/observation-category",
          "code": "imaging",
          "display": "Imaging"
        } ]
      } ],
      "code": {
        "coding": [ {
          "system": "http://loinc.org",
          "code": "96914-7",
          "display": "CT dose and image quality category"
        } ],
        "text": "CT dose and image quality category"
      },
      "subject": {
        "reference": "Patient/9799ac8e-b6b6-4159-bd9a-97a4ba98366d"
      },
      "encounter": {
        "reference": "Encounter/0b2be7b6-4cd2-4449-8b02-433a2331c1b5"
      },
      "effectiveDateTime": "2025-02-02T00:00:00.000Z",
      "valueCodeableConcept": {
        "coding": [ {
          "system": "http://loinc.org",
          "code": "LA31753-9",
          "display": "Abdomen and Pelvis Routine Dose"
        } ]
      },
      "component": [ {
        "code": {
          "coding": [ {
            "system": "http://loinc.org",
            "code": "96912-1",
            "display": "Calculated CT global noise"
          } ]
        },
        "valueQuantity": {
          "value": 63,
          "unit": "[hnsf'U]",
          "system": "http://unitsofmeasure.org",
          "code": "[hnsf'U]"
        }
      }, {
        "code": {
          "coding": [ {
            "system": "http://loinc.org",
            "code": "96913-9",
            "display": "Calculated CT size-adjusted dose"
          } ]
        },
        "valueQuantity": {
          "value": 597,
          "unit": "mGy.cm",
          "system": "http://unitsofmeasure.org",
          "code": "mGy.cm"
        }
      } ]
    },
    "request": {
      "method": "POST",
      "url": "Observation/ippfail-duringencounter-2"
    }
  }, {
    "fullUrl": "https://madie.cms.gov/MeasureReport/82174b53-b90c-44d7-9928-9e42679f2d74",
    "resource": {
      "resourceType": "MeasureReport",
      "id": "82174b53-b90c-44d7-9928-9e42679f2d74",
      "meta": {
        "profile": [ "http://hl7.org/fhir/us/cqfmeasures/StructureDefinition/test-case-cqfm" ]
      },
      "contained": [ {
        "resourceType": "Parameters",
        "id": "e56470b6-9b3f-4a0d-a6ea-4032675b54e7-parameters",
        "parameter": [ {
          "name": "subject",
          "valueString": "9799ac8e-b6b6-4159-bd9a-97a4ba98366d"
        } ]
      } ],
      "extension": [ {
        "url": "http://hl7.org/fhir/us/cqfmeasures/StructureDefinition/cqfm-inputParameters",
        "valueReference": {
          "reference": "#e56470b6-9b3f-4a0d-a6ea-4032675b54e7-parameters"
        }
      }, {
        "url": "http://hl7.org/fhir/us/cqfmeasures/StructureDefinition/cqfm-testCaseDescription",
        "valueMarkdown": "Patient has a valid scan but it occurs during an inpatient encounter so it should not meet IPP"
      } ],
      "modifierExtension": [ {
        "url": "http://hl7.org/fhir/us/cqfmeasures/StructureDefinition/cqfm-isTestCase",
        "valueBoolean": true
      } ],
      "status": "complete",
      "type": "individual",
      "measure": "https://madie.cms.gov/Measure/ALARACTOQRFHIR",
      "period": {
        "start": "2025-01-01",
        "end": "2025-12-31"
      },
      "group": [ {
        "population": [ {
          "code": {
            "coding": [ {
              "system": "http://terminology.hl7.org/CodeSystem/measure-population",
              "code": "initial-population",
              "display": "Initial Population"
            } ]
          },
          "count": 0
        }, {
          "code": {
            "coding": [ {
              "system": "http://terminology.hl7.org/CodeSystem/measure-population",
              "code": "denominator",
              "display": "Denominator"
            } ]
          },
          "count": 0
        }, {
          "code": {
            "coding": [ {
              "system": "http://terminology.hl7.org/CodeSystem/measure-population",
              "code": "denominator-exclusion",
              "display": "Denominator Exclusion"
            } ]
          },
          "count": 0
        }, {
          "code": {
            "coding": [ {
              "system": "http://terminology.hl7.org/CodeSystem/measure-population",
              "code": "numerator",
              "display": "Numerator"
            } ]
          },
          "count": 0
        } ]
      } ],
      "evaluatedResource": [ {
        "reference": "https://madie.cms.gov/Patient/9799ac8e-b6b6-4159-bd9a-97a4ba98366d"
      }, {
        "reference": "https://madie.cms.gov/Encounter/ippfail-duringencounter-1"
      }, {
        "reference": "https://madie.cms.gov/Observation/ippfail-duringencounter-2"
      } ]
    },
    "request": {
      "method": "POST",
      "url": "MeasureReport/82174b53-b90c-44d7-9928-9e42679f2d74"
    }
  } ]
}