{"resourceType":"Bundle","id":"tests-2105cba2-6e61-487d-a737-3efe876028e8-bundle","type":"transaction","entry":[{"fullUrl":"https://madie.cms.gov/Patient/2105cba2-6e61-487d-a737-3efe876028e8","resource":{"resourceType":"Patient","id":"2105cba2-6e61-487d-a737-3efe876028e8","meta":{"profile":["http://hl7.org/fhir/us/qicore/StructureDefinition/qicore-patient"]},"extension":[{"url":"http://hl7.org/fhir/us/core/StructureDefinition/us-core-race","extension":[{"url":"ombCategory","valueCoding":{"system":"urn:oid:2.16.840.1.113883.6.238","code":"2106-3","display":"White"}},{"url":"text","valueString":"White"}]},{"url":"http://hl7.org/fhir/us/core/StructureDefinition/us-core-ethnicity","extension":[{"url":"ombCategory","valueCoding":{"system":"urn:oid:2.16.840.1.113883.6.238","code":"2135-2","display":"Hispanic or Latino","userSelected":true}},{"url":"text","valueString":"Hispanic or Latino"}]}],"identifier":[{"type":{"coding":[{"system":"http://terminology.hl7.org/CodeSystem/v2-0203","code":"MR"}]},"system":"https://GoodHealthCare.com","value":"900082319426"}],"name":[{"family":"DENEXFail","given":["MorbidObesityDxAbated"]}],"gender":"male","birthDate":"1958-01-10"},"request":{"method":"PUT","url":"Patient/2105cba2-6e61-487d-a737-3efe876028e8"}},{"fullUrl":"https://madie.cms.gov/Encounter/55509231","resource":{"resourceType":"Encounter","id":"37cb9732-68bf-4600-83bd-85f85e366e6d","meta":{"profile":["http://hl7.org/fhir/us/qicore/StructureDefinition/qicore-encounter"]},"status":"finished","class":{"system":"http://terminology.hl7.org/CodeSystem/v3-ActCode","code":"AMB","display":"ambulatory"},"type":[{"coding":[{"system":"http://snomed.info/sct","version":"http://snomed.info/sct/731000124108/version/20240301","code":"439740005","display":"Postoperative follow-up visit (procedure)","userSelected":true}]}],"subject":{"reference":"Patient/2105cba2-6e61-487d-a737-3efe876028e8"},"period":{"start":"2025-05-01T08:00:00.000+00:00","end":"2025-05-01T08:30:00.000+00:00"}},"request":{"method":"PUT","url":"Encounter/37cb9732-68bf-4600-83bd-85f85e366e6d"}},{"fullUrl":"https://madie.cms.gov/Condition/55509232","resource":{"resourceType":"Condition","id":"62d2fea0-14fc-46d9-bb7a-5c0c05aa5f08","meta":{"profile":["http://hl7.org/fhir/us/qicore/StructureDefinition/qicore-condition"]},"clinicalStatus":{"coding":[{"system":"http://terminology.hl7.org/CodeSystem/condition-clinical","code":"active","display":"active","userSelected":true}]},"verificationStatus":{"coding":[{"system":"http://terminology.hl7.org/CodeSystem/condition-ver-status","code":"confirmed","display":"Confirmed","userSelected":true}]},"category":[{"coding":[{"system":"http://terminology.hl7.org/CodeSystem/condition-category","code":"encounter-diagnosis","display":"Encounter Diagnosis"}]}],"code":{"coding":[{"system":"http://hl7.org/fhir/sid/icd-10-cm","version":"2024","code":"N40.1","display":"Benign prostatic hyperplasia with lower urinary tract symptoms","userSelected":true}]},"subject":{"reference":"Patient/2105cba2-6e61-487d-a737-3efe876028e8"},"onsetPeriod":{"start":"2024-12-14T15:00:00.000+00:00"}},"request":{"method":"PUT","url":"Condition/62d2fea0-14fc-46d9-bb7a-5c0c05aa5f08"}},{"fullUrl":"https://madie.cms.gov/Condition/55509600","resource":{"resourceType":"Condition","id":"b5b0ec12-a474-4f53-ae16-5c1eb0166c76","meta":{"profile":["http://hl7.org/fhir/us/qicore/StructureDefinition/qicore-condition"]},"clinicalStatus":{"coding":[{"system":"http://terminology.hl7.org/CodeSystem/condition-clinical","code":"inactive","display":"Inactive","userSelected":true}]},"verificationStatus":{"coding":[{"system":"http://terminology.hl7.org/CodeSystem/condition-ver-status","code":"confirmed","display":"Confirmed","userSelected":true}]},"category":[{"coding":[{"system":"http://terminology.hl7.org/CodeSystem/condition-category","code":"encounter-diagnosis","display":"Encounter Diagnosis"}]}],"code":{"coding":[{"system":"http://snomed.info/sct","version":"http://snomed.info/sct/731000124108/version/20240301","code":"238136002","display":"Morbid obesity (disorder)"}]},"subject":{"reference":"Patient/2105cba2-6e61-487d-a737-3efe876028e8"},"onsetPeriod":{"start":"2024-12-01T08:15:00.000+00:00"},"abatementDateTime":"2025-12-01T08:15:00.000+00:00"},"request":{"method":"PUT","url":"Condition/b5b0ec12-a474-4f53-ae16-5c1eb0166c76"}},{"fullUrl":"https://madie.cms.gov/Observation/55509233","resource":{"resourceType":"Observation","id":"27cfdb3c-1955-4d4e-94d6-1a0aaa4490f9","meta":{"profile":["http://hl7.org/fhir/us/qicore/StructureDefinition/qicore-observation"]},"status":"final","category":[{"coding":[{"system":"http://terminology.hl7.org/CodeSystem/observation-category","code":"survey","display":"Survey"}]}],"code":{"coding":[{"system":"http://loinc.org","version":"2.76","code":"80976-4","display":"International Prostate Symptom Score [IPSS]","userSelected":true}]},"subject":{"reference":"Patient/2105cba2-6e61-487d-a737-3efe876028e8"},"effectiveDateTime":"2025-01-02T08:15:00.000+00:00","valueInteger":5},"request":{"method":"PUT","url":"Observation/27cfdb3c-1955-4d4e-94d6-1a0aaa4490f9"}},{"fullUrl":"https://madie.cms.gov/Observation/55509234","resource":{"resourceType":"Observation","id":"2743874a-71b1-45c1-9bec-6e8a880208ed","meta":{"profile":["http://hl7.org/fhir/us/qicore/StructureDefinition/qicore-observation"]},"status":"final","category":[{"coding":[{"system":"http://terminology.hl7.org/CodeSystem/observation-category","code":"survey","display":"Survey"}]}],"code":{"coding":[{"system":"http://loinc.org","version":"2.76","code":"80976-4","display":"International Prostate Symptom Score [IPSS]","userSelected":true}]},"subject":{"reference":"Patient/2105cba2-6e61-487d-a737-3efe876028e8"},"effectiveDateTime":"2025-12-01T08:15:00.000+00:00","valueInteger":5},"request":{"method":"PUT","url":"Observation/2743874a-71b1-45c1-9bec-6e8a880208ed"}},{"fullUrl":"https://madie.cms.gov/MeasureReport/b4bfc4ee-0fef-4870-a331-9d8fe48cbbdc","resource":{"resourceType":"MeasureReport","id":"b4bfc4ee-0fef-4870-a331-9d8fe48cbbdc","meta":{"profile":["http://hl7.org/fhir/us/cqfmeasures/StructureDefinition/test-case-cqfm"]},"contained":[{"resourceType":"Parameters","id":"b442b0ef-7a48-42e3-82f4-e9886783da81-parameters","parameter":[{"name":"subject","valueString":"2105cba2-6e61-487d-a737-3efe876028e8"}]}],"extension":[{"url":"http://hl7.org/fhir/us/cqfmeasures/StructureDefinition/cqfm-inputParameters","valueReference":{"reference":"#b442b0ef-7a48-42e3-82f4-e9886783da81-parameters"}},{"url":"http://hl7.org/fhir/us/cqfmeasures/StructureDefinition/cqfm-testCaseDescription","valueMarkdown":"Patient meeting IP/Denominator critera fails denominator exclusion because morbid obesity diagnosis is abated."}],"modifierExtension":[{"url":"http://hl7.org/fhir/us/cqfmeasures/StructureDefinition/cqfm-isTestCase","valueBoolean":true}],"status":"complete","type":"individual","measure":"https://madie.cms.gov/Measure/UrinarySymptomScoreChangeAfterBenignProstaticHyperplasiaFHIR","period":{"start":"2025-01-01","end":"2025-12-31"},"group":[{"population":[{"code":{"coding":[{"system":"http://terminology.hl7.org/CodeSystem/measure-population","code":"initial-population","display":"Initial Population"}]},"count":1},{"code":{"coding":[{"system":"http://terminology.hl7.org/CodeSystem/measure-population","code":"denominator","display":"Denominator"}]},"count":1},{"code":{"coding":[{"system":"http://terminology.hl7.org/CodeSystem/measure-population","code":"denominator-exclusion","display":"Denominator Exclusion"}]},"count":0},{"code":{"coding":[{"system":"http://terminology.hl7.org/CodeSystem/measure-population","code":"numerator","display":"Numerator"}]},"count":0}]}]},"request":{"method":"PUT","url":"MeasureReport/b4bfc4ee-0fef-4870-a331-9d8fe48cbbdc"}}]}