{"resourceType":"Bundle","id":"tests-5339dd62-76a1-43b3-9965-d8b61478236a-bundle","type":"transaction","entry":[{"fullUrl":"https://madie.cms.gov/Patient/5339dd62-76a1-43b3-9965-d8b61478236a","resource":{"resourceType":"Patient","id":"5339dd62-76a1-43b3-9965-d8b61478236a","meta":{"profile":["http://hl7.org/fhir/us/qicore/StructureDefinition/qicore-patient"]},"extension":[{"url":"http://hl7.org/fhir/us/core/StructureDefinition/us-core-race","extension":[{"url":"ombCategory","valueCoding":{"system":"urn:oid:2.16.840.1.113883.6.238","code":"1002-5","display":"American Indian or Alaska Native"}},{"url":"text","valueString":"American Indian or Alaska Native"}]},{"url":"http://hl7.org/fhir/us/core/StructureDefinition/us-core-ethnicity","extension":[{"url":"ombCategory","valueCoding":{"system":"urn:oid:2.16.840.1.113883.6.238","code":"2135-2","display":"Hispanic or Latino"}},{"url":"text","valueString":"Hispanic or Latino"}]}],"identifier":[{"type":{"coding":[{"system":"http://terminology.hl7.org/CodeSystem/v2-0203","code":"MR"}]},"system":"https://bonnie-fhir.healthit.gov/","value":"6516516486115651"}],"active":true,"name":[{"use":"usual","family":"DENEXPass","given":["BMI44SameDayAs1stUSSNormalizedIntervalrelevantDatetime"]}],"gender":"male","birthDate":"1957-12-01"},"request":{"method":"PUT","url":"Patient/5339dd62-76a1-43b3-9965-d8b61478236a"}},{"fullUrl":"https://madie.cms.gov/Observation/5e4454592aa3190000e19b24","resource":{"resourceType":"Observation","id":"2e8204cd-2312-4516-a1c0-38e92666bcda","meta":{"profile":["http://hl7.org/fhir/us/qicore/StructureDefinition/qicore-observation"]},"status":"final","category":[{"coding":[{"system":"http://terminology.hl7.org/CodeSystem/observation-category","code":"survey","display":"Survey"}]}],"code":{"coding":[{"system":"http://loinc.org","version":"2.76","code":"80976-4"}]},"subject":{"reference":"Patient/5339dd62-76a1-43b3-9965-d8b61478236a"},"effectivePeriod":{"start":"2025-01-14T08:00:00.000+00:00"},"valueInteger":15},"request":{"method":"PUT","url":"Observation/2e8204cd-2312-4516-a1c0-38e92666bcda"}},{"fullUrl":"https://madie.cms.gov/Observation/5e4454742aa3190000e19b5d","resource":{"resourceType":"Observation","id":"5879bbba-76ca-45c7-8cec-3b69005ae291","meta":{"profile":["http://hl7.org/fhir/us/qicore/StructureDefinition/qicore-observation"]},"status":"final","category":[{"coding":[{"system":"http://terminology.hl7.org/CodeSystem/observation-category","code":"survey","display":"Survey"}]}],"code":{"coding":[{"system":"http://loinc.org","version":"2.76","code":"80976-4"}]},"subject":{"reference":"Patient/5339dd62-76a1-43b3-9965-d8b61478236a"},"effectivePeriod":{"start":"2025-09-12T08:00:00.000+00:00"},"valueInteger":5},"request":{"method":"PUT","url":"Observation/5879bbba-76ca-45c7-8cec-3b69005ae291"}},{"fullUrl":"https://madie.cms.gov/Condition/5e4454232aa3190000e19ad2","resource":{"resourceType":"Condition","id":"2eb9c971-7893-4e30-875d-c461931ba27c","meta":{"profile":["http://hl7.org/fhir/us/qicore/StructureDefinition/qicore-condition"]},"clinicalStatus":{"coding":[{"system":"http://terminology.hl7.org/CodeSystem/condition-clinical","code":"active","display":"active"}]},"verificationStatus":{"coding":[{"system":"http://terminology.hl7.org/CodeSystem/condition-ver-status","code":"confirmed","display":"Confirmed"}]},"category":[{"coding":[{"system":"http://terminology.hl7.org/CodeSystem/condition-category","code":"problem-list-item","display":"Problem List Item"}]}],"code":{"coding":[{"system":"http://hl7.org/fhir/sid/icd-10-cm","version":"2024","code":"N40.1"}]},"subject":{"reference":"Patient/5339dd62-76a1-43b3-9965-d8b61478236a"},"onsetPeriod":{"start":"2024-12-30T08:00:00.000+00:00"}},"request":{"method":"PUT","url":"Condition/2eb9c971-7893-4e30-875d-c461931ba27c"}},{"fullUrl":"https://madie.cms.gov/Encounter/5e4454042aa3190000e19a88","resource":{"resourceType":"Encounter","id":"c8bba995-a89f-432a-9ccf-af19f36b89a5","meta":{"profile":["http://hl7.org/fhir/us/qicore/StructureDefinition/qicore-encounter"]},"status":"finished","class":{"system":"http://terminology.hl7.org/CodeSystem/v3-ActCode","code":"AMB","display":"ambulatory"},"type":[{"coding":[{"system":"http://www.ama-assn.org/go/cpt","version":"2024","code":"99204"}]}],"subject":{"reference":"Patient/5339dd62-76a1-43b3-9965-d8b61478236a"},"period":{"start":"2025-01-12T08:00:00+00:00","end":"2025-01-12T09:15:00+00:00"}},"request":{"method":"PUT","url":"Encounter/c8bba995-a89f-432a-9ccf-af19f36b89a5"}},{"fullUrl":"https://madie.cms.gov/Observation/5fd3a731cb17330000e054d1","resource":{"resourceType":"Observation","id":"7bfe2f92-212f-4b7d-89cc-cc92ee5ab7b1","meta":{"profile":["http://hl7.org/fhir/StructureDefinition/bmi"]},"status":"final","category":[{"coding":[{"system":"http://terminology.hl7.org/CodeSystem/observation-category","code":"vital-signs","display":"Vital Signs"}]}],"code":{"coding":[{"system":"http://loinc.org","version":"2.76","code":"39156-5"}]},"subject":{"reference":"Patient/5339dd62-76a1-43b3-9965-d8b61478236a"},"effectiveDateTime":"2025-01-14T08:00:00.000+00:00","valueQuantity":{"value":44,"unit":"kg/m2","system":"http://unitsofmeasure.org","code":"kg/m2"}},"request":{"method":"PUT","url":"Observation/7bfe2f92-212f-4b7d-89cc-cc92ee5ab7b1"}},{"fullUrl":"https://madie.cms.gov/MeasureReport/05249811-104e-4971-bbb6-c56f738a9de9","resource":{"resourceType":"MeasureReport","id":"05249811-104e-4971-bbb6-c56f738a9de9","meta":{"profile":["http://hl7.org/fhir/us/cqfmeasures/StructureDefinition/test-case-cqfm"]},"contained":[{"resourceType":"Parameters","id":"981a5d1f-3331-4de8-84a4-c4964611c924-parameters","parameter":[{"name":"subject","valueString":"5339dd62-76a1-43b3-9965-d8b61478236a"}]}],"extension":[{"url":"http://hl7.org/fhir/us/cqfmeasures/StructureDefinition/cqfm-inputParameters","valueReference":{"reference":"#981a5d1f-3331-4de8-84a4-c4964611c924-parameters"}},{"url":"http://hl7.org/fhir/us/cqfmeasures/StructureDefinition/cqfm-testCaseDescription","valueMarkdown":"Male Patient with OV, BPH Diagnosis, initial and followup USS assessment meeting denominator criteria which falls into denominator exclusion population with BMI of 44 on day of initial assessment"}],"modifierExtension":[{"url":"http://hl7.org/fhir/us/cqfmeasures/StructureDefinition/cqfm-isTestCase","valueBoolean":true}],"status":"complete","type":"individual","measure":"https://madie.cms.gov/Measure/UrinarySymptomScoreChangeAfterBenignProstaticHyperplasiaFHIR","period":{"start":"2025-01-01","end":"2025-12-31"},"group":[{"population":[{"code":{"coding":[{"system":"http://terminology.hl7.org/CodeSystem/measure-population","code":"initial-population","display":"Initial Population"}]},"count":1},{"code":{"coding":[{"system":"http://terminology.hl7.org/CodeSystem/measure-population","code":"denominator","display":"Denominator"}]},"count":1},{"code":{"coding":[{"system":"http://terminology.hl7.org/CodeSystem/measure-population","code":"denominator-exclusion","display":"Denominator Exclusion"}]},"count":1},{"code":{"coding":[{"system":"http://terminology.hl7.org/CodeSystem/measure-population","code":"numerator","display":"Numerator"}]},"count":0}]}]},"request":{"method":"PUT","url":"MeasureReport/05249811-104e-4971-bbb6-c56f738a9de9"}}]}