{"resourceType":"Bundle","id":"tests-051c5977-9f2c-4e8b-8e02-ac3ec0c718d6-bundle","type":"transaction","entry":[{"fullUrl":"https://madie.cms.gov/Patient/051c5977-9f2c-4e8b-8e02-ac3ec0c718d6","resource":{"resourceType":"Patient","id":"051c5977-9f2c-4e8b-8e02-ac3ec0c718d6","meta":{"profile":["http://hl7.org/fhir/us/qicore/StructureDefinition/qicore-patient"]},"extension":[{"url":"http://hl7.org/fhir/us/core/StructureDefinition/us-core-race","extension":[{"url":"ombCategory","valueCoding":{"system":"urn:oid:2.16.840.1.113883.6.238","code":"2106-3","display":"White"}},{"url":"text","valueString":"White"}]},{"url":"http://hl7.org/fhir/us/core/StructureDefinition/us-core-ethnicity","extension":[{"url":"ombCategory","valueCoding":{"system":"urn:oid:2.16.840.1.113883.6.238","code":"2186-5","display":"Non Hispanic or Latino"}},{"url":"text","valueString":"Non Hispanic or Latino"}]}],"identifier":[{"type":{"coding":[{"system":"http://terminology.hl7.org/CodeSystem/v2-0203","code":"MR"}]},"system":"https://bonnie-fhir.healthit.gov/","value":"41654161684974312"}],"name":[{"family":"IPPass","given":["LastQOL"]}],"gender":"male","birthDate":"1951-12-01"},"request":{"method":"PUT","url":"Patient/051c5977-9f2c-4e8b-8e02-ac3ec0c718d6"}},{"fullUrl":"https://madie.cms.gov/Encounter/4654645","resource":{"resourceType":"Encounter","id":"40bd7e4a-d432-46aa-90fa-a7425409f65d","meta":{"profile":["http://hl7.org/fhir/us/qicore/StructureDefinition/qicore-encounter"]},"status":"finished","class":{"system":"http://terminology.hl7.org/CodeSystem/v3-ActCode","code":"AMB","display":"ambulatory"},"type":[{"coding":[{"system":"http://snomed.info/sct","version":"http://snomed.info/sct/731000124108/version/20240301","code":"185463005","display":"Visit out of hours (procedure)"}]}],"subject":{"reference":"Patient/051c5977-9f2c-4e8b-8e02-ac3ec0c718d6"},"period":{"start":"2025-07-01T08:00:00.000+00:00","end":"2025-07-01T09:15:00.000+00:00"}},"request":{"method":"PUT","url":"Encounter/40bd7e4a-d432-46aa-90fa-a7425409f65d"}},{"fullUrl":"https://madie.cms.gov/Condition/1321344","resource":{"resourceType":"Condition","id":"2e1d3958-59e7-43e8-a9c2-101f86364e5c","meta":{"profile":["http://hl7.org/fhir/us/qicore/StructureDefinition/qicore-condition"]},"clinicalStatus":{"coding":[{"system":"http://terminology.hl7.org/CodeSystem/condition-clinical","code":"active","display":"active"}]},"verificationStatus":{"coding":[{"system":"http://terminology.hl7.org/CodeSystem/condition-ver-status","code":"confirmed","display":"Confirmed"}]},"category":[{"coding":[{"system":"http://terminology.hl7.org/CodeSystem/condition-category","code":"problem-list-item","display":"Problem List Item"}]}],"code":{"coding":[{"system":"http://hl7.org/fhir/sid/icd-10-cm","version":"2024","code":"N40.1","display":"Benign prostatic hyperplasia with lower urinary tract symptoms"}]},"subject":{"reference":"Patient/051c5977-9f2c-4e8b-8e02-ac3ec0c718d6"},"onsetPeriod":{"start":"2024-07-01T08:00:00.000+00:00"}},"request":{"method":"PUT","url":"Condition/2e1d3958-59e7-43e8-a9c2-101f86364e5c"}},{"fullUrl":"https://madie.cms.gov/Observation/4645313","resource":{"resourceType":"Observation","id":"b1eed073-8e0a-43e6-9f3e-23398501eb55","meta":{"profile":["http://hl7.org/fhir/us/qicore/StructureDefinition/qicore-observation"]},"status":"final","category":[{"coding":[{"system":"http://terminology.hl7.org/CodeSystem/observation-category","code":"survey","display":"Survey"}]}],"code":{"coding":[{"system":"http://loinc.org","version":"2.76","code":"80883-2","display":"American Urological Association Symptom Index [AUASI]"}]},"subject":{"reference":"Patient/051c5977-9f2c-4e8b-8e02-ac3ec0c718d6"},"effectiveDateTime":"2024-08-01T08:00:00.000+00:00","valueInteger":2},"request":{"method":"PUT","url":"Observation/b1eed073-8e0a-43e6-9f3e-23398501eb55"}},{"fullUrl":"https://madie.cms.gov/Observation/65464646","resource":{"resourceType":"Observation","id":"e59111ec-6eca-4e78-b9d9-bf948b454a18","meta":{"profile":["http://hl7.org/fhir/us/qicore/StructureDefinition/qicore-observation"]},"status":"final","category":[{"coding":[{"system":"http://terminology.hl7.org/CodeSystem/observation-category","code":"survey","display":"Survey"}]}],"code":{"coding":[{"system":"http://loinc.org","version":"2.76","code":"80883-2","display":"American Urological Association Symptom Index [AUASI]"}]},"subject":{"reference":"Patient/051c5977-9f2c-4e8b-8e02-ac3ec0c718d6"},"effectiveDateTime":"2025-07-01T08:00:00.000+00:00","valueInteger":2},"request":{"method":"PUT","url":"Observation/e59111ec-6eca-4e78-b9d9-bf948b454a18"}},{"fullUrl":"https://madie.cms.gov/Observation/4613513143","resource":{"resourceType":"Observation","id":"85806d2d-fd43-4ad5-bb0e-11e12a6128b9","meta":{"profile":["http://hl7.org/fhir/us/qicore/StructureDefinition/qicore-observation"]},"status":"final","category":[{"coding":[{"system":"http://terminology.hl7.org/CodeSystem/observation-category","code":"survey","display":"Survey"}]}],"code":{"coding":[{"system":"http://loinc.org","version":"2.76","code":"81090-3","display":"If you were to spend the rest of your life with your urinary condition just the way it is now, how would you feel about that [IPSS]"}]},"subject":{"reference":"Patient/051c5977-9f2c-4e8b-8e02-ac3ec0c718d6"},"effectiveDateTime":"2025-07-01T08:00:00.000+00:00","valueInteger":2},"request":{"method":"PUT","url":"Observation/85806d2d-fd43-4ad5-bb0e-11e12a6128b9"}},{"fullUrl":"https://madie.cms.gov/MeasureReport/d04e3330-a754-4b3b-ade7-192488a5a5a7","resource":{"resourceType":"MeasureReport","id":"d04e3330-a754-4b3b-ade7-192488a5a5a7","meta":{"profile":["http://hl7.org/fhir/us/cqfmeasures/StructureDefinition/test-case-cqfm"]},"contained":[{"resourceType":"Parameters","id":"13b7d32f-264a-4ed1-b87d-9332e21913ca-parameters","parameter":[{"name":"subject","valueString":"051c5977-9f2c-4e8b-8e02-ac3ec0c718d6"}]}],"extension":[{"url":"http://hl7.org/fhir/us/cqfmeasures/StructureDefinition/cqfm-inputParameters","valueReference":{"reference":"#13b7d32f-264a-4ed1-b87d-9332e21913ca-parameters"}},{"url":"http://hl7.org/fhir/us/cqfmeasures/StructureDefinition/cqfm-testCaseDescription","valueMarkdown":"Male Pt with OV, initial and followup assessment score with BPH during MP. Uses LastQOL as part of AUA Symptom Index and Quality of Life Assessment calculation"}],"modifierExtension":[{"url":"http://hl7.org/fhir/us/cqfmeasures/StructureDefinition/cqfm-isTestCase","valueBoolean":true}],"status":"complete","type":"individual","measure":"https://madie.cms.gov/Measure/UrinarySymptomScoreChangeAfterBenignProstaticHyperplasiaFHIR","period":{"start":"2025-01-01","end":"2025-12-31"},"group":[{"population":[{"code":{"coding":[{"system":"http://terminology.hl7.org/CodeSystem/measure-population","code":"initial-population","display":"Initial Population"}]},"count":1},{"code":{"coding":[{"system":"http://terminology.hl7.org/CodeSystem/measure-population","code":"denominator","display":"Denominator"}]},"count":1},{"code":{"coding":[{"system":"http://terminology.hl7.org/CodeSystem/measure-population","code":"denominator-exclusion","display":"Denominator Exclusion"}]},"count":0},{"code":{"coding":[{"system":"http://terminology.hl7.org/CodeSystem/measure-population","code":"numerator","display":"Numerator"}]},"count":0}]}]},"request":{"method":"PUT","url":"MeasureReport/d04e3330-a754-4b3b-ade7-192488a5a5a7"}}]}