{
  "resourceType": "Bundle",
  "id": "627a80a15a0d870123c72530",
  "type": "transaction",
  "entry": [ {
    "fullUrl": "https://madie.cms.gov/Patient/11589117-d7b3-48d2-ac4e-b2dedd2dda37",
    "resource": {
      "resourceType": "Patient",
      "id": "11589117-d7b3-48d2-ac4e-b2dedd2dda37",
      "meta": {
        "profile": [ "http://hl7.org/fhir/us/qicore/StructureDefinition/qicore-patient" ]
      },
      "text": {
        "status": "generated",
        "div": "<div xmlns=\"http://www.w3.org/1999/xhtml\"><div class=\"hapiHeaderText\">Age17 Start of Encounter <b>IPPFAIL </b></div><table class=\"hapiPropertyTable\"><tbody><tr><td>Identifier</td><td>f0eda1c9668fdacdcad3378589bf6e0a71e7dec1618f14fca4d442ec96e402b1</td></tr><tr><td>Date of birth</td><td><span>08 April 2006</span></td></tr></tbody></table></div>"
      },
      "extension": [ {
        "url": "http://hl7.org/fhir/us/core/StructureDefinition/us-core-race",
        "extension": [ {
          "url": "ombCategory",
          "valueCoding": {
            "system": "urn:oid:2.16.840.1.113883.6.238",
            "code": "1002-5",
            "display": "American Indian or Alaska Native",
            "userSelected": true
          }
        }, {
          "url": "text",
          "valueString": "American Indian or Alaska Native"
        } ]
      }, {
        "url": "http://hl7.org/fhir/us/core/StructureDefinition/us-core-ethnicity",
        "extension": [ {
          "url": "ombCategory",
          "valueCoding": {
            "system": "urn:oid:2.16.840.1.113883.6.238",
            "code": "2135-2",
            "display": "Hispanic or Latino",
            "userSelected": true
          }
        }, {
          "url": "text",
          "valueString": "Hispanic or Latino"
        } ]
      } ],
      "identifier": [ {
        "type": {
          "coding": [ {
            "system": "http://terminology.hl7.org/CodeSystem/v2-0203",
            "code": "MR"
          } ]
        },
        "system": "https://bonnie-fhir.healthit.gov/",
        "value": "627a80a15a0d870123c72530"
      } ],
      "active": true,
      "name": [ {
        "use": "usual",
        "family": "IPPFail",
        "given": [ "Age17StartOfEncounter" ]
      } ],
      "gender": "male",
      "birthDate": "2007-04-09"
    },
    "request": {
      "method": "POST",
      "url": "Patient/11589117-d7b3-48d2-ac4e-b2dedd2dda37"
    }
  }, {
    "fullUrl": "https://madie.cms.gov/Encounter/5e8cd15e931f9c0000abd8b3",
    "resource": {
      "resourceType": "Encounter",
      "id": "5e8cd15e931f9c0000abd8b3",
      "meta": {
        "profile": [ "http://hl7.org/fhir/us/qicore/StructureDefinition/qicore-encounter" ]
      },
      "status": "finished",
      "class": {
        "system": "http://terminology.hl7.org/CodeSystem/v3-ActCode",
        "code": "EMER",
        "display": "emergency"
      },
      "type": [ {
        "coding": [ {
          "system": "http://snomed.info/sct",
          "code": "4525004"
        } ]
      } ],
      "subject": {
        "reference": "Patient/11589117-d7b3-48d2-ac4e-b2dedd2dda37"
      },
      "period": {
        "start": "2025-04-07T08:00:00.000Z",
        "end": "2025-04-08T08:15:00.000Z"
      }
    },
    "request": {
      "method": "POST",
      "url": "Encounter/5e8cd15e931f9c0000abd8b3"
    }
  }, {
    "fullUrl": "https://madie.cms.gov/Encounter/5e8cd170931f9c0000abd8cd",
    "resource": {
      "resourceType": "Encounter",
      "id": "5e8cd170931f9c0000abd8cd",
      "meta": {
        "profile": [ "http://hl7.org/fhir/us/qicore/StructureDefinition/qicore-encounter" ]
      },
      "status": "finished",
      "class": {
        "system": "http://terminology.hl7.org/CodeSystem/v3-ActCode",
        "code": "IMP",
        "display": "inpatient encounter"
      },
      "type": [ {
        "coding": [ {
          "system": "http://snomed.info/sct",
          "code": "183452005"
        } ]
      } ],
      "subject": {
        "reference": "Patient/11589117-d7b3-48d2-ac4e-b2dedd2dda37"
      },
      "period": {
        "start": "2025-04-08T09:00:00.000Z",
        "end": "2025-04-10T08:15:00.000Z"
      }
    },
    "request": {
      "method": "POST",
      "url": "Encounter/5e8cd170931f9c0000abd8cd"
    }
  }, {
    "fullUrl": "https://madie.cms.gov/Coverage/Coverage-1",
    "resource": {
      "resourceType": "Coverage",
      "id": "Coverage-1",
      "meta": {
        "profile": [ "http://hl7.org/fhir/us/qicore/StructureDefinition/qicore-coverage" ]
      },
      "identifier": [ {
        "system": "http://benefitsinc.com/certificate",
        "value": "12345"
      } ],
      "status": "active",
      "type": {
        "coding": [ {
          "system": "https://nahdo.org/sopt",
          "code": "59",
          "display": "Other Private Insurance"
        } ]
      },
      "policyHolder": {
        "reference": "Patient/11589117-d7b3-48d2-ac4e-b2dedd2dda37"
      },
      "subscriber": {
        "reference": "Patient/11589117-d7b3-48d2-ac4e-b2dedd2dda37"
      },
      "beneficiary": {
        "reference": "Patient/11589117-d7b3-48d2-ac4e-b2dedd2dda37"
      },
      "dependent": "0",
      "relationship": {
        "coding": [ {
          "system": "http://terminology.hl7.org/CodeSystem/subscriber-relationship",
          "code": "self"
        } ]
      },
      "period": {
        "start": "2025-01-01T06:00:00.000Z",
        "end": "2025-12-31T11:06:01.000Z"
      },
      "payor": [ {
        "reference": "Organization/Organization-2"
      } ],
      "order": 9
    },
    "request": {
      "method": "POST",
      "url": "Coverage/Coverage-1"
    }
  }, {
    "fullUrl": "https://madie.cms.gov/MedicationAdministration/5e8cd20c931f9c0000abd93d",
    "resource": {
      "resourceType": "MedicationAdministration",
      "id": "5e8cd20c931f9c0000abd93d",
      "meta": {
        "profile": [ "http://hl7.org/fhir/us/qicore/StructureDefinition/qicore-medicationadministration" ]
      },
      "status": "completed",
      "medicationCodeableConcept": {
        "coding": [ {
          "system": "http://www.nlm.nih.gov/research/umls/rxnorm",
          "code": "1010600"
        } ]
      },
      "subject": {
        "reference": "Patient/11589117-d7b3-48d2-ac4e-b2dedd2dda37"
      },
      "effectivePeriod": {
        "start": "2025-04-07T08:00:00.000Z",
        "end": "2025-04-07T08:15:00.000Z"
      }
    },
    "request": {
      "method": "POST",
      "url": "MedicationAdministration/5e8cd20c931f9c0000abd93d"
    }
  }, {
    "fullUrl": "https://madie.cms.gov/MeasureReport/265035b5-7559-4cc5-9fb9-b781c091eb25",
    "resource": {
      "resourceType": "MeasureReport",
      "id": "265035b5-7559-4cc5-9fb9-b781c091eb25",
      "meta": {
        "profile": [ "http://hl7.org/fhir/us/cqfmeasures/StructureDefinition/test-case-cqfm" ]
      },
      "contained": [ {
        "resourceType": "Parameters",
        "id": "3ba64b0b-ee82-48ec-9c0c-33c98cc8de68-parameters",
        "parameter": [ {
          "name": "subject",
          "valueString": "11589117-d7b3-48d2-ac4e-b2dedd2dda37"
        } ]
      } ],
      "extension": [ {
        "url": "http://hl7.org/fhir/us/cqfmeasures/StructureDefinition/cqfm-inputParameters",
        "valueReference": {
          "reference": "#3ba64b0b-ee82-48ec-9c0c-33c98cc8de68-parameters"
        }
      }, {
        "url": "http://hl7.org/fhir/us/cqfmeasures/StructureDefinition/cqfm-testCaseDescription",
        "valueMarkdown": "Inpatient encounter where patient is 17 at start of IP stay. Turns 18 day after. Does not meet IPP/Denom criteria. "
      } ],
      "modifierExtension": [ {
        "url": "http://hl7.org/fhir/us/cqfmeasures/StructureDefinition/cqfm-isTestCase",
        "valueBoolean": true
      } ],
      "status": "complete",
      "type": "individual",
      "measure": "https://madie.cms.gov/Measure/HospitalHarmOpioidRelatedAdverseEventsFHIR",
      "period": {
        "start": "2025-01-01",
        "end": "2025-12-31"
      },
      "group": [ {
        "population": [ {
          "code": {
            "coding": [ {
              "system": "http://terminology.hl7.org/CodeSystem/measure-population",
              "code": "initial-population",
              "display": "Initial Population"
            } ]
          },
          "count": 0
        }, {
          "code": {
            "coding": [ {
              "system": "http://terminology.hl7.org/CodeSystem/measure-population",
              "code": "denominator",
              "display": "Denominator"
            } ]
          },
          "count": 0
        }, {
          "code": {
            "coding": [ {
              "system": "http://terminology.hl7.org/CodeSystem/measure-population",
              "code": "numerator",
              "display": "Numerator"
            } ]
          },
          "count": 0
        } ]
      } ],
      "evaluatedResource": [ {
        "reference": "https://madie.cms.gov/Patient/11589117-d7b3-48d2-ac4e-b2dedd2dda37"
      }, {
        "reference": "https://madie.cms.gov/Encounter/5e8cd15e931f9c0000abd8b3"
      }, {
        "reference": "https://madie.cms.gov/Encounter/5e8cd170931f9c0000abd8cd"
      }, {
        "reference": "https://madie.cms.gov/Coverage/Coverage-1"
      }, {
        "reference": "https://madie.cms.gov/MedicationAdministration/5e8cd20c931f9c0000abd93d"
      } ]
    },
    "request": {
      "method": "POST",
      "url": "MeasureReport/265035b5-7559-4cc5-9fb9-b781c091eb25"
    }
  } ]
}