{
  "resourceType": "Bundle",
  "id": "ScreNotatriNoref2AsseNotmModDxCp",
  "type": "transaction",
  "entry": [ {
    "fullUrl": "https://madie.cms.gov/Patient/d7b8ad65-50f2-442f-8afc-1de38844a5ad",
    "resource": {
      "resourceType": "Patient",
      "id": "d7b8ad65-50f2-442f-8afc-1de38844a5ad",
      "meta": {
        "profile": [ "http://hl7.org/fhir/us/qicore/StructureDefinition/qicore-patient" ]
      },
      "text": {
        "status": "generated",
        "div": "<div xmlns=\"http://www.w3.org/1999/xhtml\"><div class=\"hapiHeaderText\">ScreNotatriNoref2AsseNotmModDxCp, , <b> </b></div><table class=\"hapiPropertyTable\"><tbody><tr><td>Identifier</td><td>ScreNotatriNoref2AsseNotmModDxCp</td></tr><tr><td>Date of birth</td><td><span>14 May 1950</span></td></tr></tbody></table></div>"
      },
      "extension": [ {
        "url": "http://hl7.org/fhir/us/core/StructureDefinition/us-core-race",
        "extension": [ {
          "url": "ombCategory",
          "valueCoding": {
            "system": "urn:oid:2.16.840.1.113883.6.238",
            "code": "2106-3",
            "display": "White",
            "userSelected": true
          }
        }, {
          "url": "text",
          "valueString": "White"
        } ]
      }, {
        "url": "http://hl7.org/fhir/us/core/StructureDefinition/us-core-ethnicity",
        "extension": [ {
          "url": "ombCategory",
          "valueCoding": {
            "system": "urn:oid:2.16.840.1.113883.6.238",
            "code": "2186-5",
            "display": "Not Hispanic or Latino",
            "userSelected": true
          }
        }, {
          "url": "text",
          "valueString": "Not Hispanic or Latino"
        } ]
      } ],
      "identifier": [ {
        "type": {
          "coding": [ {
            "system": "http://terminology.hl7.org/CodeSystem/v2-0203",
            "code": "MR"
          } ]
        },
        "system": "https://madie.cms.gov/",
        "value": "ScreNotatriNoref2AsseNotmModDxCp"
      } ],
      "active": true,
      "name": [ {
        "use": "usual",
        "text": "ScreNotatriNoref2AsseNotmModDxCp",
        "family": "OCCURPass1",
        "given": [ "ScreNotatriNoref2AsseNotmModDxCpOCCURPass1" ]
      } ],
      "gender": "male",
      "birthDate": "1950-05-14",
      "address": [ {
        "text": "ScreNotatriNoref2AsseNotmModDxCp, Screened Not at risk Assessed Severely Malnourished Diagnosed Care Plan, ID=ScreNotatriNoref2AsseNotmModDxCp, DOB: 14 May 1950"
      } ]
    },
    "request": {
      "method": "POST",
      "url": "Patient/d7b8ad65-50f2-442f-8afc-1de38844a5ad"
    }
  }, {
    "fullUrl": "https://madie.cms.gov/Encounter/ScreNotatriNoref2AsseNotmModDxCp-01",
    "resource": {
      "resourceType": "Encounter",
      "id": "ScreNotatriNoref2AsseNotmModDxCp-01",
      "meta": {
        "profile": [ "http://hl7.org/fhir/us/qicore/StructureDefinition/qicore-encounter" ]
      },
      "status": "finished",
      "class": {
        "system": "http://terminology.hl7.org/CodeSystem/v3-ActCode",
        "code": "IMP",
        "display": "inpatient encounter"
      },
      "type": [ {
        "coding": [ {
          "system": "http://snomed.info/sct",
          "code": "183452005"
        } ]
      } ],
      "subject": {
        "reference": "Patient/d7b8ad65-50f2-442f-8afc-1de38844a5ad"
      },
      "period": {
        "start": "2026-02-01T08:00:00.000Z",
        "end": "2026-02-07T08:15:00.000Z"
      }
    },
    "request": {
      "method": "POST",
      "url": "Encounter/ScreNotatriNoref2AsseNotmModDxCp-01"
    }
  }, {
    "fullUrl": "https://madie.cms.gov/Condition/ScreNotatriNoref2AsseNotmModDxCp-06",
    "resource": {
      "resourceType": "Condition",
      "id": "ScreNotatriNoref2AsseNotmModDxCp-06",
      "meta": {
        "profile": [ "http://hl7.org/fhir/us/qicore/StructureDefinition/qicore-condition" ]
      },
      "clinicalStatus": {
        "coding": [ {
          "system": "http://terminology.hl7.org/CodeSystem/condition-clinical",
          "code": "active",
          "display": "Active",
          "userSelected": true
        } ]
      },
      "verificationStatus": {
        "coding": [ {
          "system": "http://terminology.hl7.org/CodeSystem/condition-ver-status",
          "code": "confirmed",
          "display": "Confirmed",
          "userSelected": true
        } ]
      },
      "category": [ {
        "coding": [ {
          "system": "http://terminology.hl7.org/CodeSystem/condition-category",
          "code": "encounter-diagnosis",
          "display": "Encounter Diagnosis",
          "userSelected": true
        } ]
      } ],
      "code": {
        "coding": [ {
          "system": "http://snomed.info/sct",
          "code": "302872003",
          "display": "Disorder of hyperalimentation (disorder)",
          "userSelected": true
        } ]
      },
      "subject": {
        "reference": "Patient/d7b8ad65-50f2-442f-8afc-1de38844a5ad"
      },
      "onsetPeriod": {
        "start": "2026-02-01T08:00:00.000+00:00"
      },
      "recordedDate": "2026-02-01T11:00:00.000+00:00"
    },
    "request": {
      "method": "POST",
      "url": "Condition/ScreNotatriNoref2AsseNotmModDxCp-06"
    }
  }, {
    "fullUrl": "https://madie.cms.gov/Observation/ScreNotatriNoref2AsseNotmModDxCp-18",
    "resource": {
      "resourceType": "Observation",
      "id": "ScreNotatriNoref2AsseNotmModDxCp-18",
      "meta": {
        "profile": [ "http://hl7.org/fhir/us/qicore/StructureDefinition/qicore-observation" ]
      },
      "status": "final",
      "category": [ {
        "coding": [ {
          "system": "http://terminology.hl7.org/CodeSystem/observation-category",
          "code": "survey",
          "display": "Survey"
        } ]
      } ],
      "code": {
        "coding": [ {
          "system": "http://loinc.org",
          "code": "98968-1",
          "display": "Initial Screening NRS_2002",
          "userSelected": true
        } ]
      },
      "subject": {
        "reference": "Patient/d7b8ad65-50f2-442f-8afc-1de38844a5ad"
      },
      "effectiveDateTime": "2026-02-01T09:00:00.000+00:00",
      "valueCodeableConcept": {
        "coding": [ {
          "system": "http://snomed.info/sct",
          "code": "129689002",
          "display": "At risk for nutritional problem (finding)",
          "userSelected": true
        } ]
      }
    },
    "request": {
      "method": "POST",
      "url": "Observation/ScreNotatriNoref2AsseNotmModDxCp-18"
    }
  }, {
    "fullUrl": "https://madie.cms.gov/Observation/ScreNotatriNoref2AsseNotmModDxCp-19",
    "resource": {
      "resourceType": "Observation",
      "id": "ScreNotatriNoref2AsseNotmModDxCp-19",
      "meta": {
        "profile": [ "http://hl7.org/fhir/us/qicore/StructureDefinition/qicore-observation" ]
      },
      "status": "final",
      "category": [ {
        "coding": [ {
          "system": "http://terminology.hl7.org/CodeSystem/observation-category",
          "code": "survey",
          "display": "Survey"
        } ]
      } ],
      "code": {
        "coding": [ {
          "system": "http://loinc.org",
          "code": "75303-8",
          "display": "Nutrition assessment narrative",
          "userSelected": true
        } ]
      },
      "subject": {
        "reference": "Patient/d7b8ad65-50f2-442f-8afc-1de38844a5ad"
      },
      "effectiveDateTime": "2026-02-01T10:00:00.000+00:00",
      "valueCodeableConcept": {
        "coding": [ {
          "system": "http://snomed.info/sct",
          "code": "102635008",
          "display": "Acute nutritional deficiency (finding)",
          "userSelected": true
        } ]
      }
    },
    "request": {
      "method": "POST",
      "url": "Observation/ScreNotatriNoref2AsseNotmModDxCp-19"
    }
  }, {
    "fullUrl": "https://madie.cms.gov/Observation/ScreNotatriNoref2AsseNotmModDxCp-20",
    "resource": {
      "resourceType": "Observation",
      "id": "ScreNotatriNoref2AsseNotmModDxCp-20",
      "meta": {
        "profile": [ "http://hl7.org/fhir/us/qicore/StructureDefinition/qicore-observation" ]
      },
      "status": "final",
      "category": [ {
        "coding": [ {
          "system": "http://terminology.hl7.org/CodeSystem/observation-category",
          "code": "survey",
          "display": "Survey"
        } ]
      } ],
      "code": {
        "coding": [ {
          "system": "http://loinc.org",
          "code": "75304-6",
          "display": "Nutrition status observation panel",
          "userSelected": true
        } ]
      },
      "subject": {
        "reference": "Patient/d7b8ad65-50f2-442f-8afc-1de38844a5ad"
      },
      "effectiveDateTime": "2026-02-01T10:00:00.000+00:00",
      "valueCodeableConcept": {
        "coding": [ {
          "system": "http://snomed.info/sct",
          "code": "248324001",
          "display": "Well nourished (finding)",
          "userSelected": true
        } ]
      }
    },
    "request": {
      "method": "POST",
      "url": "Observation/ScreNotatriNoref2AsseNotmModDxCp-20"
    }
  }, {
    "fullUrl": "https://madie.cms.gov/Procedure/ScreNotatriNoref2AsseNotmModDxCp-08",
    "resource": {
      "resourceType": "Procedure",
      "id": "ScreNotatriNoref2AsseNotmModDxCp-08",
      "meta": {
        "profile": [ "http://hl7.org/fhir/us/qicore/StructureDefinition/qicore-procedure" ]
      },
      "extension": [ {
        "url": "http://hl7.org/fhir/us/qicore/StructureDefinition/qicore-recorded",
        "valueDateTime": "2026-02-02T11:30:00.000Z"
      } ],
      "status": "completed",
      "code": {
        "coding": [ {
          "system": "http://snomed.info/sct",
          "code": "182922004",
          "display": "Dietary regime (regime/therapy)"
        } ],
        "text": "Dietary regime (regime/therapy)"
      },
      "subject": {
        "reference": "Patient/d7b8ad65-50f2-442f-8afc-1de38844a5ad"
      },
      "encounter": {
        "reference": "Encounter/ScreNotatriNoref2AsseNotmModDxCpOCCURPass1"
      },
      "performedPeriod": {
        "start": "2026-02-01T11:30:00.000Z",
        "end": "2026-02-07T08:15:00.000Z"
      }
    },
    "request": {
      "method": "POST",
      "url": "Procedure/ScreNotatriNoref2AsseNotmModDxCp-08"
    }
  }, {
    "fullUrl": "https://madie.cms.gov/Coverage/ScreNotatriNoref2AsseNotmModDxCp-61",
    "resource": {
      "resourceType": "Coverage",
      "id": "ScreNotatriNoref2AsseNotmModDxCp-61",
      "meta": {
        "profile": [ "http://hl7.org/fhir/us/qicore/StructureDefinition/qicore-coverage" ]
      },
      "status": "active",
      "type": {
        "coding": [ {
          "system": "https://nahdo.org/sopt",
          "version": "9.2",
          "code": "11",
          "display": "Medicare Managed Care (Includes Medicare Advantage Plans)"
        } ]
      },
      "beneficiary": {
        "reference": "Patient/d7b8ad65-50f2-442f-8afc-1de38844a5ad"
      },
      "period": {
        "start": "2026-10-01T00:00:00+00:00"
      },
      "payor": [ {
        "reference": "Organization/ScreNotatriNoref2AsseNotmModDxCp-98"
      } ]
    },
    "request": {
      "method": "POST",
      "url": "Coverage/ScreNotatriNoref2AsseNotmModDxCp-61"
    }
  }, {
    "fullUrl": "https://madie.cms.gov/Organization/ScreNotatriNoref2AsseNotmModDxCp-98",
    "resource": {
      "resourceType": "Organization",
      "id": "ScreNotatriNoref2AsseNotmModDxCp-98",
      "meta": {
        "profile": [ "http://hl7.org/fhir/us/qicore/StructureDefinition/qicore-organization" ]
      },
      "identifier": [ {
        "use": "temp",
        "system": "urn:oid:2.16.840.1.113883.4.4",
        "value": "21-3259825"
      } ],
      "active": true,
      "type": [ {
        "coding": [ {
          "system": "http://terminology.hl7.org/CodeSystem/organization-type",
          "code": "pay",
          "display": "Payer"
        } ]
      } ],
      "name": "Blue Cross Blue Shield of Texas",
      "telecom": [ {
        "system": "phone",
        "value": "(+1) 972-766-6900"
      } ],
      "address": [ {
        "use": "billing",
        "type": "postal",
        "line": [ "P.O. Box 660044" ],
        "city": "Dallas",
        "state": "TX",
        "postalCode": "75266-0044",
        "country": "USA"
      } ]
    },
    "request": {
      "method": "POST",
      "url": "Organization/ScreNotatriNoref2AsseNotmModDxCp-98"
    }
  }, {
    "fullUrl": "https://madie.cms.gov/MeasureReport/4a3f2796-0d5f-4c2e-a6c6-70163e244103",
    "resource": {
      "resourceType": "MeasureReport",
      "id": "4a3f2796-0d5f-4c2e-a6c6-70163e244103",
      "meta": {
        "profile": [ "http://hl7.org/fhir/us/cqfmeasures/StructureDefinition/test-case-cqfm" ]
      },
      "contained": [ {
        "resourceType": "Parameters",
        "id": "0785c7d2-a8fe-46fb-861a-237070287a1d-parameters",
        "parameter": [ {
          "name": "subject",
          "valueString": "d7b8ad65-50f2-442f-8afc-1de38844a5ad"
        } ]
      } ],
      "extension": [ {
        "url": "http://hl7.org/fhir/us/cqfmeasures/StructureDefinition/cqfm-inputParameters",
        "valueReference": {
          "reference": "#0785c7d2-a8fe-46fb-861a-237070287a1d-parameters"
        }
      }, {
        "url": "http://hl7.org/fhir/us/cqfmeasures/StructureDefinition/cqfm-testCaseDescription",
        "valueMarkdown": "Screened, Not at Risk, No Referral, Assessment, Not/Mildly Malnutrition, Severe Malnutrition, Diagnosis, Care Plan"
      } ],
      "modifierExtension": [ {
        "url": "http://hl7.org/fhir/us/cqfmeasures/StructureDefinition/cqfm-isTestCase",
        "valueBoolean": true
      } ],
      "status": "complete",
      "type": "individual",
      "measure": "https://madie.cms.gov/Measure/GlobalMalnutritionCompositeFHIR",
      "period": {
        "start": "2026-01-01",
        "end": "2026-12-31"
      },
      "group": [ {
        "population": [ {
          "code": {
            "coding": [ {
              "system": "http://terminology.hl7.org/CodeSystem/measure-population",
              "code": "initial-population",
              "display": "Initial Population"
            } ]
          },
          "count": 1
        }, {
          "code": {
            "coding": [ {
              "system": "http://terminology.hl7.org/CodeSystem/measure-population",
              "code": "measure-population",
              "display": "Measure Population"
            } ]
          },
          "count": 1
        }, {
          "code": {
            "coding": [ {
              "system": "http://terminology.hl7.org/CodeSystem/measure-population",
              "code": "measure-population-observation",
              "display": "Measure Population Observation"
            } ]
          },
          "count": 1
        } ]
      }, {
        "population": [ {
          "code": {
            "coding": [ {
              "system": "http://terminology.hl7.org/CodeSystem/measure-population",
              "code": "initial-population",
              "display": "Initial Population"
            } ]
          },
          "count": 1
        }, {
          "code": {
            "coding": [ {
              "system": "http://terminology.hl7.org/CodeSystem/measure-population",
              "code": "measure-population",
              "display": "Measure Population"
            } ]
          },
          "count": 1
        }, {
          "code": {
            "coding": [ {
              "system": "http://terminology.hl7.org/CodeSystem/measure-population",
              "code": "measure-population-observation",
              "display": "Measure Population Observation"
            } ]
          },
          "count": 1
        } ]
      }, {
        "population": [ {
          "code": {
            "coding": [ {
              "system": "http://terminology.hl7.org/CodeSystem/measure-population",
              "code": "initial-population",
              "display": "Initial Population"
            } ]
          },
          "count": 1
        }, {
          "code": {
            "coding": [ {
              "system": "http://terminology.hl7.org/CodeSystem/measure-population",
              "code": "measure-population",
              "display": "Measure Population"
            } ]
          },
          "count": 1
        }, {
          "code": {
            "coding": [ {
              "system": "http://terminology.hl7.org/CodeSystem/measure-population",
              "code": "measure-population-observation",
              "display": "Measure Population Observation"
            } ]
          },
          "count": 0
        } ]
      }, {
        "population": [ {
          "code": {
            "coding": [ {
              "system": "http://terminology.hl7.org/CodeSystem/measure-population",
              "code": "initial-population",
              "display": "Initial Population"
            } ]
          },
          "count": 1
        }, {
          "code": {
            "coding": [ {
              "system": "http://terminology.hl7.org/CodeSystem/measure-population",
              "code": "measure-population",
              "display": "Measure Population"
            } ]
          },
          "count": 1
        }, {
          "code": {
            "coding": [ {
              "system": "http://terminology.hl7.org/CodeSystem/measure-population",
              "code": "measure-population-observation",
              "display": "Measure Population Observation"
            } ]
          },
          "count": 0
        } ]
      }, {
        "population": [ {
          "code": {
            "coding": [ {
              "system": "http://terminology.hl7.org/CodeSystem/measure-population",
              "code": "initial-population",
              "display": "Initial Population"
            } ]
          },
          "count": 1
        }, {
          "code": {
            "coding": [ {
              "system": "http://terminology.hl7.org/CodeSystem/measure-population",
              "code": "measure-population",
              "display": "Measure Population"
            } ]
          },
          "count": 1
        }, {
          "code": {
            "coding": [ {
              "system": "http://terminology.hl7.org/CodeSystem/measure-population",
              "code": "measure-population-observation",
              "display": "Measure Population Observation"
            } ]
          },
          "count": 2
        } ]
      }, {
        "population": [ {
          "code": {
            "coding": [ {
              "system": "http://terminology.hl7.org/CodeSystem/measure-population",
              "code": "initial-population",
              "display": "Initial Population"
            } ]
          },
          "count": 1
        }, {
          "code": {
            "coding": [ {
              "system": "http://terminology.hl7.org/CodeSystem/measure-population",
              "code": "measure-population",
              "display": "Measure Population"
            } ]
          },
          "count": 1
        }, {
          "code": {
            "coding": [ {
              "system": "http://terminology.hl7.org/CodeSystem/measure-population",
              "code": "measure-population-observation",
              "display": "Measure Population Observation"
            } ]
          },
          "count": 100
        } ]
      } ],
      "evaluatedResource": [ {
        "reference": "https://madie.cms.gov/Patient/d7b8ad65-50f2-442f-8afc-1de38844a5ad"
      }, {
        "reference": "https://madie.cms.gov/Encounter/ScreNotatriNoref2AsseNotmModDxCp-01"
      }, {
        "reference": "https://madie.cms.gov/Condition/ScreNotatriNoref2AsseNotmModDxCp-06"
      }, {
        "reference": "https://madie.cms.gov/Observation/ScreNotatriNoref2AsseNotmModDxCp-18"
      }, {
        "reference": "https://madie.cms.gov/Observation/ScreNotatriNoref2AsseNotmModDxCp-19"
      }, {
        "reference": "https://madie.cms.gov/Observation/ScreNotatriNoref2AsseNotmModDxCp-20"
      }, {
        "reference": "https://madie.cms.gov/Procedure/ScreNotatriNoref2AsseNotmModDxCp-08"
      }, {
        "reference": "https://madie.cms.gov/Coverage/ScreNotatriNoref2AsseNotmModDxCp-61"
      }, {
        "reference": "https://madie.cms.gov/Organization/ScreNotatriNoref2AsseNotmModDxCp-98"
      } ]
    },
    "request": {
      "method": "POST",
      "url": "MeasureReport/4a3f2796-0d5f-4c2e-a6c6-70163e244103"
    }
  } ]
}