{
  "resourceType": "Bundle",
  "id": "98116841646686466847",
  "type": "transaction",
  "entry": [ {
    "fullUrl": "https://madie.cms.gov/Patient/8cca688d-fceb-4ef9-823c-b4dc612e5eb6",
    "resource": {
      "resourceType": "Patient",
      "id": "8cca688d-fceb-4ef9-823c-b4dc612e5eb6",
      "meta": {
        "profile": [ "http://hl7.org/fhir/us/qicore/StructureDefinition/qicore-patient" ]
      },
      "extension": [ {
        "url": "http://hl7.org/fhir/us/core/StructureDefinition/us-core-race",
        "extension": [ {
          "url": "ombCategory",
          "valueCoding": {
            "system": "urn:oid:2.16.840.1.113883.6.238",
            "code": "2106-3",
            "display": "White"
          }
        }, {
          "url": "text",
          "valueString": "White"
        } ]
      }, {
        "url": "http://hl7.org/fhir/us/core/StructureDefinition/us-core-ethnicity",
        "extension": [ {
          "url": "ombCategory",
          "valueCoding": {
            "system": "urn:oid:2.16.840.1.113883.6.238",
            "code": "2186-5",
            "display": "Not Hispanic or Latino"
          }
        }, {
          "url": "text",
          "valueString": "Not Hispanic or Latino"
        } ]
      } ],
      "identifier": [ {
        "type": {
          "coding": [ {
            "system": "http://terminology.hl7.org/CodeSystem/v2-0203",
            "code": "MR"
          } ]
        },
        "system": "https://bonnie-fhir.healthit.gov/",
        "value": "64684131634684641"
      } ],
      "name": [ {
        "family": "DENEXPopStrat1Pass",
        "given": [ "PalliativeCareProcedureUnknownStatus" ]
      } ],
      "gender": "female",
      "birthDate": "2010-01-01"
    },
    "request": {
      "method": "POST",
      "url": "Patient/8cca688d-fceb-4ef9-823c-b4dc612e5eb6"
    }
  }, {
    "fullUrl": "https://madie.cms.gov/Encounter/846816468613163156",
    "resource": {
      "resourceType": "Encounter",
      "id": "846816468613163156",
      "meta": {
        "profile": [ "http://hl7.org/fhir/us/qicore/StructureDefinition/qicore-encounter" ]
      },
      "status": "finished",
      "class": {
        "system": "http://terminology.hl7.org/CodeSystem/v3-ActCode",
        "code": "AMB",
        "display": "ambulatory"
      },
      "type": [ {
        "coding": [ {
          "system": "http://www.ama-assn.org/go/cpt",
          "version": "2024",
          "code": "90791"
        } ]
      } ],
      "subject": {
        "reference": "Patient/8cca688d-fceb-4ef9-823c-b4dc612e5eb6"
      },
      "period": {
        "start": "2024-02-25T14:30:00+00:00",
        "end": "2024-02-25T14:50:00+00:00"
      },
      "length": {
        "value": 0,
        "unit": "days"
      }
    },
    "request": {
      "method": "POST",
      "url": "Encounter/846816468613163156"
    }
  }, {
    "fullUrl": "https://madie.cms.gov/Observation/98778613516461352131315",
    "resource": {
      "resourceType": "Observation",
      "id": "98778613516461352131315",
      "meta": {
        "profile": [ "http://hl7.org/fhir/us/qicore/StructureDefinition/qicore-observation" ]
      },
      "status": "final",
      "category": [ {
        "coding": [ {
          "system": "http://terminology.hl7.org/CodeSystem/observation-category",
          "code": "survey",
          "display": "Survey"
        } ]
      } ],
      "code": {
        "coding": [ {
          "system": "http://loinc.org",
          "version": "2.76",
          "code": "44261-6"
        } ]
      },
      "subject": {
        "reference": "Patient/8cca688d-fceb-4ef9-823c-b4dc612e5eb6"
      },
      "effectiveDateTime": "2024-02-25T14:35:00+00:00",
      "valueInteger": 10
    },
    "request": {
      "method": "POST",
      "url": "Observation/98778613516461352131315"
    }
  }, {
    "fullUrl": "https://madie.cms.gov/Condition/18961651646466486545",
    "resource": {
      "resourceType": "Condition",
      "id": "18961651646466486545",
      "meta": {
        "profile": [ "http://hl7.org/fhir/us/qicore/StructureDefinition/qicore-condition" ]
      },
      "clinicalStatus": {
        "coding": [ {
          "system": "http://terminology.hl7.org/CodeSystem/condition-clinical",
          "code": "active",
          "display": "active"
        } ]
      },
      "verificationStatus": {
        "coding": [ {
          "system": "http://terminology.hl7.org/CodeSystem/condition-ver-status",
          "code": "confirmed"
        } ]
      },
      "category": [ {
        "coding": [ {
          "system": "http://terminology.hl7.org/CodeSystem/condition-category",
          "code": "problem-list-item",
          "display": "Problem List Item"
        } ]
      } ],
      "code": {
        "coding": [ {
          "system": "http://hl7.org/fhir/sid/icd-10-cm",
          "version": "2024",
          "code": "F32.9",
          "display": "Major Depressive Diagnosis"
        } ]
      },
      "subject": {
        "reference": "Patient/8cca688d-fceb-4ef9-823c-b4dc612e5eb6"
      },
      "onsetDateTime": "2024-02-25T14:35:00+00:00"
    },
    "request": {
      "method": "POST",
      "url": "Condition/18961651646466486545"
    }
  }, {
    "fullUrl": "https://madie.cms.gov/Procedure/87612313456131",
    "resource": {
      "resourceType": "Procedure",
      "id": "87612313456131",
      "meta": {
        "profile": [ "http://hl7.org/fhir/us/qicore/StructureDefinition/qicore-procedure" ]
      },
      "extension": [ {
        "url": "http://hl7.org/fhir/us/qicore/StructureDefinition/qicore-recorded",
        "valueDateTime": "2025-02-05T09:35:00-04:00"
      } ],
      "status": "unknown",
      "code": {
        "coding": [ {
          "system": "http://snomed.info/sct",
          "version": "http://snomed.info/sct/731000124108/version/20230901",
          "code": "395669003",
          "display": "Specialist palliative care treatment (regime/therapy)"
        } ],
        "text": "Specialist palliative care treatment (regime/therapy)"
      },
      "subject": {
        "reference": "Patient/8cca688d-fceb-4ef9-823c-b4dc612e5eb6"
      },
      "performedDateTime": "2025-02-05T09:35:00-04:00"
    },
    "request": {
      "method": "POST",
      "url": "Procedure/87612313456131"
    }
  }, {
    "fullUrl": "https://madie.cms.gov/MeasureReport/263a405f-ce70-4210-87e7-a395dab7ab50",
    "resource": {
      "resourceType": "MeasureReport",
      "id": "263a405f-ce70-4210-87e7-a395dab7ab50",
      "meta": {
        "profile": [ "http://hl7.org/fhir/us/cqfmeasures/StructureDefinition/test-case-cqfm" ]
      },
      "contained": [ {
        "resourceType": "Parameters",
        "id": "981fc0c8-6e30-450a-ba50-bff7648b3604-parameters",
        "parameter": [ {
          "name": "subject",
          "valueString": "8cca688d-fceb-4ef9-823c-b4dc612e5eb6"
        } ]
      } ],
      "extension": [ {
        "url": "http://hl7.org/fhir/us/cqfmeasures/StructureDefinition/cqfm-inputParameters",
        "valueReference": {
          "reference": "#981fc0c8-6e30-450a-ba50-bff7648b3604-parameters"
        }
      }, {
        "url": "http://hl7.org/fhir/us/cqfmeasures/StructureDefinition/cqfm-testCaseDescription",
        "valueMarkdown": "Patient is 14 years old and has a Major Depressive Dx and PHQ-9>9 during the denom ID period. Palliative care procedure performed before end of MAP (status unknown). Note: Stratification Issue."
      } ],
      "modifierExtension": [ {
        "url": "http://hl7.org/fhir/us/cqfmeasures/StructureDefinition/cqfm-isTestCase",
        "valueBoolean": true
      } ],
      "status": "complete",
      "type": "individual",
      "measure": "https://madie.cms.gov/Measure/DepressionRemissionatTwelveMonthsFHIR",
      "period": {
        "start": "2025-01-01",
        "end": "2025-12-31"
      },
      "group": [ {
        "population": [ {
          "code": {
            "coding": [ {
              "system": "http://terminology.hl7.org/CodeSystem/measure-population",
              "code": "initial-population",
              "display": "Initial Population"
            } ]
          },
          "count": 1
        }, {
          "code": {
            "coding": [ {
              "system": "http://terminology.hl7.org/CodeSystem/measure-population",
              "code": "denominator",
              "display": "Denominator"
            } ]
          },
          "count": 1
        }, {
          "code": {
            "coding": [ {
              "system": "http://terminology.hl7.org/CodeSystem/measure-population",
              "code": "denominator-exclusion",
              "display": "Denominator Exclusion"
            } ]
          },
          "count": 0
        }, {
          "code": {
            "coding": [ {
              "system": "http://terminology.hl7.org/CodeSystem/measure-population",
              "code": "numerator",
              "display": "Numerator"
            } ]
          },
          "count": 0
        } ]
      } ],
      "evaluatedResource": [ {
        "reference": "https://madie.cms.gov/Patient/8cca688d-fceb-4ef9-823c-b4dc612e5eb6"
      }, {
        "reference": "https://madie.cms.gov/Encounter/846816468613163156"
      }, {
        "reference": "https://madie.cms.gov/Observation/98778613516461352131315"
      }, {
        "reference": "https://madie.cms.gov/Condition/18961651646466486545"
      }, {
        "reference": "https://madie.cms.gov/Procedure/87612313456131"
      } ]
    },
    "request": {
      "method": "POST",
      "url": "MeasureReport/263a405f-ce70-4210-87e7-a395dab7ab50"
    }
  } ]
}