{
  "resourceType": "Bundle",
  "id": "NUMERPass-AllAnaphylaxisOrConditions",
  "type": "transaction",
  "entry": [ {
    "fullUrl": "https://madie.cms.gov/Patient/a5ca4525-88bc-4b67-b880-ca1cf54daa88",
    "resource": {
      "resourceType": "Patient",
      "id": "a5ca4525-88bc-4b67-b880-ca1cf54daa88",
      "meta": {
        "profile": [ "http://hl7.org/fhir/us/qicore/StructureDefinition/qicore-patient" ]
      },
      "extension": [ {
        "url": "http://hl7.org/fhir/us/core/StructureDefinition/us-core-race",
        "extension": [ {
          "url": "ombCategory",
          "valueCoding": {
            "system": "urn:oid:2.16.840.1.113883.6.238",
            "code": "2028-9",
            "display": "Asian",
            "userSelected": true
          }
        }, {
          "url": "text",
          "valueString": "Asian"
        } ]
      }, {
        "url": "http://hl7.org/fhir/us/core/StructureDefinition/us-core-ethnicity",
        "extension": [ {
          "url": "ombCategory",
          "valueCoding": {
            "system": "urn:oid:2.16.840.1.113883.6.238",
            "code": "2135-2",
            "display": "Hispanic or Latino",
            "userSelected": true
          }
        }, {
          "url": "text",
          "valueString": "Hispanic or Latino"
        } ]
      } ],
      "identifier": [ {
        "type": {
          "coding": [ {
            "system": "http://terminology.hl7.org/CodeSystem/v2-0203",
            "code": "MR"
          } ]
        },
        "system": "http://hospital.smarthealthit.org",
        "value": "999999995"
      } ],
      "name": [ {
        "family": "Bertha",
        "given": [ "Betty" ]
      } ],
      "gender": "female",
      "birthDate": "2023-01-01"
    },
    "request": {
      "method": "POST",
      "url": "Patient/a5ca4525-88bc-4b67-b880-ca1cf54daa88"
    }
  }, {
    "fullUrl": "https://madie.cms.gov/Encounter/Encounter-1",
    "resource": {
      "resourceType": "Encounter",
      "id": "Encounter-1",
      "meta": {
        "profile": [ "http://hl7.org/fhir/us/qicore/StructureDefinition/qicore-encounter" ]
      },
      "status": "finished",
      "class": {
        "system": "http://terminology.hl7.org/CodeSystem/v3-ActCode",
        "code": "AMB",
        "display": "ambulatory"
      },
      "type": [ {
        "coding": [ {
          "system": "http://snomed.info/sct",
          "code": "185317003",
          "display": "Telephone encounter (procedure)"
        } ]
      } ],
      "subject": {
        "reference": "Patient/a5ca4525-88bc-4b67-b880-ca1cf54daa88"
      },
      "period": {
        "start": "2025-01-01T01:00:00.000Z",
        "end": "2025-01-01T01:15:00.000Z"
      }
    },
    "request": {
      "method": "POST",
      "url": "Encounter/Encounter-1"
    }
  }, {
    "fullUrl": "https://madie.cms.gov/Condition/Condition-1",
    "resource": {
      "resourceType": "Condition",
      "id": "Condition-1",
      "meta": {
        "profile": [ "http://hl7.org/fhir/us/qicore/StructureDefinition/qicore-condition" ]
      },
      "clinicalStatus": {
        "coding": [ {
          "system": "http://terminology.hl7.org/CodeSystem/condition-clinical",
          "code": "active"
        } ]
      },
      "category": [ {
        "coding": [ {
          "system": "http://terminology.hl7.org/CodeSystem/condition-category",
          "code": "problem-list-item",
          "display": "Problem List Item"
        } ]
      } ],
      "code": {
        "coding": [ {
          "system": "http://snomed.info/sct",
          "code": "192711008",
          "display": "Post diphtheria vaccination encephalitis (disorder)"
        } ]
      },
      "subject": {
        "reference": "Patient/a5ca4525-88bc-4b67-b880-ca1cf54daa88"
      },
      "onsetDateTime": "2024-01-02T00:00:00.000Z"
    },
    "request": {
      "method": "POST",
      "url": "Condition/Condition-1"
    }
  }, {
    "fullUrl": "https://madie.cms.gov/Condition/Condition-2",
    "resource": {
      "resourceType": "Condition",
      "id": "Condition-2",
      "meta": {
        "profile": [ "http://hl7.org/fhir/us/qicore/StructureDefinition/qicore-condition" ]
      },
      "clinicalStatus": {
        "coding": [ {
          "system": "http://terminology.hl7.org/CodeSystem/condition-clinical",
          "code": "active"
        } ]
      },
      "category": [ {
        "coding": [ {
          "system": "http://terminology.hl7.org/CodeSystem/condition-category",
          "code": "problem-list-item",
          "display": "Problem List Item"
        } ]
      } ],
      "code": {
        "coding": [ {
          "system": "http://snomed.info/sct",
          "code": "471321000124106",
          "display": "Anaphylaxis caused by vaccine product containing human poliovirus antigen (disorder)"
        } ]
      },
      "subject": {
        "reference": "Patient/a5ca4525-88bc-4b67-b880-ca1cf54daa88"
      },
      "onsetDateTime": "2024-01-02T00:00:00.000Z"
    },
    "request": {
      "method": "POST",
      "url": "Condition/Condition-2"
    }
  }, {
    "fullUrl": "https://madie.cms.gov/Condition/Condition-3",
    "resource": {
      "resourceType": "Condition",
      "id": "Condition-3",
      "meta": {
        "profile": [ "http://hl7.org/fhir/us/qicore/StructureDefinition/qicore-condition" ]
      },
      "clinicalStatus": {
        "coding": [ {
          "system": "http://terminology.hl7.org/CodeSystem/condition-clinical",
          "code": "active"
        } ]
      },
      "category": [ {
        "coding": [ {
          "system": "http://terminology.hl7.org/CodeSystem/condition-category",
          "code": "problem-list-item",
          "display": "Problem List Item"
        } ]
      } ],
      "code": {
        "coding": [ {
          "system": "http://snomed.info/sct",
          "code": "471331000124109",
          "display": "Anaphylaxis caused by vaccine product containing Measles morbillivirus and Mumps orthorubulavirus and Rubella virus antigens (disorder)"
        } ]
      },
      "subject": {
        "reference": "Patient/a5ca4525-88bc-4b67-b880-ca1cf54daa88"
      },
      "onsetDateTime": "2024-01-02T00:00:00.000Z"
    },
    "request": {
      "method": "POST",
      "url": "Condition/Condition-3"
    }
  }, {
    "fullUrl": "https://madie.cms.gov/Condition/Condition-4",
    "resource": {
      "resourceType": "Condition",
      "id": "Condition-4",
      "meta": {
        "profile": [ "http://hl7.org/fhir/us/qicore/StructureDefinition/qicore-condition" ]
      },
      "clinicalStatus": {
        "coding": [ {
          "system": "http://terminology.hl7.org/CodeSystem/condition-clinical",
          "code": "active"
        } ]
      },
      "category": [ {
        "coding": [ {
          "system": "http://terminology.hl7.org/CodeSystem/condition-category",
          "code": "problem-list-item",
          "display": "Problem List Item"
        } ]
      } ],
      "code": {
        "coding": [ {
          "system": "http://snomed.info/sct",
          "code": "433621000124101",
          "display": "Anaphylaxis due to Haemophilus influenzae type b vaccine (disorder)"
        } ]
      },
      "subject": {
        "reference": "Patient/a5ca4525-88bc-4b67-b880-ca1cf54daa88"
      },
      "onsetDateTime": "2024-01-02T00:00:00.000Z"
    },
    "request": {
      "method": "POST",
      "url": "Condition/Condition-4"
    }
  }, {
    "fullUrl": "https://madie.cms.gov/Condition/Condition-5",
    "resource": {
      "resourceType": "Condition",
      "id": "Condition-5",
      "meta": {
        "profile": [ "http://hl7.org/fhir/us/qicore/StructureDefinition/qicore-condition" ]
      },
      "clinicalStatus": {
        "coding": [ {
          "system": "http://terminology.hl7.org/CodeSystem/condition-clinical",
          "code": "active"
        } ]
      },
      "category": [ {
        "coding": [ {
          "system": "http://terminology.hl7.org/CodeSystem/condition-category",
          "code": "problem-list-item",
          "display": "Problem List Item"
        } ]
      } ],
      "code": {
        "coding": [ {
          "system": "http://snomed.info/sct",
          "code": "235864009",
          "display": "Acute hepatitis B with hepatitis D (disorder)"
        } ]
      },
      "subject": {
        "reference": "Patient/a5ca4525-88bc-4b67-b880-ca1cf54daa88"
      },
      "onsetDateTime": "2024-01-02T00:00:00.000Z"
    },
    "request": {
      "method": "POST",
      "url": "Condition/Condition-5"
    }
  }, {
    "fullUrl": "https://madie.cms.gov/Condition/Condition-6",
    "resource": {
      "resourceType": "Condition",
      "id": "Condition-6",
      "meta": {
        "profile": [ "http://hl7.org/fhir/us/qicore/StructureDefinition/qicore-condition" ]
      },
      "clinicalStatus": {
        "coding": [ {
          "system": "http://terminology.hl7.org/CodeSystem/condition-clinical",
          "code": "active"
        } ]
      },
      "category": [ {
        "coding": [ {
          "system": "http://terminology.hl7.org/CodeSystem/condition-category",
          "code": "problem-list-item",
          "display": "Problem List Item"
        } ]
      } ],
      "code": {
        "coding": [ {
          "system": "http://snomed.info/sct",
          "code": "426570007",
          "display": "Herpes zoster interstitial keratitis (disorder)"
        } ]
      },
      "subject": {
        "reference": "Patient/a5ca4525-88bc-4b67-b880-ca1cf54daa88"
      },
      "onsetDateTime": "2024-01-02T00:00:00.000Z"
    },
    "request": {
      "method": "POST",
      "url": "Condition/Condition-6"
    }
  }, {
    "fullUrl": "https://madie.cms.gov/Condition/Condition-7",
    "resource": {
      "resourceType": "Condition",
      "id": "Condition-7",
      "meta": {
        "profile": [ "http://hl7.org/fhir/us/qicore/StructureDefinition/qicore-condition" ]
      },
      "clinicalStatus": {
        "coding": [ {
          "system": "http://terminology.hl7.org/CodeSystem/condition-clinical",
          "code": "active"
        } ]
      },
      "category": [ {
        "coding": [ {
          "system": "http://terminology.hl7.org/CodeSystem/condition-category",
          "code": "problem-list-item",
          "display": "Problem List Item"
        } ]
      } ],
      "code": {
        "coding": [ {
          "system": "http://snomed.info/sct",
          "code": "471141000124102",
          "display": "Anaphylaxis caused by vaccine product containing Streptococcus pneumoniae antigen (disorder)"
        } ]
      },
      "subject": {
        "reference": "Patient/a5ca4525-88bc-4b67-b880-ca1cf54daa88"
      },
      "onsetDateTime": "2024-01-12T00:00:00.000Z"
    },
    "request": {
      "method": "POST",
      "url": "Condition/Condition-7"
    }
  }, {
    "fullUrl": "https://madie.cms.gov/Condition/Condition-8",
    "resource": {
      "resourceType": "Condition",
      "id": "Condition-8",
      "meta": {
        "profile": [ "http://hl7.org/fhir/us/qicore/StructureDefinition/qicore-condition" ]
      },
      "clinicalStatus": {
        "coding": [ {
          "system": "http://terminology.hl7.org/CodeSystem/condition-clinical",
          "code": "active"
        } ]
      },
      "category": [ {
        "coding": [ {
          "system": "http://terminology.hl7.org/CodeSystem/condition-category",
          "code": "problem-list-item",
          "display": "Problem List Item"
        } ]
      } ],
      "code": {
        "coding": [ {
          "system": "http://snomed.info/sct",
          "code": "40468003",
          "display": "Viral hepatitis, type A (disorder)"
        } ]
      },
      "subject": {
        "reference": "Patient/a5ca4525-88bc-4b67-b880-ca1cf54daa88"
      },
      "onsetDateTime": "2024-01-02T00:00:00.000Z"
    },
    "request": {
      "method": "POST",
      "url": "Condition/Condition-8"
    }
  }, {
    "fullUrl": "https://madie.cms.gov/Condition/Condition-9",
    "resource": {
      "resourceType": "Condition",
      "id": "Condition-9",
      "meta": {
        "profile": [ "http://hl7.org/fhir/us/qicore/StructureDefinition/qicore-condition" ]
      },
      "clinicalStatus": {
        "coding": [ {
          "system": "http://terminology.hl7.org/CodeSystem/condition-clinical",
          "code": "active"
        } ]
      },
      "category": [ {
        "coding": [ {
          "system": "http://terminology.hl7.org/CodeSystem/condition-category",
          "code": "problem-list-item",
          "display": "Problem List Item"
        } ]
      } ],
      "code": {
        "coding": [ {
          "system": "http://snomed.info/sct",
          "code": "428331000124103",
          "display": "Anaphylaxis caused by rotavirus vaccine (disorder)"
        } ]
      },
      "subject": {
        "reference": "Patient/a5ca4525-88bc-4b67-b880-ca1cf54daa88"
      },
      "onsetDateTime": "2024-01-02T00:00:00.000Z"
    },
    "request": {
      "method": "POST",
      "url": "Condition/Condition-9"
    }
  }, {
    "fullUrl": "https://madie.cms.gov/Condition/Condition-10",
    "resource": {
      "resourceType": "Condition",
      "id": "Condition-10",
      "meta": {
        "profile": [ "http://hl7.org/fhir/us/qicore/StructureDefinition/qicore-condition" ]
      },
      "clinicalStatus": {
        "coding": [ {
          "system": "http://terminology.hl7.org/CodeSystem/condition-clinical",
          "code": "active"
        } ]
      },
      "category": [ {
        "coding": [ {
          "system": "http://terminology.hl7.org/CodeSystem/condition-category",
          "code": "problem-list-item",
          "display": "Problem List Item"
        } ]
      } ],
      "code": {
        "coding": [ {
          "system": "http://snomed.info/sct",
          "code": "471361000124100",
          "display": "Anaphylaxis caused by vaccine product containing Influenza virus antigen (disorder)"
        } ]
      },
      "subject": {
        "reference": "Patient/a5ca4525-88bc-4b67-b880-ca1cf54daa88"
      },
      "onsetDateTime": "2024-01-02T00:00:00.000Z"
    },
    "request": {
      "method": "POST",
      "url": "Condition/Condition-10"
    }
  }, {
    "fullUrl": "https://madie.cms.gov/MeasureReport/d87038d0-ca89-44e2-8ef1-4fd3e7fe2a70",
    "resource": {
      "resourceType": "MeasureReport",
      "id": "d87038d0-ca89-44e2-8ef1-4fd3e7fe2a70",
      "meta": {
        "profile": [ "http://hl7.org/fhir/us/cqfmeasures/StructureDefinition/test-case-cqfm" ]
      },
      "contained": [ {
        "resourceType": "Parameters",
        "id": "e4f388f1-d5a4-4f4a-ae02-d04d7f2d552d-parameters",
        "parameter": [ {
          "name": "subject",
          "valueString": "a5ca4525-88bc-4b67-b880-ca1cf54daa88"
        } ]
      } ],
      "extension": [ {
        "url": "http://hl7.org/fhir/us/cqfmeasures/StructureDefinition/cqfm-inputParameters",
        "valueReference": {
          "reference": "#e4f388f1-d5a4-4f4a-ae02-d04d7f2d552d-parameters"
        }
      }, {
        "url": "http://hl7.org/fhir/us/cqfmeasures/StructureDefinition/cqfm-testCaseDescription",
        "valueMarkdown": "All anaphylaxis or conditions in lieu"
      } ],
      "modifierExtension": [ {
        "url": "http://hl7.org/fhir/us/cqfmeasures/StructureDefinition/cqfm-isTestCase",
        "valueBoolean": true
      } ],
      "status": "complete",
      "type": "individual",
      "measure": "https://madie.cms.gov/Measure/ChildhoodImmunizationStatusFHIR",
      "period": {
        "start": "2025-01-01",
        "end": "2025-12-31"
      },
      "group": [ {
        "population": [ {
          "code": {
            "coding": [ {
              "system": "http://terminology.hl7.org/CodeSystem/measure-population",
              "code": "initial-population",
              "display": "Initial Population"
            } ]
          },
          "count": 1
        }, {
          "code": {
            "coding": [ {
              "system": "http://terminology.hl7.org/CodeSystem/measure-population",
              "code": "denominator",
              "display": "Denominator"
            } ]
          },
          "count": 1
        }, {
          "code": {
            "coding": [ {
              "system": "http://terminology.hl7.org/CodeSystem/measure-population",
              "code": "denominator-exclusion",
              "display": "Denominator Exclusion"
            } ]
          },
          "count": 0
        }, {
          "code": {
            "coding": [ {
              "system": "http://terminology.hl7.org/CodeSystem/measure-population",
              "code": "numerator",
              "display": "Numerator"
            } ]
          },
          "count": 1
        } ]
      } ],
      "evaluatedResource": [ {
        "reference": "https://madie.cms.gov/Patient/a5ca4525-88bc-4b67-b880-ca1cf54daa88"
      }, {
        "reference": "https://madie.cms.gov/Encounter/Encounter-1"
      }, {
        "reference": "https://madie.cms.gov/Condition/Condition-1"
      }, {
        "reference": "https://madie.cms.gov/Condition/Condition-2"
      }, {
        "reference": "https://madie.cms.gov/Condition/Condition-3"
      }, {
        "reference": "https://madie.cms.gov/Condition/Condition-4"
      }, {
        "reference": "https://madie.cms.gov/Condition/Condition-5"
      }, {
        "reference": "https://madie.cms.gov/Condition/Condition-6"
      }, {
        "reference": "https://madie.cms.gov/Condition/Condition-7"
      }, {
        "reference": "https://madie.cms.gov/Condition/Condition-8"
      }, {
        "reference": "https://madie.cms.gov/Condition/Condition-9"
      }, {
        "reference": "https://madie.cms.gov/Condition/Condition-10"
      } ]
    },
    "request": {
      "method": "POST",
      "url": "MeasureReport/d87038d0-ca89-44e2-8ef1-4fd3e7fe2a70"
    }
  } ]
}