{"resourceType":"Bundle","id":"tests-145d3cd0-ad9d-443f-8f9f-e2f8a5b46bab-bundle","type":"transaction","entry":[{"fullUrl":"https://madie.cms.gov/Patient/145d3cd0-ad9d-443f-8f9f-e2f8a5b46bab","resource":{"resourceType":"Patient","id":"145d3cd0-ad9d-443f-8f9f-e2f8a5b46bab","meta":{"profile":["http://hl7.org/fhir/us/qicore/StructureDefinition/qicore-patient"]},"extension":[{"url":"http://hl7.org/fhir/us/core/StructureDefinition/us-core-race","extension":[{"url":"ombCategory","valueCoding":{"system":"urn:oid:2.16.840.1.113883.6.238","code":"2054-5","display":"Black or African American","userSelected":true}},{"url":"text","valueString":"Black or African American"}]},{"url":"http://hl7.org/fhir/us/core/StructureDefinition/us-core-ethnicity","extension":[{"url":"ombCategory","valueCoding":{"system":"urn:oid:2.16.840.1.113883.6.238","code":"2186-5","display":"Not Hispanic or Latino","userSelected":true}},{"url":"text","valueString":"Not Hispanic or Latino"}]}],"identifier":[{"type":{"coding":[{"system":"http://terminology.hl7.org/CodeSystem/v2-0203","code":"MR"}]},"system":"https://bonnie-fhir.healthit.gov/","value":"62fd4b710968f82603aac854"}],"name":[{"family":"IPFail","given":["EncOverlapsEndMP"]}],"gender":"female","birthDate":"2000-12-31"},"request":{"method":"PUT","url":"Patient/145d3cd0-ad9d-443f-8f9f-e2f8a5b46bab"}},{"fullUrl":"https://madie.cms.gov/Encounter/preventive-care-services-initial-office-visit-18-and-up-a533","resource":{"resourceType":"Encounter","id":"18736e0a-85a8-4b18-a0af-8bbb2565813c","meta":{"profile":["http://hl7.org/fhir/us/qicore/StructureDefinition/qicore-encounter"]},"status":"finished","class":{"system":"http://terminology.hl7.org/CodeSystem/v3-ActCode","code":"AMB","display":"ambulatory"},"type":[{"coding":[{"system":"http://www.ama-assn.org/go/cpt","version":"2021","code":"99385","display":"Initial comprehensive preventive medicine evaluation and management of an individual including an age and gender appropriate history, examination, counseling/anticipatory guidance/risk factor reduction interventions, and the ordering of laboratory/diagnostic procedures, new patient; 18-39 years","userSelected":true}]}],"subject":{"reference":"Patient/145d3cd0-ad9d-443f-8f9f-e2f8a5b46bab"},"period":{"start":"2025-12-31T23:59:00.000+00:00","end":"2026-01-01T00:15:00.000+00:00"}},"request":{"method":"PUT","url":"Encounter/18736e0a-85a8-4b18-a0af-8bbb2565813c"}},{"fullUrl":"https://madie.cms.gov/ServiceRequest/referral-a536","resource":{"resourceType":"ServiceRequest","id":"12096752-7c94-4f0a-8d34-5f2ccfb4948a","meta":{"profile":["http://hl7.org/fhir/us/qicore/StructureDefinition/qicore-servicerequest"]},"status":"active","intent":"order","code":{"coding":[{"system":"http://snomed.info/sct","version":"2022-03","code":"103696004","display":"Patient referral to specialist (procedure)","userSelected":true}]},"subject":{"reference":"Patient/145d3cd0-ad9d-443f-8f9f-e2f8a5b46bab"},"authoredOn":"2025-08-08T08:00:00.000+00:00"},"request":{"method":"PUT","url":"ServiceRequest/12096752-7c94-4f0a-8d34-5f2ccfb4948a"}},{"fullUrl":"https://madie.cms.gov/Coverage/1","resource":{"resourceType":"Coverage","id":"a0240902-3b72-4799-b0ab-8fe43d62a6b6","meta":{"profile":["http://hl7.org/fhir/us/qicore/StructureDefinition/qicore-coverage"]},"status":"active","beneficiary":{"reference":"Patient/145d3cd0-ad9d-443f-8f9f-e2f8a5b46bab"},"payor":[{"reference":"Organization/26111c91-b0e2-476c-a20b-e3f39799f8f5"}]},"request":{"method":"PUT","url":"Coverage/a0240902-3b72-4799-b0ab-8fe43d62a6b6"}},{"fullUrl":"https://madie.cms.gov/Organization/123456","resource":{"resourceType":"Organization","id":"26111c91-b0e2-476c-a20b-e3f39799f8f5","meta":{"profile":["http://hl7.org/fhir/us/qicore/StructureDefinition/qicore-organization"]},"identifier":[{"use":"temp","system":"urn:oid:2.16.840.1.113883.4.4","value":"21-3259825"}],"active":true,"type":[{"coding":[{"system":"http://terminology.hl7.org/CodeSystem/organization-type","code":"pay","display":"Payer"}]}],"name":"Blue Cross Blue Shield of Texas","telecom":[{"system":"phone","value":"(+1) 972-766-6900"}],"address":[{"use":"billing","type":"postal","line":["P.O. Box 660044"],"city":"Dallas","state":"TX","postalCode":"75266-0044","country":"USA"}]},"request":{"method":"PUT","url":"Organization/26111c91-b0e2-476c-a20b-e3f39799f8f5"}},{"fullUrl":"https://madie.cms.gov/Practitioner/practitioner-123456","resource":{"resourceType":"Practitioner","id":"4324556d-ee6d-4e34-a011-3e5d0414ccb4","meta":{"profile":["http://hl7.org/fhir/us/qicore/StructureDefinition/qicore-practitioner"]},"identifier":[{"system":"http://hl7.org/fhir/sid/us-npi","value":"123456"}],"name":[{"family":"Evil","prefix":["Dr"]}]},"request":{"method":"PUT","url":"Practitioner/4324556d-ee6d-4e34-a011-3e5d0414ccb4"}},{"fullUrl":"https://madie.cms.gov/MeasureReport/1043a52b-6658-4dc7-965b-d7732c9b3eb4","resource":{"resourceType":"MeasureReport","id":"1043a52b-6658-4dc7-965b-d7732c9b3eb4","meta":{"profile":["http://hl7.org/fhir/us/cqfmeasures/StructureDefinition/test-case-cqfm"]},"contained":[{"resourceType":"Parameters","id":"2c00508e-21c8-43d9-a940-b35dcd80c19f-parameters","parameter":[{"name":"subject","valueString":"145d3cd0-ad9d-443f-8f9f-e2f8a5b46bab"}]}],"extension":[{"url":"http://hl7.org/fhir/us/cqfmeasures/StructureDefinition/cqfm-inputParameters","valueReference":{"reference":"#2c00508e-21c8-43d9-a940-b35dcd80c19f-parameters"}},{"url":"http://hl7.org/fhir/us/cqfmeasures/StructureDefinition/cqfm-testCaseDescription","valueMarkdown":"Encounter starts during MP but ends after MP.  ( \"start\" : \"202x-12-31T23:59:00.000+00:00\", \"end\" : \"202x-01-01T00:15:00.000+00:00\")"}],"modifierExtension":[{"url":"http://hl7.org/fhir/us/cqfmeasures/StructureDefinition/cqfm-isTestCase","valueBoolean":true}],"status":"complete","type":"individual","measure":"https://madie.cms.gov/Measure/CRLReceiptofSpecialistReportFHIR","period":{"start":"2025-01-01","end":"2025-12-31"},"group":[{"population":[{"code":{"coding":[{"system":"http://terminology.hl7.org/CodeSystem/measure-population","code":"initial-population","display":"Initial Population"}]},"count":0},{"code":{"coding":[{"system":"http://terminology.hl7.org/CodeSystem/measure-population","code":"denominator","display":"Denominator"}]},"count":0},{"code":{"coding":[{"system":"http://terminology.hl7.org/CodeSystem/measure-population","code":"numerator","display":"Numerator"}]},"count":0}]}]},"request":{"method":"PUT","url":"MeasureReport/1043a52b-6658-4dc7-965b-d7732c9b3eb4"}}]}