{"resourceType":"Bundle","id":"tests-5b598d1b-542d-4129-9786-d194b56ee07d-bundle","type":"transaction","entry":[{"fullUrl":"https://madie.cms.gov/Patient/5b598d1b-542d-4129-9786-d194b56ee07d","resource":{"resourceType":"Patient","id":"5b598d1b-542d-4129-9786-d194b56ee07d","meta":{"profile":["http://hl7.org/fhir/us/qicore/StructureDefinition/qicore-patient"]},"extension":[{"url":"http://hl7.org/fhir/us/core/StructureDefinition/us-core-race","extension":[{"url":"ombCategory","valueCoding":{"system":"urn:oid:2.16.840.1.113883.6.238","code":"2106-3","display":"White","userSelected":true}},{"url":"text","valueString":"White"}]},{"url":"http://hl7.org/fhir/us/core/StructureDefinition/us-core-ethnicity","extension":[{"url":"ombCategory","valueCoding":{"system":"urn:oid:2.16.840.1.113883.6.238","code":"2186-5","display":"Not Hispanic or Latino","userSelected":true}},{"url":"text","valueString":"Not Hispanic or Latino"}]}],"identifier":[{"type":{"coding":[{"system":"http://terminology.hl7.org/CodeSystem/v2-0203","code":"MR"}]},"system":"https://bonnie-fhir.healthit.gov/","value":"62fd4b700968f82603aac7ac"}],"name":[{"family":"IPFail","given":["ReferralBeforeRefPeriod"]}],"gender":"other","birthDate":"2000-06-02"},"request":{"method":"PUT","url":"Patient/5b598d1b-542d-4129-9786-d194b56ee07d"}},{"fullUrl":"https://madie.cms.gov/ServiceRequest/referral-a53b","resource":{"resourceType":"ServiceRequest","id":"9ef5fb1b-060f-402f-a8f1-b169900c4772","meta":{"profile":["http://hl7.org/fhir/us/qicore/StructureDefinition/qicore-servicerequest"]},"status":"active","intent":"order","code":{"coding":[{"system":"http://snomed.info/sct","version":"2022-03","code":"103696004","display":"Patient referral to specialist (procedure)","userSelected":true}]},"subject":{"reference":"Patient/5b598d1b-542d-4129-9786-d194b56ee07d"},"authoredOn":"2023-12-31T23:59:00.000+00:00"},"request":{"method":"PUT","url":"ServiceRequest/9ef5fb1b-060f-402f-a8f1-b169900c4772"}},{"fullUrl":"https://madie.cms.gov/Encounter/preventive-care-services-initial-office-visit-0-to-17-a53c","resource":{"resourceType":"Encounter","id":"07200ba6-ba3b-4a55-bc03-d75283033a17","meta":{"profile":["http://hl7.org/fhir/us/qicore/StructureDefinition/qicore-encounter"]},"status":"finished","class":{"system":"http://terminology.hl7.org/CodeSystem/v3-ActCode","code":"AMB","display":"ambulatory"},"type":[{"coding":[{"system":"http://www.ama-assn.org/go/cpt","version":"2021","code":"99381","display":"Initial comprehensive preventive medicine evaluation and management of an individual including an age and gender appropriate history, examination, counseling/anticipatory guidance/risk factor reduction interventions, and the ordering of laboratory/diagnostic procedures, new patient; infant (age younger than 1 year)","userSelected":true}]}],"subject":{"reference":"Patient/5b598d1b-542d-4129-9786-d194b56ee07d"},"period":{"start":"2025-12-08T08:00:00.000+00:00","end":"2025-12-08T08:15:00.000+00:00"}},"request":{"method":"PUT","url":"Encounter/07200ba6-ba3b-4a55-bc03-d75283033a17"}},{"fullUrl":"https://madie.cms.gov/Coverage/1","resource":{"resourceType":"Coverage","id":"bcaa05ad-ad9d-4ffb-80ee-870cff397348","meta":{"profile":["http://hl7.org/fhir/us/qicore/StructureDefinition/qicore-coverage"]},"status":"active","beneficiary":{"reference":"Patient/5b598d1b-542d-4129-9786-d194b56ee07d"},"payor":[{"reference":"Organization/26111c91-b0e2-476c-a20b-e3f39799f8f5"}]},"request":{"method":"PUT","url":"Coverage/bcaa05ad-ad9d-4ffb-80ee-870cff397348"}},{"fullUrl":"https://madie.cms.gov/Organization/123456","resource":{"resourceType":"Organization","id":"26111c91-b0e2-476c-a20b-e3f39799f8f5","meta":{"profile":["http://hl7.org/fhir/us/qicore/StructureDefinition/qicore-organization"]},"identifier":[{"use":"temp","system":"urn:oid:2.16.840.1.113883.4.4","value":"21-3259825"}],"active":true,"type":[{"coding":[{"system":"http://terminology.hl7.org/CodeSystem/organization-type","code":"pay","display":"Payer"}]}],"name":"Blue Cross Blue Shield of Texas","telecom":[{"system":"phone","value":"(+1) 972-766-6900"}],"address":[{"use":"billing","type":"postal","line":["P.O. Box 660044"],"city":"Dallas","state":"TX","postalCode":"75266-0044","country":"USA"}]},"request":{"method":"PUT","url":"Organization/26111c91-b0e2-476c-a20b-e3f39799f8f5"}},{"fullUrl":"https://madie.cms.gov/Practitioner/practitioner-123456","resource":{"resourceType":"Practitioner","id":"f34fb9ae-cc88-400f-9581-7ee2787a8df2","meta":{"profile":["http://hl7.org/fhir/us/qicore/StructureDefinition/qicore-practitioner"]},"identifier":[{"system":"http://hl7.org/fhir/sid/us-npi","value":"123456"}],"name":[{"family":"Evil","prefix":["Dr"]}]},"request":{"method":"PUT","url":"Practitioner/f34fb9ae-cc88-400f-9581-7ee2787a8df2"}},{"fullUrl":"https://madie.cms.gov/MeasureReport/f6fdae19-1044-440a-85f5-dbbc0210a557","resource":{"resourceType":"MeasureReport","id":"f6fdae19-1044-440a-85f5-dbbc0210a557","meta":{"profile":["http://hl7.org/fhir/us/cqfmeasures/StructureDefinition/test-case-cqfm"]},"contained":[{"resourceType":"Parameters","id":"fecbd08d-da16-4587-83c7-b02ba57488b6-parameters","parameter":[{"name":"subject","valueString":"5b598d1b-542d-4129-9786-d194b56ee07d"}]}],"extension":[{"url":"http://hl7.org/fhir/us/cqfmeasures/StructureDefinition/cqfm-inputParameters","valueReference":{"reference":"#fecbd08d-da16-4587-83c7-b02ba57488b6-parameters"}},{"url":"http://hl7.org/fhir/us/cqfmeasures/StructureDefinition/cqfm-testCaseDescription","valueMarkdown":"Encounter during MP. status finished, Referral Status Active, Intent Order before Referral period.\n"}],"modifierExtension":[{"url":"http://hl7.org/fhir/us/cqfmeasures/StructureDefinition/cqfm-isTestCase","valueBoolean":true}],"status":"complete","type":"individual","measure":"https://madie.cms.gov/Measure/CRLReceiptofSpecialistReportFHIR","period":{"start":"2025-01-01","end":"2025-12-31"},"group":[{"population":[{"code":{"coding":[{"system":"http://terminology.hl7.org/CodeSystem/measure-population","code":"initial-population","display":"Initial Population"}]},"count":0},{"code":{"coding":[{"system":"http://terminology.hl7.org/CodeSystem/measure-population","code":"denominator","display":"Denominator"}]},"count":0},{"code":{"coding":[{"system":"http://terminology.hl7.org/CodeSystem/measure-population","code":"numerator","display":"Numerator"}]},"count":0}]}]},"request":{"method":"PUT","url":"MeasureReport/f6fdae19-1044-440a-85f5-dbbc0210a557"}}]}