{
  "resourceType": "Bundle",
  "id": "1311351313135",
  "type": "transaction",
  "entry": [ {
    "fullUrl": "https://madie.cms.gov/Patient/68a791aa-734a-442b-b82a-e85ee3105a66",
    "resource": {
      "resourceType": "Patient",
      "id": "68a791aa-734a-442b-b82a-e85ee3105a66",
      "meta": {
        "profile": [ "http://hl7.org/fhir/us/qicore/StructureDefinition/qicore-patient" ]
      },
      "extension": [ {
        "url": "http://hl7.org/fhir/us/core/StructureDefinition/us-core-race",
        "extension": [ {
          "url": "ombCategory",
          "valueCoding": {
            "system": "urn:oid:2.16.840.1.113883.6.238",
            "code": "2076-8",
            "display": "Native Hawaiian or Other Pacific Islander"
          }
        }, {
          "url": "text",
          "valueString": "Native Hawaiian or Other Pacific Islander"
        } ]
      }, {
        "url": "http://hl7.org/fhir/us/core/StructureDefinition/us-core-ethnicity",
        "extension": [ {
          "url": "ombCategory",
          "valueCoding": {
            "system": "urn:oid:2.16.840.1.113883.6.238",
            "code": "2186-5",
            "display": "Not Hispanic or Latino"
          }
        }, {
          "url": "text",
          "valueString": "Not Hispanic or Latino"
        } ]
      } ],
      "identifier": [ {
        "type": {
          "coding": [ {
            "system": "http://terminology.hl7.org/CodeSystem/v2-0203",
            "code": "MR"
          } ]
        },
        "system": "https://bonnie-fhir.healthit.gov/",
        "value": "6351g5asg32135135102101"
      } ],
      "name": [ {
        "family": "DENOMPass",
        "given": [ "OVinMPBladderCaAndStaging" ]
      } ],
      "gender": "female",
      "birthDate": "1946-11-03"
    },
    "request": {
      "method": "POST",
      "url": "Patient/68a791aa-734a-442b-b82a-e85ee3105a66"
    }
  }, {
    "fullUrl": "https://madie.cms.gov/Encounter/4631313513",
    "resource": {
      "resourceType": "Encounter",
      "id": "4631313513",
      "meta": {
        "profile": [ "http://hl7.org/fhir/us/qicore/StructureDefinition/qicore-encounter" ]
      },
      "status": "finished",
      "class": {
        "system": "http://terminology.hl7.org/CodeSystem/v3-ActCode",
        "code": "AMB",
        "display": "ambulatory"
      },
      "type": [ {
        "coding": [ {
          "system": "http://snomed.info/sct",
          "version": "http://snomed.info/sct/731000124108/version/20240301",
          "code": "185463005",
          "display": "Visit out of hours (procedure)"
        } ]
      } ],
      "subject": {
        "reference": "Patient/68a791aa-734a-442b-b82a-e85ee3105a66"
      },
      "period": {
        "start": "2025-04-06T08:00:00.000+00:00",
        "end": "2025-04-06T09:15:00.000+00:00"
      }
    },
    "request": {
      "method": "POST",
      "url": "Encounter/4631313513"
    }
  }, {
    "fullUrl": "https://madie.cms.gov/Condition/4653103513",
    "resource": {
      "resourceType": "Condition",
      "id": "4653103513",
      "meta": {
        "profile": [ "http://hl7.org/fhir/us/qicore/StructureDefinition/qicore-condition" ]
      },
      "clinicalStatus": {
        "coding": [ {
          "system": "http://terminology.hl7.org/CodeSystem/condition-clinical",
          "code": "active",
          "display": "Active"
        } ]
      },
      "verificationStatus": {
        "coding": [ {
          "system": "http://terminology.hl7.org/CodeSystem/condition-ver-status",
          "code": "confirmed",
          "display": "Confirmed"
        } ]
      },
      "category": [ {
        "coding": [ {
          "system": "http://terminology.hl7.org/CodeSystem/condition-category",
          "code": "problem-list-item",
          "display": "Problem List Item"
        } ]
      } ],
      "code": {
        "coding": [ {
          "system": "http://hl7.org/fhir/sid/icd-10-cm",
          "version": "2024",
          "code": "C67.1",
          "display": "Malignant neoplasm of dome of bladder"
        } ]
      },
      "subject": {
        "reference": "Patient/68a791aa-734a-442b-b82a-e85ee3105a66"
      },
      "onsetPeriod": {
        "start": "2025-04-06T08:00:00.000+00:00"
      }
    },
    "request": {
      "method": "POST",
      "url": "Condition/4653103513"
    }
  }, {
    "fullUrl": "https://madie.cms.gov/Procedure/3416131031",
    "resource": {
      "resourceType": "Procedure",
      "id": "3416131031",
      "meta": {
        "profile": [ "http://hl7.org/fhir/us/qicore/StructureDefinition/qicore-procedure" ]
      },
      "extension": [ {
        "url": "http://hl7.org/fhir/us/qicore/StructureDefinition/qicore-recorded",
        "valueDateTime": "2025-04-06T08:00:00.000+00:00"
      } ],
      "status": "completed",
      "code": {
        "coding": [ {
          "system": "http://snomed.info/sct",
          "version": "http://snomed.info/sct/731000124108/version/20240301",
          "code": "254292007",
          "display": "Tumor staging"
        } ]
      },
      "subject": {
        "reference": "Patient/68a791aa-734a-442b-b82a-e85ee3105a66"
      },
      "performedDateTime": "2025-04-06T08:00:00.000+00:00"
    },
    "request": {
      "method": "POST",
      "url": "Procedure/3416131031"
    }
  }, {
    "fullUrl": "https://madie.cms.gov/Observation/4135134163132032",
    "resource": {
      "resourceType": "Observation",
      "id": "4135134163132032",
      "meta": {
        "profile": [ "http://hl7.org/fhir/us/qicore/StructureDefinition/qicore-observation" ]
      },
      "partOf": [ {
        "reference": "Procedure/3416131031"
      } ],
      "status": "final",
      "category": [ {
        "coding": [ {
          "system": "http://terminology.hl7.org/CodeSystem/observation-category",
          "code": "procedure",
          "display": "Procedure"
        } ]
      } ],
      "code": {
        "coding": [ {
          "system": "http://loinc.org",
          "version": "2.76",
          "code": "21902-2",
          "display": "Stage group.pathology Cancer"
        } ]
      },
      "subject": {
        "reference": "Patient/68a791aa-734a-442b-b82a-e85ee3105a66"
      },
      "effectiveDateTime": "2025-04-06T08:00:00.000+00:00",
      "issued": "2025-04-06T08:10:00.000+00:00",
      "valueCodeableConcept": {
        "coding": [ {
          "system": "http://snomed.info/sct",
          "code": "1228883000",
          "display": "American Joint Committee on Cancer cTa (qualifier value)",
          "userSelected": true
        } ]
      }
    },
    "request": {
      "method": "POST",
      "url": "Observation/4135134163132032"
    }
  }, {
    "fullUrl": "https://madie.cms.gov/MeasureReport/bac25ccd-7925-4bdb-8f09-8192f3df228d",
    "resource": {
      "resourceType": "MeasureReport",
      "id": "bac25ccd-7925-4bdb-8f09-8192f3df228d",
      "meta": {
        "profile": [ "http://hl7.org/fhir/us/cqfmeasures/StructureDefinition/test-case-cqfm" ]
      },
      "contained": [ {
        "resourceType": "Parameters",
        "id": "288fd1de-2e9f-4905-a326-1b95ec03dc92-parameters",
        "parameter": [ {
          "name": "subject",
          "valueString": "68a791aa-734a-442b-b82a-e85ee3105a66"
        } ]
      } ],
      "extension": [ {
        "url": "http://hl7.org/fhir/us/cqfmeasures/StructureDefinition/cqfm-inputParameters",
        "valueReference": {
          "reference": "#288fd1de-2e9f-4905-a326-1b95ec03dc92-parameters"
        }
      }, {
        "url": "http://hl7.org/fhir/us/cqfmeasures/StructureDefinition/cqfm-testCaseDescription",
        "valueMarkdown": "Patient with OV in MP with  bladder cancer diagnosis in MP. BCa staging done. DENOM passes."
      } ],
      "modifierExtension": [ {
        "url": "http://hl7.org/fhir/us/cqfmeasures/StructureDefinition/cqfm-isTestCase",
        "valueBoolean": true
      } ],
      "status": "complete",
      "type": "individual",
      "measure": "https://madie.cms.gov/Measure/IntravesicalBacillusCalmetteGuerinForBladderCancerFHIR",
      "period": {
        "start": "2025-01-01",
        "end": "2025-12-31"
      },
      "group": [ {
        "population": [ {
          "code": {
            "coding": [ {
              "system": "http://terminology.hl7.org/CodeSystem/measure-population",
              "code": "initial-population",
              "display": "Initial Population"
            } ]
          },
          "count": 1
        }, {
          "code": {
            "coding": [ {
              "system": "http://terminology.hl7.org/CodeSystem/measure-population",
              "code": "denominator",
              "display": "Denominator"
            } ]
          },
          "count": 1
        }, {
          "code": {
            "coding": [ {
              "system": "http://terminology.hl7.org/CodeSystem/measure-population",
              "code": "denominator-exclusion",
              "display": "Denominator Exclusion"
            } ]
          },
          "count": 0
        }, {
          "code": {
            "coding": [ {
              "system": "http://terminology.hl7.org/CodeSystem/measure-population",
              "code": "numerator",
              "display": "Numerator"
            } ]
          },
          "count": 0
        }, {
          "code": {
            "coding": [ {
              "system": "http://terminology.hl7.org/CodeSystem/measure-population",
              "code": "denominator-exception",
              "display": "Denominator Exception"
            } ]
          },
          "count": 0
        } ]
      } ],
      "evaluatedResource": [ {
        "reference": "https://madie.cms.gov/Patient/68a791aa-734a-442b-b82a-e85ee3105a66"
      }, {
        "reference": "https://madie.cms.gov/Encounter/4631313513"
      }, {
        "reference": "https://madie.cms.gov/Condition/4653103513"
      }, {
        "reference": "https://madie.cms.gov/Procedure/3416131031"
      }, {
        "reference": "https://madie.cms.gov/Observation/4135134163132032"
      } ]
    },
    "request": {
      "method": "POST",
      "url": "MeasureReport/bac25ccd-7925-4bdb-8f09-8192f3df228d"
    }
  } ]
}