{"resourceType":"Bundle","id":"tests-39fd854c-e5c0-440e-a88d-1585af66cb1c-bundle","type":"transaction","entry":[{"fullUrl":"https://madie.cms.gov/Patient/39fd854c-e5c0-440e-a88d-1585af66cb1c","resource":{"resourceType":"Patient","id":"39fd854c-e5c0-440e-a88d-1585af66cb1c","meta":{"profile":["http://hl7.org/fhir/us/qicore/StructureDefinition/qicore-patient"]},"extension":[{"url":"http://hl7.org/fhir/us/core/StructureDefinition/us-core-race","extension":[{"url":"ombCategory","valueCoding":{"system":"urn:oid:2.16.840.1.113883.6.238","code":"2028-9","display":"Asian","userSelected":true}},{"url":"text","valueString":"Asian"}]},{"url":"http://hl7.org/fhir/us/core/StructureDefinition/us-core-ethnicity","extension":[{"url":"ombCategory","valueCoding":{"system":"urn:oid:2.16.840.1.113883.6.238","code":"2186-5","display":"Not Hispanic or Latino","userSelected":true}},{"url":"text","valueString":"Not Hispanic or Latino"}]}],"identifier":[{"type":{"coding":[{"system":"http://terminology.hl7.org/CodeSystem/v2-0203","code":"MR"}]},"system":"https://bonnie-fhir.healthit.gov/","value":"63d963937a195f4975f0062a"}],"name":[{"family":"DENOMPass","given":["Age17inEDAge18DayOfAdmitToIP"]}],"gender":"female","birthDate":"2007-02-01"},"request":{"method":"PUT","url":"Patient/39fd854c-e5c0-440e-a88d-1585af66cb1c"}},{"fullUrl":"https://madie.cms.gov/Encounter/emergency-department-visit-062b","resource":{"resourceType":"Encounter","id":"ed3e7f41-072b-48f5-a1cb-e143133b89d5","meta":{"profile":["http://hl7.org/fhir/us/qicore/StructureDefinition/qicore-encounter"]},"status":"finished","class":{"system":"http://terminology.hl7.org/CodeSystem/v3-ActCode","code":"EMER","display":"emergency"},"type":[{"coding":[{"system":"http://snomed.info/sct","version":"2022-09","code":"4525004","display":"Emergency department patient visit (procedure)","userSelected":true}]}],"subject":{"reference":"Patient/39fd854c-e5c0-440e-a88d-1585af66cb1c"},"period":{"start":"2025-01-31T08:00:00.000+00:00","end":"2025-02-01T08:15:00.000+00:00"}},"request":{"method":"PUT","url":"Encounter/ed3e7f41-072b-48f5-a1cb-e143133b89d5"}},{"fullUrl":"https://madie.cms.gov/Encounter/encounter-inpatient-062c","resource":{"resourceType":"Encounter","id":"189033c1-4921-4fce-8431-64d63f22fa5a","meta":{"profile":["http://hl7.org/fhir/us/qicore/StructureDefinition/qicore-encounter"]},"status":"finished","class":{"system":"http://terminology.hl7.org/CodeSystem/v3-ActCode","code":"IMP","display":"inpatient encounter"},"type":[{"coding":[{"system":"http://snomed.info/sct","version":"2022-09","code":"183452005","display":"Emergency hospital admission (procedure)","userSelected":true}]}],"subject":{"reference":"Patient/39fd854c-e5c0-440e-a88d-1585af66cb1c"},"period":{"start":"2025-02-01T08:30:00.000+00:00","end":"2025-02-06T08:15:00.000+00:00"}},"request":{"method":"PUT","url":"Encounter/189033c1-4921-4fce-8431-64d63f22fa5a"}},{"fullUrl":"https://madie.cms.gov/MeasureReport/8de14436-9932-4293-9ba5-0b3d87d6c751","resource":{"resourceType":"MeasureReport","id":"8de14436-9932-4293-9ba5-0b3d87d6c751","meta":{"profile":["http://hl7.org/fhir/us/cqfmeasures/StructureDefinition/test-case-cqfm"]},"contained":[{"resourceType":"Parameters","id":"9741586d-1df3-4bed-ac3e-c20a1b74f294-parameters","parameter":[{"name":"subject","valueString":"39fd854c-e5c0-440e-a88d-1585af66cb1c"}]}],"extension":[{"url":"http://hl7.org/fhir/us/cqfmeasures/StructureDefinition/cqfm-inputParameters","valueReference":{"reference":"#9741586d-1df3-4bed-ac3e-c20a1b74f294-parameters"}},{"url":"http://hl7.org/fhir/us/cqfmeasures/StructureDefinition/cqfm-testCaseDescription","valueMarkdown":"Inpatient encounter during MP.  Age is 17 when in ED. Turns 18 on day of inpatient admit. Meets IPP / Denom. "}],"modifierExtension":[{"url":"http://hl7.org/fhir/us/cqfmeasures/StructureDefinition/cqfm-isTestCase","valueBoolean":true}],"status":"complete","type":"individual","measure":"https://madie.cms.gov/Measure/HospitalHarmPressureInjuryFHIR","period":{"start":"2025-01-01","end":"2025-12-31"},"group":[{"population":[{"code":{"coding":[{"system":"http://terminology.hl7.org/CodeSystem/measure-population","code":"initial-population","display":"Initial Population"}]},"count":1},{"code":{"coding":[{"system":"http://terminology.hl7.org/CodeSystem/measure-population","code":"denominator","display":"Denominator"}]},"count":1},{"code":{"coding":[{"system":"http://terminology.hl7.org/CodeSystem/measure-population","code":"denominator-exclusion","display":"Denominator Exclusion"}]},"count":0},{"code":{"coding":[{"system":"http://terminology.hl7.org/CodeSystem/measure-population","code":"numerator","display":"Numerator"}]},"count":0}]}]},"request":{"method":"PUT","url":"MeasureReport/8de14436-9932-4293-9ba5-0b3d87d6c751"}}]}