{"resourceType":"Bundle","id":"tests-bc28b32e-1c2f-457c-8c60-f36041a2519b-bundle","type":"transaction","entry":[{"fullUrl":"https://madie.cms.gov/Patient/bc28b32e-1c2f-457c-8c60-f36041a2519b","resource":{"resourceType":"Patient","id":"bc28b32e-1c2f-457c-8c60-f36041a2519b","meta":{"profile":["http://hl7.org/fhir/us/qicore/StructureDefinition/qicore-patient"]},"extension":[{"url":"http://hl7.org/fhir/us/core/StructureDefinition/us-core-race","extension":[{"url":"ombCategory","valueCoding":{"system":"urn:oid:2.16.840.1.113883.6.238","code":"2028-9","display":"Asian","userSelected":true}},{"url":"text","valueString":"Asian"}]},{"url":"http://hl7.org/fhir/us/core/StructureDefinition/us-core-ethnicity","extension":[{"url":"ombCategory","valueCoding":{"system":"urn:oid:2.16.840.1.113883.6.238","code":"2186-5","display":"Not Hispanic or Latino","userSelected":true}},{"url":"text","valueString":"Not Hispanic or Latino"}]}],"identifier":[{"type":{"coding":[{"system":"http://terminology.hl7.org/CodeSystem/v2-0203","code":"MR"}]},"system":"https://bonnie-fhir.healthit.gov/","value":"647f51ab5e6d159b6e36ee31"}],"name":[{"family":"NUMERPass","given":["IPEncounterWithNewUnstageableNotPOAIndicator"]}],"gender":"other","birthDate":"2005-02-01"},"request":{"method":"PUT","url":"Patient/bc28b32e-1c2f-457c-8c60-f36041a2519b"}},{"fullUrl":"https://madie.cms.gov/Encounter/emergency-department-visit-062b","resource":{"resourceType":"Encounter","id":"091f13db-4817-49ab-b628-c57dc7ccb074","meta":{"profile":["http://hl7.org/fhir/us/qicore/StructureDefinition/qicore-encounter"]},"status":"finished","class":{"system":"http://terminology.hl7.org/CodeSystem/v3-ActCode","code":"EMER","display":"emergency"},"type":[{"coding":[{"system":"http://snomed.info/sct","version":"2022-09","code":"4525004","display":"Emergency department patient visit (procedure)","userSelected":true}]}],"subject":{"reference":"Patient/bc28b32e-1c2f-457c-8c60-f36041a2519b"},"period":{"start":"2025-01-31T08:00:00.000+00:00","end":"2025-02-01T08:15:00.000+00:00"}},"request":{"method":"PUT","url":"Encounter/091f13db-4817-49ab-b628-c57dc7ccb074"}},{"fullUrl":"https://madie.cms.gov/Encounter/encounter-inpatient-062c","resource":{"resourceType":"Encounter","id":"8824af75-87f3-4ae4-a7b2-432597062fea","meta":{"profile":["http://hl7.org/fhir/us/qicore/StructureDefinition/qicore-encounter"]},"status":"finished","class":{"system":"http://terminology.hl7.org/CodeSystem/v3-ActCode","code":"IMP","display":"inpatient encounter"},"type":[{"coding":[{"system":"http://snomed.info/sct","version":"2022-09","code":"183452005","display":"Emergency hospital admission (procedure)","userSelected":true}]}],"subject":{"reference":"Patient/bc28b32e-1c2f-457c-8c60-f36041a2519b"},"period":{"start":"2025-02-01T08:30:00.000+00:00","end":"2025-02-06T08:15:00.000+00:00"},"diagnosis":[{"extension":[{"url":"http://hl7.org/fhir/us/qicore/StructureDefinition/qicore-encounter-diagnosisPresentOnAdmission","valueCodeableConcept":{"coding":[{"system":"https://www.cms.gov/Medicare/Medicare-Fee-for-Service-Payment/HospitalAcqCond/Coding","code":"N"}]}}],"condition":{"reference":"Condition/pressure-injury-diagnoses-adc2"}}]},"request":{"method":"PUT","url":"Encounter/8824af75-87f3-4ae4-a7b2-432597062fea"}},{"fullUrl":"https://madie.cms.gov/Condition/pressure-injury-diagnoses-adc2","resource":{"resourceType":"Condition","id":"1f09c063-777a-49f1-b6d3-fef078dcd0d5","meta":{"profile":["http://hl7.org/fhir/us/qicore/StructureDefinition/qicore-condition"]},"category":[{"coding":[{"system":"http://terminology.hl7.org/CodeSystem/condition-category","code":"encounter-diagnosis","display":"Encounter Diagnosis"}]}],"code":{"coding":[{"system":"http://hl7.org/fhir/sid/icd-10-cm","version":"2023","code":"L89.000","display":"Pressure ulcer of unspecified elbow, unstageable","userSelected":true}]},"subject":{"reference":"Patient/bc28b32e-1c2f-457c-8c60-f36041a2519b"},"recordedDate":"2025-02-01T08:30:00.000+00:00"},"request":{"method":"PUT","url":"Condition/1f09c063-777a-49f1-b6d3-fef078dcd0d5"}},{"fullUrl":"https://madie.cms.gov/MeasureReport/85cb821b-725e-4991-b00c-6454bb0231d2","resource":{"resourceType":"MeasureReport","id":"85cb821b-725e-4991-b00c-6454bb0231d2","meta":{"profile":["http://hl7.org/fhir/us/cqfmeasures/StructureDefinition/test-case-cqfm"]},"contained":[{"resourceType":"Parameters","id":"4f61df39-9719-4bfa-944c-d5d4dac1af34-parameters","parameter":[{"name":"subject","valueString":"bc28b32e-1c2f-457c-8c60-f36041a2519b"}]}],"extension":[{"url":"http://hl7.org/fhir/us/cqfmeasures/StructureDefinition/cqfm-inputParameters","valueReference":{"reference":"#4f61df39-9719-4bfa-944c-d5d4dac1af34-parameters"}},{"url":"http://hl7.org/fhir/us/cqfmeasures/StructureDefinition/cqfm-testCaseDescription","valueMarkdown":"Inpatient encounter during MP.  New unstageable PI by encounter diagnosis with POA indicator = N. Numerator Pass."}],"modifierExtension":[{"url":"http://hl7.org/fhir/us/cqfmeasures/StructureDefinition/cqfm-isTestCase","valueBoolean":true}],"status":"complete","type":"individual","measure":"https://madie.cms.gov/Measure/HospitalHarmPressureInjuryFHIR","period":{"start":"2025-01-01","end":"2025-12-31"},"group":[{"population":[{"code":{"coding":[{"system":"http://terminology.hl7.org/CodeSystem/measure-population","code":"initial-population","display":"Initial Population"}]},"count":1},{"code":{"coding":[{"system":"http://terminology.hl7.org/CodeSystem/measure-population","code":"denominator","display":"Denominator"}]},"count":1},{"code":{"coding":[{"system":"http://terminology.hl7.org/CodeSystem/measure-population","code":"denominator-exclusion","display":"Denominator Exclusion"}]},"count":0},{"code":{"coding":[{"system":"http://terminology.hl7.org/CodeSystem/measure-population","code":"numerator","display":"Numerator"}]},"count":1}]}]},"request":{"method":"PUT","url":"MeasureReport/85cb821b-725e-4991-b00c-6454bb0231d2"}}]}