{"resourceType":"Bundle","id":"tests-73c1a7c6-2bcf-4e6d-b913-9125137da33a-bundle","type":"transaction","entry":[{"fullUrl":"https://madie.cms.gov/Patient/73c1a7c6-2bcf-4e6d-b913-9125137da33a","resource":{"resourceType":"Patient","id":"73c1a7c6-2bcf-4e6d-b913-9125137da33a","meta":{"profile":["http://hl7.org/fhir/us/qicore/StructureDefinition/qicore-patient"]},"extension":[{"url":"http://hl7.org/fhir/us/core/StructureDefinition/us-core-race","extension":[{"url":"ombCategory","valueCoding":{"system":"urn:oid:2.16.840.1.113883.6.238","code":"2054-5","display":"Black or African American","userSelected":true}},{"url":"text","valueString":"Black or African American"}]},{"url":"http://hl7.org/fhir/us/core/StructureDefinition/us-core-ethnicity","extension":[{"url":"ombCategory","valueCoding":{"system":"urn:oid:2.16.840.1.113883.6.238","code":"2135-2","display":"Hispanic or Latino","userSelected":true}},{"url":"text","valueString":"Hispanic or Latino"}]}],"identifier":[{"type":{"coding":[{"system":"http://terminology.hl7.org/CodeSystem/v2-0203","code":"MR"}]},"system":"https://bonnie-fhir.healthit.gov/","value":"64121f8a0c4b751dfe4ccb65"}],"name":[{"family":"NUMERPass","given":["NewDTInjuryByExamGT72Hrs"]}],"gender":"male","birthDate":"1961-09-08"},"request":{"method":"PUT","url":"Patient/73c1a7c6-2bcf-4e6d-b913-9125137da33a"}},{"fullUrl":"https://madie.cms.gov/Encounter/emergency-department-visit-cb66","resource":{"resourceType":"Encounter","id":"f6cfdb77-5a17-4de6-b47d-a41eb100112f","meta":{"profile":["http://hl7.org/fhir/us/qicore/StructureDefinition/qicore-encounter"]},"status":"finished","class":{"system":"http://terminology.hl7.org/CodeSystem/v3-ActCode","code":"EMER","display":"emergency"},"type":[{"coding":[{"system":"http://snomed.info/sct","version":"2022-09","code":"4525004","display":"Emergency department patient visit (procedure)","userSelected":true}]}],"subject":{"reference":"Patient/73c1a7c6-2bcf-4e6d-b913-9125137da33a"},"period":{"start":"2025-03-15T08:00:00.000+00:00","end":"2025-03-15T10:15:00.000+00:00"}},"request":{"method":"PUT","url":"Encounter/f6cfdb77-5a17-4de6-b47d-a41eb100112f"}},{"fullUrl":"https://madie.cms.gov/Encounter/encounter-inpatient-cb67","resource":{"resourceType":"Encounter","id":"d4e44b17-37c5-48fa-973a-d03b551f1e94","meta":{"profile":["http://hl7.org/fhir/us/qicore/StructureDefinition/qicore-encounter"]},"status":"finished","class":{"system":"http://terminology.hl7.org/CodeSystem/v3-ActCode","code":"IMP","display":"inpatient encounter"},"type":[{"coding":[{"system":"http://snomed.info/sct","version":"2022-09","code":"183452005","display":"Emergency hospital admission (procedure)","userSelected":true}]}],"subject":{"reference":"Patient/73c1a7c6-2bcf-4e6d-b913-9125137da33a"},"period":{"start":"2025-03-15T11:00:00.000+00:00","end":"2025-03-22T08:15:00.000+00:00"}},"request":{"method":"PUT","url":"Encounter/d4e44b17-37c5-48fa-973a-d03b551f1e94"}},{"fullUrl":"https://madie.cms.gov/Observation/physical-findings-of-skin-cb68","resource":{"resourceType":"Observation","id":"96540cdd-398c-486a-aea7-92a2f2346166","meta":{"profile":["http://hl7.org/fhir/us/qicore/StructureDefinition/qicore-observation"]},"status":"final","category":[{"coding":[{"system":"http://terminology.hl7.org/CodeSystem/observation-category","code":"exam","display":"Exam"}]}],"code":{"coding":[{"system":"http://loinc.org","code":"8709-8","display":"Physical findings of Skin","userSelected":true}]},"subject":{"reference":"Patient/73c1a7c6-2bcf-4e6d-b913-9125137da33a"},"effectiveDateTime":"2025-03-20T08:00:00.000+00:00","valueCodeableConcept":{"coding":[{"system":"http://snomed.info/sct","code":"139566261000119101","display":"Deep tissue pressure injury of left heel (disorder)","userSelected":true}]}},"request":{"method":"PUT","url":"Observation/96540cdd-398c-486a-aea7-92a2f2346166"}},{"fullUrl":"https://madie.cms.gov/MeasureReport/2d83b6a5-2839-43de-b3df-061d2101ce43","resource":{"resourceType":"MeasureReport","id":"2d83b6a5-2839-43de-b3df-061d2101ce43","meta":{"profile":["http://hl7.org/fhir/us/cqfmeasures/StructureDefinition/test-case-cqfm"]},"contained":[{"resourceType":"Parameters","id":"0eb9753e-0997-4b00-a724-b424c3303f01-parameters","parameter":[{"name":"subject","valueString":"73c1a7c6-2bcf-4e6d-b913-9125137da33a"}]}],"extension":[{"url":"http://hl7.org/fhir/us/cqfmeasures/StructureDefinition/cqfm-inputParameters","valueReference":{"reference":"#0eb9753e-0997-4b00-a724-b424c3303f01-parameters"}},{"url":"http://hl7.org/fhir/us/cqfmeasures/StructureDefinition/cqfm-testCaseDescription","valueMarkdown":"Inpatient encounter during MP.  Age is >=18. Has DTI by exam/observation more than 72 hours from start of hospitalization. Meets Numerator. "}],"modifierExtension":[{"url":"http://hl7.org/fhir/us/cqfmeasures/StructureDefinition/cqfm-isTestCase","valueBoolean":true}],"status":"complete","type":"individual","measure":"https://madie.cms.gov/Measure/HospitalHarmPressureInjuryFHIR","period":{"start":"2025-01-01","end":"2025-12-31"},"group":[{"population":[{"code":{"coding":[{"system":"http://terminology.hl7.org/CodeSystem/measure-population","code":"initial-population","display":"Initial Population"}]},"count":1},{"code":{"coding":[{"system":"http://terminology.hl7.org/CodeSystem/measure-population","code":"denominator","display":"Denominator"}]},"count":1},{"code":{"coding":[{"system":"http://terminology.hl7.org/CodeSystem/measure-population","code":"denominator-exclusion","display":"Denominator Exclusion"}]},"count":0},{"code":{"coding":[{"system":"http://terminology.hl7.org/CodeSystem/measure-population","code":"numerator","display":"Numerator"}]},"count":1}]}]},"request":{"method":"PUT","url":"MeasureReport/2d83b6a5-2839-43de-b3df-061d2101ce43"}}]}