{
  "resourceType": "Bundle",
  "id": "ippfail-scanoutsidemp",
  "type": "transaction",
  "entry": [ {
    "fullUrl": "https://madie.cms.gov/Patient/86e2af3b-8283-4ddc-8ee1-cc15e5aa0a95",
    "resource": {
      "resourceType": "Patient",
      "id": "86e2af3b-8283-4ddc-8ee1-cc15e5aa0a95",
      "meta": {
        "profile": [ "http://hl7.org/fhir/us/core/StructureDefinition/us-core-patient", "http://hl7.org/fhir/us/qicore/StructureDefinition/qicore-patient" ]
      },
      "extension": [ {
        "url": "http://hl7.org/fhir/us/core/StructureDefinition/us-core-race",
        "extension": [ {
          "url": "ombCategory",
          "valueCoding": {
            "system": "urn:oid:2.16.840.1.113883.6.238",
            "code": "2028-9",
            "display": "Asian"
          }
        }, {
          "url": "text",
          "valueString": "Asian"
        } ]
      }, {
        "url": "http://hl7.org/fhir/us/core/StructureDefinition/us-core-ethnicity",
        "extension": [ {
          "url": "ombCategory",
          "valueCoding": {
            "system": "urn:oid:2.16.840.1.113883.6.238",
            "code": "2135-2",
            "display": "Hispanic or Latino"
          }
        }, {
          "url": "text",
          "valueString": "Hispanic or Latino"
        } ]
      } ],
      "identifier": [ {
        "system": "http://hospital.smarthealthit.org",
        "value": "999999995"
      } ],
      "name": [ {
        "family": "ScanOutsideMP",
        "given": [ "IPPFail" ]
      } ],
      "gender": "male",
      "birthDate": "1978-06-12"
    },
    "request": {
      "method": "PUT",
      "url": "Patient/86e2af3b-8283-4ddc-8ee1-cc15e5aa0a95"
    }
  }, {
    "fullUrl": "https://madie.cms.gov/Encounter/7d4cfc5d-c469-41d7-9fea-5e024efd7d2f",
    "resource": {
      "resourceType": "Encounter",
      "id": "7d4cfc5d-c469-41d7-9fea-5e024efd7d2f",
      "meta": {
        "profile": [ "http://hl7.org/fhir/us/qicore/StructureDefinition/qicore-encounter" ]
      },
      "status": "finished",
      "class": {
        "system": "http://terminology.hl7.org/CodeSystem/v3-ActCode",
        "code": "IMP",
        "display": "inpatient encounter"
      },
      "type": [ {
        "coding": [ {
          "system": "http://snomed.info/sct",
          "code": "183452005",
          "display": "Emergency hospital admission"
        } ]
      } ],
      "subject": {
        "reference": "Patient/86e2af3b-8283-4ddc-8ee1-cc15e5aa0a95"
      },
      "period": {
        "start": "2025-12-30T00:00:00.000Z",
        "end": "2026-01-03T01:00:00.000Z"
      }
    },
    "request": {
      "method": "PUT",
      "url": "Encounter/7d4cfc5d-c469-41d7-9fea-5e024efd7d2f"
    }
  }, {
    "fullUrl": "https://madie.cms.gov/Observation/3b82a189-f8cb-4261-871d-e8829a4b8fa1",
    "resource": {
      "resourceType": "Observation",
      "id": "3b82a189-f8cb-4261-871d-e8829a4b8fa1",
      "meta": {
        "profile": [ "http://hl7.org/fhir/us/qicore/StructureDefinition/qicore-observation" ]
      },
      "status": "final",
      "category": [ {
        "coding": [ {
          "system": "http://terminology.hl7.org/CodeSystem/observation-category",
          "code": "imaging",
          "display": "Imaging"
        } ]
      } ],
      "code": {
        "coding": [ {
          "system": "http://loinc.org",
          "code": "96914-7",
          "display": "CT dose and image quality category"
        } ],
        "text": "CT dose and image quality category"
      },
      "subject": {
        "reference": "Patient/86e2af3b-8283-4ddc-8ee1-cc15e5aa0a95"
      },
      "encounter": {
        "reference": "Encounter/7d4cfc5d-c469-41d7-9fea-5e024efd7d2f"
      },
      "effectiveDateTime": "2026-01-02T00:00:00.000Z",
      "valueCodeableConcept": {
        "coding": [ {
          "system": "http://loinc.org",
          "code": "LA31753-9",
          "display": "Abdomen and Pelvis Routine Dose"
        } ]
      },
      "component": [ {
        "code": {
          "coding": [ {
            "system": "http://loinc.org",
            "code": "96912-1",
            "display": "Calculated CT global noise"
          } ]
        },
        "valueQuantity": {
          "value": 63,
          "unit": "[hnsf'U]",
          "system": "http://unitsofmeasure.org",
          "code": "[hnsf'U]"
        }
      }, {
        "code": {
          "coding": [ {
            "system": "http://loinc.org",
            "code": "96913-9",
            "display": "Calculated CT size-adjusted dose"
          } ]
        },
        "valueQuantity": {
          "value": 597,
          "unit": "mGy.cm",
          "system": "http://unitsofmeasure.org",
          "code": "mGy.cm"
        }
      } ]
    },
    "request": {
      "method": "PUT",
      "url": "Observation/3b82a189-f8cb-4261-871d-e8829a4b8fa1"
    }
  }, {
    "fullUrl": "https://madie.cms.gov/MeasureReport/9987e080-50a4-4295-bd0d-a5a63fa98931",
    "resource": {
      "resourceType": "MeasureReport",
      "id": "9987e080-50a4-4295-bd0d-a5a63fa98931",
      "meta": {
        "profile": [ "http://hl7.org/fhir/us/cqfmeasures/StructureDefinition/test-case-cqfm" ]
      },
      "contained": [ {
        "resourceType": "Parameters",
        "id": "f4715089-6eab-4580-91b9-890ad3980143-parameters",
        "parameter": [ {
          "name": "subject",
          "valueString": "86e2af3b-8283-4ddc-8ee1-cc15e5aa0a95"
        } ]
      } ],
      "extension": [ {
        "url": "http://hl7.org/fhir/us/cqfmeasures/StructureDefinition/cqfm-inputParameters",
        "valueReference": {
          "reference": "#f4715089-6eab-4580-91b9-890ad3980143-parameters"
        }
      }, {
        "url": "http://hl7.org/fhir/us/cqfmeasures/StructureDefinition/cqfm-testCaseDescription",
        "valueMarkdown": "Patient has encounter that started in MP but goes into next year and scan happens in next year so should not meet IPP"
      } ],
      "modifierExtension": [ {
        "url": "http://hl7.org/fhir/us/cqfmeasures/StructureDefinition/cqfm-isTestCase",
        "valueBoolean": true
      } ],
      "status": "complete",
      "type": "individual",
      "measure": "https://madie.cms.gov/Measure/AlaraCTIQRFHIR",
      "period": {
        "start": "2025-01-01",
        "end": "2025-12-31"
      },
      "group": [ {
        "population": [ {
          "code": {
            "coding": [ {
              "system": "http://terminology.hl7.org/CodeSystem/measure-population",
              "code": "initial-population",
              "display": "Initial Population"
            } ]
          },
          "count": 0
        }, {
          "code": {
            "coding": [ {
              "system": "http://terminology.hl7.org/CodeSystem/measure-population",
              "code": "denominator",
              "display": "Denominator"
            } ]
          },
          "count": 0
        }, {
          "code": {
            "coding": [ {
              "system": "http://terminology.hl7.org/CodeSystem/measure-population",
              "code": "denominator-exclusion",
              "display": "Denominator Exclusion"
            } ]
          },
          "count": 0
        }, {
          "code": {
            "coding": [ {
              "system": "http://terminology.hl7.org/CodeSystem/measure-population",
              "code": "numerator",
              "display": "Numerator"
            } ]
          },
          "count": 0
        } ]
      } ],
      "evaluatedResource": [ {
        "reference": "Patient/86e2af3b-8283-4ddc-8ee1-cc15e5aa0a95"
      }, {
        "reference": "Encounter/7d4cfc5d-c469-41d7-9fea-5e024efd7d2f"
      }, {
        "reference": "Observation/3b82a189-f8cb-4261-871d-e8829a4b8fa1"
      } ]
    },
    "request": {
      "method": "PUT",
      "url": "MeasureReport/9987e080-50a4-4295-bd0d-a5a63fa98931"
    }
  } ]
}