{
  "resourceType": "Bundle",
  "id": "ippfail-under18",
  "type": "transaction",
  "entry": [ {
    "fullUrl": "https://madie.cms.gov/Patient/0e715b86-ffed-43e0-8acd-5794f2285b3d",
    "resource": {
      "resourceType": "Patient",
      "id": "0e715b86-ffed-43e0-8acd-5794f2285b3d",
      "meta": {
        "profile": [ "http://hl7.org/fhir/us/core/StructureDefinition/us-core-patient", "http://hl7.org/fhir/us/qicore/StructureDefinition/qicore-patient" ]
      },
      "extension": [ {
        "url": "http://hl7.org/fhir/us/core/StructureDefinition/us-core-race",
        "extension": [ {
          "url": "ombCategory",
          "valueCoding": {
            "system": "urn:oid:2.16.840.1.113883.6.238",
            "code": "2028-9",
            "display": "Asian"
          }
        }, {
          "url": "text",
          "valueString": "Asian"
        } ]
      }, {
        "url": "http://hl7.org/fhir/us/core/StructureDefinition/us-core-ethnicity",
        "extension": [ {
          "url": "ombCategory",
          "valueCoding": {
            "system": "urn:oid:2.16.840.1.113883.6.238",
            "code": "2135-2",
            "display": "Hispanic or Latino"
          }
        }, {
          "url": "text",
          "valueString": "Hispanic or Latino"
        } ]
      } ],
      "identifier": [ {
        "system": "http://hospital.smarthealthit.org",
        "value": "999999995"
      } ],
      "name": [ {
        "family": "Under18",
        "given": [ "IPPFail" ]
      } ],
      "gender": "female",
      "birthDate": "2007-01-02"
    },
    "request": {
      "method": "PUT",
      "url": "Patient/0e715b86-ffed-43e0-8acd-5794f2285b3d"
    }
  }, {
    "fullUrl": "https://madie.cms.gov/Encounter/1d421f05-6d43-4e11-8b74-e51b29d5bba3",
    "resource": {
      "resourceType": "Encounter",
      "id": "1d421f05-6d43-4e11-8b74-e51b29d5bba3",
      "meta": {
        "profile": [ "http://hl7.org/fhir/us/qicore/StructureDefinition/qicore-encounter" ]
      },
      "status": "finished",
      "class": {
        "system": "http://terminology.hl7.org/CodeSystem/v3-ActCode",
        "code": "IMP",
        "display": "inpatient encounter"
      },
      "type": [ {
        "coding": [ {
          "system": "http://snomed.info/sct",
          "code": "183452005",
          "display": "Emergency hospital admission"
        } ]
      } ],
      "subject": {
        "reference": "Patient/0e715b86-ffed-43e0-8acd-5794f2285b3d"
      },
      "period": {
        "start": "2024-01-01T00:00:00.000Z",
        "end": "2024-01-03T01:00:00.000Z"
      }
    },
    "request": {
      "method": "PUT",
      "url": "Encounter/1d421f05-6d43-4e11-8b74-e51b29d5bba3"
    }
  }, {
    "fullUrl": "https://madie.cms.gov/Observation/d4fa84a8-f197-4124-8f07-e5e9b74dcaa7",
    "resource": {
      "resourceType": "Observation",
      "id": "d4fa84a8-f197-4124-8f07-e5e9b74dcaa7",
      "meta": {
        "profile": [ "http://hl7.org/fhir/us/qicore/StructureDefinition/qicore-observation" ]
      },
      "status": "final",
      "category": [ {
        "coding": [ {
          "system": "http://terminology.hl7.org/CodeSystem/observation-category",
          "code": "imaging",
          "display": "Imaging"
        } ]
      } ],
      "code": {
        "coding": [ {
          "system": "http://loinc.org",
          "code": "96914-7",
          "display": "CT dose and image quality category"
        } ],
        "text": "CT dose and image quality category"
      },
      "subject": {
        "reference": "Patient/0e715b86-ffed-43e0-8acd-5794f2285b3d"
      },
      "encounter": {
        "reference": "Encounter/1d421f05-6d43-4e11-8b74-e51b29d5bba3"
      },
      "effectiveDateTime": "2024-01-02T00:00:00.000Z",
      "valueCodeableConcept": {
        "coding": [ {
          "system": "http://loinc.org",
          "code": "LA31752-1",
          "display": "Abdomen and Pelvis Low Dose"
        } ]
      },
      "component": [ {
        "code": {
          "coding": [ {
            "system": "http://loinc.org",
            "code": "96912-1",
            "display": "Calculated CT global noise"
          } ]
        },
        "valueQuantity": {
          "value": 63,
          "unit": "[hnsf'U]",
          "system": "http://unitsofmeasure.org",
          "code": "[hnsf'U]"
        }
      }, {
        "code": {
          "coding": [ {
            "system": "http://loinc.org",
            "code": "96913-9",
            "display": "Calculated CT size-adjusted dose"
          } ]
        },
        "valueQuantity": {
          "value": 597,
          "unit": "mGy.cm",
          "system": "http://unitsofmeasure.org",
          "code": "mGy.cm"
        }
      } ]
    },
    "request": {
      "method": "PUT",
      "url": "Observation/d4fa84a8-f197-4124-8f07-e5e9b74dcaa7"
    }
  }, {
    "fullUrl": "https://madie.cms.gov/MeasureReport/8b264e74-c783-4b3d-bfb9-3e9fd7058012",
    "resource": {
      "resourceType": "MeasureReport",
      "id": "8b264e74-c783-4b3d-bfb9-3e9fd7058012",
      "meta": {
        "profile": [ "http://hl7.org/fhir/us/cqfmeasures/StructureDefinition/test-case-cqfm" ]
      },
      "contained": [ {
        "resourceType": "Parameters",
        "id": "1a465cf5-cf27-4d96-95b0-dbf22d0a7310-parameters",
        "parameter": [ {
          "name": "subject",
          "valueString": "0e715b86-ffed-43e0-8acd-5794f2285b3d"
        } ]
      } ],
      "extension": [ {
        "url": "http://hl7.org/fhir/us/cqfmeasures/StructureDefinition/cqfm-inputParameters",
        "valueReference": {
          "reference": "#1a465cf5-cf27-4d96-95b0-dbf22d0a7310-parameters"
        }
      }, {
        "url": "http://hl7.org/fhir/us/cqfmeasures/StructureDefinition/cqfm-testCaseDescription",
        "valueMarkdown": "Patient is under 18 and fails to meet IPP"
      } ],
      "modifierExtension": [ {
        "url": "http://hl7.org/fhir/us/cqfmeasures/StructureDefinition/cqfm-isTestCase",
        "valueBoolean": true
      } ],
      "status": "complete",
      "type": "individual",
      "measure": "https://madie.cms.gov/Measure/AlaraCTIQRFHIR",
      "period": {
        "start": "2025-01-01",
        "end": "2025-12-31"
      },
      "group": [ {
        "population": [ {
          "code": {
            "coding": [ {
              "system": "http://terminology.hl7.org/CodeSystem/measure-population",
              "code": "initial-population",
              "display": "Initial Population"
            } ]
          },
          "count": 0
        }, {
          "code": {
            "coding": [ {
              "system": "http://terminology.hl7.org/CodeSystem/measure-population",
              "code": "denominator",
              "display": "Denominator"
            } ]
          },
          "count": 0
        }, {
          "code": {
            "coding": [ {
              "system": "http://terminology.hl7.org/CodeSystem/measure-population",
              "code": "denominator-exclusion",
              "display": "Denominator Exclusion"
            } ]
          },
          "count": 0
        }, {
          "code": {
            "coding": [ {
              "system": "http://terminology.hl7.org/CodeSystem/measure-population",
              "code": "numerator",
              "display": "Numerator"
            } ]
          },
          "count": 0
        } ]
      } ],
      "evaluatedResource": [ {
        "reference": "Patient/0e715b86-ffed-43e0-8acd-5794f2285b3d"
      }, {
        "reference": "Encounter/1d421f05-6d43-4e11-8b74-e51b29d5bba3"
      }, {
        "reference": "Observation/d4fa84a8-f197-4124-8f07-e5e9b74dcaa7"
      } ]
    },
    "request": {
      "method": "PUT",
      "url": "MeasureReport/8b264e74-c783-4b3d-bfb9-3e9fd7058012"
    }
  } ]
}