{
  "resourceType": "Bundle",
  "id": "NotscreRefAsseNotmNodxNocp",
  "type": "transaction",
  "entry": [ {
    "fullUrl": "https://madie.cms.gov/Patient/0c3b72aa-9a9b-468d-b2fb-95153a9136bc",
    "resource": {
      "resourceType": "Patient",
      "id": "0c3b72aa-9a9b-468d-b2fb-95153a9136bc",
      "meta": {
        "profile": [ "http://hl7.org/fhir/us/qicore/StructureDefinition/qicore-patient" ]
      },
      "text": {
        "status": "generated",
        "div": "<div xmlns=\"http://www.w3.org/1999/xhtml\"><div class=\"hapiHeaderText\">NotscreRefAsseNotmNodxNocp, Screened Not at risk Assessed Severely Malnourished Diagnosed Care Plan, <b>mo1111d4p100 </b></div><table class=\"hapiPropertyTable\"><tbody><tr><td>Identifier</td><td>NotscreRefAsseNotmNodxNocp</td></tr><tr><td>Date of birth</td><td><span>14 May 1950</span></td></tr></tbody></table></div>"
      },
      "extension": [ {
        "url": "http://hl7.org/fhir/us/core/StructureDefinition/us-core-race",
        "extension": [ {
          "url": "ombCategory",
          "valueCoding": {
            "system": "urn:oid:2.16.840.1.113883.6.238",
            "code": "2106-3",
            "display": "White",
            "userSelected": true
          }
        }, {
          "url": "text",
          "valueString": "White"
        } ]
      }, {
        "url": "http://hl7.org/fhir/us/core/StructureDefinition/us-core-ethnicity",
        "extension": [ {
          "url": "ombCategory",
          "valueCoding": {
            "system": "urn:oid:2.16.840.1.113883.6.238",
            "code": "2186-5",
            "display": "Not Hispanic or Latino",
            "userSelected": true
          }
        }, {
          "url": "text",
          "valueString": "Not Hispanic or Latino"
        } ]
      } ],
      "identifier": [ {
        "type": {
          "coding": [ {
            "system": "http://terminology.hl7.org/CodeSystem/v2-0203",
            "code": "MR"
          } ]
        },
        "system": "https://madie.cms.gov/",
        "value": "NotscreRefAsseNotmNodxNocp"
      } ],
      "active": true,
      "name": [ {
        "use": "usual",
        "text": "NotscreRefAsseNotmNodxNocp",
        "family": "denompass2",
        "given": [ "NotscreRefAsseNotmNodxNocpdenompass2" ]
      } ],
      "gender": "male",
      "birthDate": "1950-10-11",
      "address": [ {
        "text": "NotscreRefAsseNotmNodxNocp, Screened Not at risk Assessed Severely Malnourished Diagnosed Care Plan, ID=NotscreRefAsseNotmNodxNocp, DOB: 14 May 1950"
      } ]
    },
    "request": {
      "method": "POST",
      "url": "Patient/0c3b72aa-9a9b-468d-b2fb-95153a9136bc"
    }
  }, {
    "fullUrl": "https://madie.cms.gov/Encounter/NotscreRefAsseNotmNodxNocp-01",
    "resource": {
      "resourceType": "Encounter",
      "id": "NotscreRefAsseNotmNodxNocp-01",
      "meta": {
        "profile": [ "http://hl7.org/fhir/us/qicore/StructureDefinition/qicore-encounter" ]
      },
      "status": "finished",
      "class": {
        "system": "http://terminology.hl7.org/CodeSystem/v3-ActCode",
        "code": "IMP",
        "display": "inpatient encounter"
      },
      "type": [ {
        "coding": [ {
          "system": "http://snomed.info/sct",
          "code": "183452005"
        } ]
      } ],
      "subject": {
        "reference": "Patient/0c3b72aa-9a9b-468d-b2fb-95153a9136bc"
      },
      "period": {
        "start": "2026-02-01T08:00:00.000Z",
        "end": "2026-02-07T08:15:00.000Z"
      }
    },
    "request": {
      "method": "POST",
      "url": "Encounter/NotscreRefAsseNotmNodxNocp-01"
    }
  }, {
    "fullUrl": "https://madie.cms.gov/Observation/NotscreRefAsseNotmNodxNocp-19",
    "resource": {
      "resourceType": "Observation",
      "id": "NotscreRefAsseNotmNodxNocp-19",
      "meta": {
        "profile": [ "http://hl7.org/fhir/us/qicore/StructureDefinition/qicore-observation" ]
      },
      "status": "final",
      "category": [ {
        "coding": [ {
          "system": "http://terminology.hl7.org/CodeSystem/observation-category",
          "code": "survey",
          "display": "Survey"
        } ]
      } ],
      "code": {
        "coding": [ {
          "system": "http://loinc.org",
          "code": "75303-8",
          "display": "Nutrition assessment narrative",
          "userSelected": true
        } ]
      },
      "subject": {
        "reference": "Patient/0c3b72aa-9a9b-468d-b2fb-95153a9136bc"
      },
      "effectiveDateTime": "2026-02-01T10:00:00.000+00:00",
      "valueCodeableConcept": {
        "coding": [ {
          "system": "http://snomed.info/sct",
          "code": "248324001",
          "display": "Well nourished (finding)",
          "userSelected": true
        } ]
      }
    },
    "request": {
      "method": "POST",
      "url": "Observation/NotscreRefAsseNotmNodxNocp-19"
    }
  }, {
    "fullUrl": "https://madie.cms.gov/Procedure/NotscreRefAsseNotmNodxNocp-12",
    "resource": {
      "resourceType": "Procedure",
      "id": "NotscreRefAsseNotmNodxNocp-12",
      "meta": {
        "profile": [ "http://hl7.org/fhir/us/qicore/StructureDefinition/qicore-procedure" ]
      },
      "extension": [ {
        "url": "http://hl7.org/fhir/us/qicore/StructureDefinition/qicore-recorded",
        "valueDateTime": "2026-02-01T11:30:00.000Z"
      } ],
      "status": "completed",
      "code": {
        "coding": [ {
          "system": "http://snomed.info/sct",
          "code": "306165000",
          "display": "Referral to hospital-based dietetics service (procedure)"
        } ],
        "text": "Referral to hospital-based dietetics service (procedure)"
      },
      "subject": {
        "reference": "Patient/0c3b72aa-9a9b-468d-b2fb-95153a9136bc"
      },
      "encounter": {
        "reference": "Encounter/NotscreRefAsseNotmNodxNocpdenompass2"
      },
      "performedPeriod": {
        "start": "2026-02-01T11:30:00.000Z",
        "end": "2026-02-07T08:15:00.000Z"
      }
    },
    "request": {
      "method": "POST",
      "url": "Procedure/NotscreRefAsseNotmNodxNocp-12"
    }
  }, {
    "fullUrl": "https://madie.cms.gov/Coverage/NotscreRefAsseNotmNodxNocp-61",
    "resource": {
      "resourceType": "Coverage",
      "id": "NotscreRefAsseNotmNodxNocp-61",
      "meta": {
        "profile": [ "http://hl7.org/fhir/us/qicore/StructureDefinition/qicore-coverage" ]
      },
      "status": "active",
      "type": {
        "coding": [ {
          "system": "https://nahdo.org/sopt",
          "version": "9.2",
          "code": "11",
          "display": "Medicare Managed Care (Includes Medicare Advantage Plans)"
        } ]
      },
      "beneficiary": {
        "reference": "Patient/0c3b72aa-9a9b-468d-b2fb-95153a9136bc"
      },
      "period": {
        "start": "2026-10-01T00:00:00+00:00"
      },
      "payor": [ {
        "reference": "Organization/NotscreRefAsseNotmNodxNocp-98"
      } ]
    },
    "request": {
      "method": "POST",
      "url": "Coverage/NotscreRefAsseNotmNodxNocp-61"
    }
  }, {
    "fullUrl": "https://madie.cms.gov/Organization/NotscreRefAsseNotmNodxNocp-98",
    "resource": {
      "resourceType": "Organization",
      "id": "NotscreRefAsseNotmNodxNocp-98",
      "meta": {
        "profile": [ "http://hl7.org/fhir/us/qicore/StructureDefinition/qicore-organization" ]
      },
      "identifier": [ {
        "use": "temp",
        "system": "urn:oid:2.16.840.1.113883.4.4",
        "value": "21-3259825"
      } ],
      "active": true,
      "type": [ {
        "coding": [ {
          "system": "http://terminology.hl7.org/CodeSystem/organization-type",
          "code": "pay",
          "display": "Payer"
        } ]
      } ],
      "name": "Blue Cross Blue Shield of Texas",
      "telecom": [ {
        "system": "phone",
        "value": "(+1) 972-766-6900"
      } ],
      "address": [ {
        "use": "billing",
        "type": "postal",
        "line": [ "P.O. Box 660044" ],
        "city": "Dallas",
        "state": "TX",
        "postalCode": "75266-0044",
        "country": "USA"
      } ]
    },
    "request": {
      "method": "POST",
      "url": "Organization/NotscreRefAsseNotmNodxNocp-98"
    }
  }, {
    "fullUrl": "https://madie.cms.gov/MeasureReport/0b5652a0-8941-4b51-bada-c96c13057563",
    "resource": {
      "resourceType": "MeasureReport",
      "id": "0b5652a0-8941-4b51-bada-c96c13057563",
      "meta": {
        "profile": [ "http://hl7.org/fhir/us/cqfmeasures/StructureDefinition/test-case-cqfm" ]
      },
      "contained": [ {
        "resourceType": "Parameters",
        "id": "a3cc1112-120f-4732-bd3a-4dc9859c74b0-parameters",
        "parameter": [ {
          "name": "subject",
          "valueString": "0c3b72aa-9a9b-468d-b2fb-95153a9136bc"
        } ]
      } ],
      "extension": [ {
        "url": "http://hl7.org/fhir/us/cqfmeasures/StructureDefinition/cqfm-inputParameters",
        "valueReference": {
          "reference": "#a3cc1112-120f-4732-bd3a-4dc9859c74b0-parameters"
        }
      }, {
        "url": "http://hl7.org/fhir/us/cqfmeasures/StructureDefinition/cqfm-testCaseDescription",
        "valueMarkdown": "Not Screened, Referral, Assessed, Not/Mildly Malnourished, No Diagnosis, No Nutrition Care Plan"
      } ],
      "modifierExtension": [ {
        "url": "http://hl7.org/fhir/us/cqfmeasures/StructureDefinition/cqfm-isTestCase",
        "valueBoolean": true
      } ],
      "status": "complete",
      "type": "individual",
      "measure": "https://madie.cms.gov/Measure/GlobalMalnutritionCompositeFHIR",
      "period": {
        "start": "2026-01-01",
        "end": "2026-12-31"
      },
      "group": [ {
        "population": [ {
          "code": {
            "coding": [ {
              "system": "http://terminology.hl7.org/CodeSystem/measure-population",
              "code": "initial-population",
              "display": "Initial Population"
            } ]
          },
          "count": 1
        }, {
          "code": {
            "coding": [ {
              "system": "http://terminology.hl7.org/CodeSystem/measure-population",
              "code": "measure-population",
              "display": "Measure Population"
            } ]
          },
          "count": 1
        }, {
          "code": {
            "coding": [ {
              "system": "http://terminology.hl7.org/CodeSystem/measure-population",
              "code": "measure-population-observation",
              "display": "Measure Population Observation"
            } ]
          },
          "count": 1
        } ]
      }, {
        "population": [ {
          "code": {
            "coding": [ {
              "system": "http://terminology.hl7.org/CodeSystem/measure-population",
              "code": "initial-population",
              "display": "Initial Population"
            } ]
          },
          "count": 1
        }, {
          "code": {
            "coding": [ {
              "system": "http://terminology.hl7.org/CodeSystem/measure-population",
              "code": "measure-population",
              "display": "Measure Population"
            } ]
          },
          "count": 1
        }, {
          "code": {
            "coding": [ {
              "system": "http://terminology.hl7.org/CodeSystem/measure-population",
              "code": "measure-population-observation",
              "display": "Measure Population Observation"
            } ]
          },
          "count": 1
        } ]
      }, {
        "population": [ {
          "code": {
            "coding": [ {
              "system": "http://terminology.hl7.org/CodeSystem/measure-population",
              "code": "initial-population",
              "display": "Initial Population"
            } ]
          },
          "count": 1
        }, {
          "code": {
            "coding": [ {
              "system": "http://terminology.hl7.org/CodeSystem/measure-population",
              "code": "measure-population",
              "display": "Measure Population"
            } ]
          },
          "count": 1
        }, {
          "code": {
            "coding": [ {
              "system": "http://terminology.hl7.org/CodeSystem/measure-population",
              "code": "measure-population-observation",
              "display": "Measure Population Observation"
            } ]
          },
          "count": 0
        } ]
      }, {
        "population": [ {
          "code": {
            "coding": [ {
              "system": "http://terminology.hl7.org/CodeSystem/measure-population",
              "code": "initial-population",
              "display": "Initial Population"
            } ]
          },
          "count": 1
        }, {
          "code": {
            "coding": [ {
              "system": "http://terminology.hl7.org/CodeSystem/measure-population",
              "code": "measure-population",
              "display": "Measure Population"
            } ]
          },
          "count": 1
        }, {
          "code": {
            "coding": [ {
              "system": "http://terminology.hl7.org/CodeSystem/measure-population",
              "code": "measure-population-observation",
              "display": "Measure Population Observation"
            } ]
          },
          "count": 0
        } ]
      }, {
        "population": [ {
          "code": {
            "coding": [ {
              "system": "http://terminology.hl7.org/CodeSystem/measure-population",
              "code": "initial-population",
              "display": "Initial Population"
            } ]
          },
          "count": 1
        }, {
          "code": {
            "coding": [ {
              "system": "http://terminology.hl7.org/CodeSystem/measure-population",
              "code": "measure-population",
              "display": "Measure Population"
            } ]
          },
          "count": 1
        }, {
          "code": {
            "coding": [ {
              "system": "http://terminology.hl7.org/CodeSystem/measure-population",
              "code": "measure-population-observation",
              "display": "Measure Population Observation"
            } ]
          },
          "count": 2
        } ]
      }, {
        "population": [ {
          "code": {
            "coding": [ {
              "system": "http://terminology.hl7.org/CodeSystem/measure-population",
              "code": "initial-population",
              "display": "Initial Population"
            } ]
          },
          "count": 1
        }, {
          "code": {
            "coding": [ {
              "system": "http://terminology.hl7.org/CodeSystem/measure-population",
              "code": "measure-population",
              "display": "Measure Population"
            } ]
          },
          "count": 1
        }, {
          "code": {
            "coding": [ {
              "system": "http://terminology.hl7.org/CodeSystem/measure-population",
              "code": "measure-population-observation",
              "display": "Measure Population Observation"
            } ]
          },
          "count": 100
        } ]
      } ],
      "evaluatedResource": [ {
        "reference": "https://madie.cms.gov/Patient/0c3b72aa-9a9b-468d-b2fb-95153a9136bc"
      }, {
        "reference": "https://madie.cms.gov/Encounter/NotscreRefAsseNotmNodxNocp-01"
      }, {
        "reference": "https://madie.cms.gov/Observation/NotscreRefAsseNotmNodxNocp-19"
      }, {
        "reference": "https://madie.cms.gov/Procedure/NotscreRefAsseNotmNodxNocp-12"
      }, {
        "reference": "https://madie.cms.gov/Coverage/NotscreRefAsseNotmNodxNocp-61"
      }, {
        "reference": "https://madie.cms.gov/Organization/NotscreRefAsseNotmNodxNocp-98"
      } ]
    },
    "request": {
      "method": "POST",
      "url": "MeasureReport/0b5652a0-8941-4b51-bada-c96c13057563"
    }
  } ]
}