{
  "resourceType": "Bundle",
  "id": "62fa556bf4a8c3cd9f455396",
  "type": "transaction",
  "entry": [ {
    "fullUrl": "https://madie.cms.gov/Patient/f8c48a84-406c-44b7-b79e-b7a5f9d15b31",
    "resource": {
      "resourceType": "Patient",
      "id": "f8c48a84-406c-44b7-b79e-b7a5f9d15b31",
      "meta": {
        "profile": [ "http://hl7.org/fhir/us/qicore/StructureDefinition/qicore-patient" ]
      },
      "extension": [ {
        "url": "http://hl7.org/fhir/us/core/StructureDefinition/us-core-race",
        "extension": [ {
          "url": "ombCategory",
          "valueCoding": {
            "system": "urn:oid:2.16.840.1.113883.6.238",
            "code": "2028-9",
            "display": "Asian",
            "userSelected": true
          }
        }, {
          "url": "text",
          "valueString": "Asian"
        } ]
      }, {
        "url": "http://hl7.org/fhir/us/core/StructureDefinition/us-core-ethnicity",
        "extension": [ {
          "url": "ombCategory",
          "valueCoding": {
            "system": "urn:oid:2.16.840.1.113883.6.238",
            "code": "2186-5",
            "display": "Not Hispanic or Latino",
            "userSelected": true
          }
        }, {
          "url": "text",
          "valueString": "Not Hispanic or Latino"
        } ]
      } ],
      "identifier": [ {
        "type": {
          "coding": [ {
            "system": "http://terminology.hl7.org/CodeSystem/v2-0203",
            "code": "MR"
          } ]
        },
        "system": "https://bonnie-fhir.healthit.gov/",
        "value": "62fa556bf4a8c3cd9f455396"
      } ],
      "name": [ {
        "family": "NUMERFail",
        "given": [ "SingleUACRLab" ]
      } ],
      "gender": "female",
      "birthDate": "1973-05-02"
    },
    "request": {
      "method": "POST",
      "url": "Patient/f8c48a84-406c-44b7-b79e-b7a5f9d15b31"
    }
  }, {
    "fullUrl": "https://madie.cms.gov/Condition/diabetes-e2ba",
    "resource": {
      "resourceType": "Condition",
      "id": "diabetes-e2ba",
      "meta": {
        "profile": [ "http://hl7.org/fhir/us/qicore/StructureDefinition/qicore-condition" ]
      },
      "clinicalStatus": {
        "coding": [ {
          "system": "http://terminology.hl7.org/CodeSystem/condition-clinical",
          "code": "active",
          "display": "active",
          "userSelected": true
        } ]
      },
      "category": [ {
        "coding": [ {
          "system": "http://terminology.hl7.org/CodeSystem/condition-category",
          "code": "encounter-diagnosis",
          "display": "Encounter Diagnosis",
          "userSelected": true
        } ]
      } ],
      "code": {
        "coding": [ {
          "system": "http://snomed.info/sct",
          "version": "2021-09",
          "code": "102781000119107",
          "display": "Sensory neuropathy due to type 1 diabetes mellitus (disorder)",
          "userSelected": true
        } ]
      },
      "subject": {
        "reference": "Patient/f8c48a84-406c-44b7-b79e-b7a5f9d15b31"
      },
      "onsetDateTime": "2025-08-15T08:00:00.000+00:00"
    },
    "request": {
      "method": "POST",
      "url": "Condition/diabetes-e2ba"
    }
  }, {
    "fullUrl": "https://madie.cms.gov/Observation/urine-albumin-creatinine-ratio-5398",
    "resource": {
      "resourceType": "Observation",
      "id": "urine-albumin-creatinine-ratio-5398",
      "meta": {
        "profile": [ "http://hl7.org/fhir/us/qicore/StructureDefinition/qicore-observation" ]
      },
      "status": "final",
      "category": [ {
        "coding": [ {
          "system": "http://terminology.hl7.org/CodeSystem/observation-category",
          "code": "laboratory",
          "display": "Laboratory",
          "userSelected": true
        } ]
      } ],
      "code": {
        "coding": [ {
          "system": "http://loinc.org",
          "version": "2.71",
          "code": "13705-9",
          "display": "Albumin/Creatinine [Mass Ratio] in 24 hour Urine",
          "userSelected": true
        } ]
      },
      "subject": {
        "reference": "Patient/f8c48a84-406c-44b7-b79e-b7a5f9d15b31"
      },
      "effectiveDateTime": "2025-08-15T08:00:00.000+00:00",
      "valueBoolean": true
    },
    "request": {
      "method": "POST",
      "url": "Observation/urine-albumin-creatinine-ratio-5398"
    }
  }, {
    "fullUrl": "https://madie.cms.gov/Encounter/annual-wellness-visit-b907",
    "resource": {
      "resourceType": "Encounter",
      "id": "annual-wellness-visit-b907",
      "meta": {
        "profile": [ "http://hl7.org/fhir/us/qicore/StructureDefinition/qicore-encounter" ]
      },
      "status": "finished",
      "class": {
        "system": "http://terminology.hl7.org/CodeSystem/v3-ActCode",
        "code": "AMB",
        "display": "ambulatory",
        "userSelected": true
      },
      "type": [ {
        "coding": [ {
          "system": "http://snomed.info/sct",
          "version": "2021-09",
          "code": "444971000124105",
          "display": "Annual wellness visit (procedure)",
          "userSelected": true
        } ]
      } ],
      "subject": {
        "reference": "Patient/f8c48a84-406c-44b7-b79e-b7a5f9d15b31"
      },
      "period": {
        "start": "2025-03-16T08:00:00.000+00:00",
        "end": "2025-03-16T08:15:00.000+00:00"
      }
    },
    "request": {
      "method": "POST",
      "url": "Encounter/annual-wellness-visit-b907"
    }
  }, {
    "fullUrl": "https://madie.cms.gov/MeasureReport/4283ff7c-2a47-461e-92d3-9b8ad417a03b",
    "resource": {
      "resourceType": "MeasureReport",
      "id": "4283ff7c-2a47-461e-92d3-9b8ad417a03b",
      "meta": {
        "profile": [ "http://hl7.org/fhir/us/cqfmeasures/StructureDefinition/test-case-cqfm" ]
      },
      "contained": [ {
        "resourceType": "Parameters",
        "id": "c6a09b8b-83b3-47a7-a68b-e047bbd68046-parameters",
        "parameter": [ {
          "name": "subject",
          "valueString": "f8c48a84-406c-44b7-b79e-b7a5f9d15b31"
        } ]
      } ],
      "extension": [ {
        "url": "http://hl7.org/fhir/us/cqfmeasures/StructureDefinition/cqfm-inputParameters",
        "valueReference": {
          "reference": "#c6a09b8b-83b3-47a7-a68b-e047bbd68046-parameters"
        }
      }, {
        "url": "http://hl7.org/fhir/us/cqfmeasures/StructureDefinition/cqfm-testCaseDescription",
        "valueMarkdown": "This patient is 50 years old with a qualifying encounter and active diabetes. The patient only has a single urine albumin creatine ratio lab. This case tests the numerator criteria. "
      } ],
      "modifierExtension": [ {
        "url": "http://hl7.org/fhir/us/cqfmeasures/StructureDefinition/cqfm-isTestCase",
        "valueBoolean": true
      } ],
      "status": "complete",
      "type": "individual",
      "measure": "https://madie.cms.gov/Measure/KidneyHealthEvaluationFHIR",
      "period": {
        "start": "2025-01-01",
        "end": "2025-12-31"
      },
      "group": [ {
        "population": [ {
          "code": {
            "coding": [ {
              "system": "http://terminology.hl7.org/CodeSystem/measure-population",
              "code": "initial-population",
              "display": "Initial Population"
            } ]
          },
          "count": 1
        }, {
          "code": {
            "coding": [ {
              "system": "http://terminology.hl7.org/CodeSystem/measure-population",
              "code": "denominator",
              "display": "Denominator"
            } ]
          },
          "count": 1
        }, {
          "code": {
            "coding": [ {
              "system": "http://terminology.hl7.org/CodeSystem/measure-population",
              "code": "denominator-exclusion",
              "display": "Denominator Exclusion"
            } ]
          },
          "count": 0
        }, {
          "code": {
            "coding": [ {
              "system": "http://terminology.hl7.org/CodeSystem/measure-population",
              "code": "numerator",
              "display": "Numerator"
            } ]
          },
          "count": 0
        } ]
      } ],
      "evaluatedResource": [ {
        "reference": "Patient/f8c48a84-406c-44b7-b79e-b7a5f9d15b31"
      }, {
        "reference": "Condition/diabetes-e2ba"
      }, {
        "reference": "Observation/urine-albumin-creatinine-ratio-5398"
      }, {
        "reference": "Encounter/annual-wellness-visit-b907"
      } ]
    },
    "request": {
      "method": "POST",
      "url": "MeasureReport/4283ff7c-2a47-461e-92d3-9b8ad417a03b"
    }
  } ]
}