{"resourceType":"Bundle","id":"tests-b92d0b5a-a019-4023-9e0b-50a0e5248d07-bundle","type":"transaction","entry":[{"fullUrl":"https://madie.cms.gov/Patient/b92d0b5a-a019-4023-9e0b-50a0e5248d07","resource":{"resourceType":"Patient","id":"b92d0b5a-a019-4023-9e0b-50a0e5248d07","meta":{"profile":["http://hl7.org/fhir/us/qicore/StructureDefinition/qicore-patient"]},"extension":[{"url":"http://hl7.org/fhir/us/core/StructureDefinition/us-core-race","extension":[{"url":"ombCategory","valueCoding":{"system":"urn:oid:2.16.840.1.113883.6.238","code":"1002-5","display":"American Indian or Alaska Native","userSelected":true}},{"url":"text","valueString":"American Indian or Alaska Native"}]},{"url":"http://hl7.org/fhir/us/core/StructureDefinition/us-core-ethnicity","extension":[{"url":"ombCategory","valueCoding":{"system":"urn:oid:2.16.840.1.113883.6.238","code":"2135-2","display":"Hispanic or Latino","userSelected":true}},{"url":"text","valueString":"Hispanic or Latino"}]}],"identifier":[{"type":{"coding":[{"system":"http://terminology.hl7.org/CodeSystem/v2-0203","code":"MR"}]},"system":"https://bonnie-fhir.healthit.gov/","value":"63232f15414ba67d4e1d1c29"}],"name":[{"family":"DENEXPass","given":["ProcedurePalliativeCare"]}],"gender":"male","birthDate":"2005-12-31"},"request":{"method":"PUT","url":"Patient/b92d0b5a-a019-4023-9e0b-50a0e5248d07"}},{"fullUrl":"https://madie.cms.gov/Encounter/encounter-inpatient-1c2a","resource":{"resourceType":"Encounter","id":"57fba41c-56c8-41d9-978a-5a045d6dfdb8","meta":{"profile":["http://hl7.org/fhir/us/qicore/StructureDefinition/qicore-encounter"]},"status":"finished","class":{"system":"http://terminology.hl7.org/CodeSystem/v3-ActCode","code":"IMP","display":"inpatient"},"type":[{"coding":[{"system":"http://snomed.info/sct","version":"2022-03","code":"183452005","display":"Emergency hospital admission (procedure)","userSelected":true}]}],"subject":{"reference":"Patient/b92d0b5a-a019-4023-9e0b-50a0e5248d07"},"period":{"start":"2025-01-01T00:00:00.000+00:00","end":"2025-01-03T00:35:00.000+00:00"}},"request":{"method":"PUT","url":"Encounter/57fba41c-56c8-41d9-978a-5a045d6dfdb8"}},{"fullUrl":"https://madie.cms.gov/MedicationRequest/schedule-iv-benzodiazepines-medications-1c2b","resource":{"resourceType":"MedicationRequest","id":"b38ef46a-97e1-439f-b961-8c694616b4a0","meta":{"profile":["http://hl7.org/fhir/us/qicore/StructureDefinition/qicore-medicationrequest"]},"status":"active","intent":"order","category":[{"coding":[{"system":"http://terminology.hl7.org/CodeSystem/medicationrequest-category","code":"discharge","display":"Discharge","userSelected":true}]}],"doNotPerform":false,"medicationCodeableConcept":{"coding":[{"system":"http://www.nlm.nih.gov/research/umls/rxnorm","code":"1298088","display":"flurazepam hydrochloride 15 MG Oral Capsule","userSelected":true}]},"subject":{"reference":"Patient/b92d0b5a-a019-4023-9e0b-50a0e5248d07"},"authoredOn":"2025-01-03T00:05:00.000+00:00","requester":{"reference":"Practitioner/example","display":"Patrick Pump"}},"request":{"method":"PUT","url":"MedicationRequest/b38ef46a-97e1-439f-b961-8c694616b4a0"}},{"fullUrl":"https://madie.cms.gov/Procedure/palliative-or-hospice-care-1c2c","resource":{"resourceType":"Procedure","id":"0f8bcf55-eecc-4b13-8e1e-0251f05214b0","meta":{"profile":["http://hl7.org/fhir/us/qicore/StructureDefinition/qicore-procedure"]},"extension":[{"url":"http://hl7.org/fhir/us/qicore/StructureDefinition/qicore-recorded","valueDateTime":"2025-01-03T00:10:00.000+00:00"}],"status":"completed","code":{"coding":[{"system":"http://snomed.info/sct","version":"2022-03","code":"103735009","display":"Palliative care (regime/therapy)","userSelected":true}]},"subject":{"reference":"Patient/b92d0b5a-a019-4023-9e0b-50a0e5248d07"},"performedDateTime":"2025-01-01T00:10:00.000+00:00"},"request":{"method":"PUT","url":"Procedure/0f8bcf55-eecc-4b13-8e1e-0251f05214b0"}},{"fullUrl":"https://madie.cms.gov/Coverage/1","resource":{"resourceType":"Coverage","id":"f220d43c-46d4-41c3-9ccc-1b5bfdc40328","meta":{"profile":["http://hl7.org/fhir/us/qicore/StructureDefinition/qicore-coverage"]},"status":"active","beneficiary":{"reference":"Patient/b92d0b5a-a019-4023-9e0b-50a0e5248d07"},"payor":[{"reference":"Organization/4b5a882f-1f43-485c-85c6-f5ad2337d5b1"}]},"request":{"method":"PUT","url":"Coverage/f220d43c-46d4-41c3-9ccc-1b5bfdc40328"}},{"fullUrl":"https://madie.cms.gov/Organization/123456","resource":{"resourceType":"Organization","id":"4b5a882f-1f43-485c-85c6-f5ad2337d5b1","meta":{"profile":["http://hl7.org/fhir/us/qicore/StructureDefinition/qicore-organization"]},"identifier":[{"use":"temp","system":"urn:oid:2.16.840.1.113883.4.4","value":"21-3259825"}],"active":true,"type":[{"coding":[{"system":"http://terminology.hl7.org/CodeSystem/organization-type","code":"pay","display":"Payer"}]}],"name":"Blue Cross Blue Shield of Texas","telecom":[{"system":"phone","value":"(+1) 972-766-6900"}],"address":[{"use":"billing","type":"postal","line":["P.O. Box 660044"],"city":"Dallas","state":"TX","postalCode":"75266-0044","country":"USA"}]},"request":{"method":"PUT","url":"Organization/4b5a882f-1f43-485c-85c6-f5ad2337d5b1"}},{"fullUrl":"https://madie.cms.gov/MeasureReport/9d008046-d931-4d98-b007-8f3b4ec3bb93","resource":{"resourceType":"MeasureReport","id":"9d008046-d931-4d98-b007-8f3b4ec3bb93","meta":{"profile":["http://hl7.org/fhir/us/cqfmeasures/StructureDefinition/test-case-cqfm"]},"contained":[{"resourceType":"Parameters","id":"62acddea-b61f-490c-8290-2579ebb8a282-parameters","parameter":[{"name":"subject","valueString":"b92d0b5a-a019-4023-9e0b-50a0e5248d07"}]}],"extension":[{"url":"http://hl7.org/fhir/us/cqfmeasures/StructureDefinition/cqfm-inputParameters","valueReference":{"reference":"#62acddea-b61f-490c-8290-2579ebb8a282-parameters"}},{"url":"http://hl7.org/fhir/us/cqfmeasures/StructureDefinition/cqfm-testCaseDescription","valueMarkdown":"Encounter 1/1 - 1/3 , age 18 one day before encounter, Procedure Palliative care performed 1/1 during enc"}],"modifierExtension":[{"url":"http://hl7.org/fhir/us/cqfmeasures/StructureDefinition/cqfm-isTestCase","valueBoolean":true}],"status":"complete","type":"individual","measure":"https://madie.cms.gov/Measure/SafeUseofOpioidsConcurrentPrescribingFHIR","period":{"start":"2025-01-01","end":"2025-12-31"},"group":[{"population":[{"code":{"coding":[{"system":"http://terminology.hl7.org/CodeSystem/measure-population","code":"initial-population","display":"Initial Population"}]},"count":1},{"code":{"coding":[{"system":"http://terminology.hl7.org/CodeSystem/measure-population","code":"denominator","display":"Denominator"}]},"count":1},{"code":{"coding":[{"system":"http://terminology.hl7.org/CodeSystem/measure-population","code":"denominator-exclusion","display":"Denominator Exclusion"}]},"count":1},{"code":{"coding":[{"system":"http://terminology.hl7.org/CodeSystem/measure-population","code":"numerator","display":"Numerator"}]},"count":0}]}]},"request":{"method":"PUT","url":"MeasureReport/9d008046-d931-4d98-b007-8f3b4ec3bb93"}}]}