{"resourceType":"Bundle","id":"tests-e93adc7d-9d31-4279-9f76-644668f4d3c9-bundle","type":"transaction","entry":[{"fullUrl":"https://madie.cms.gov/Patient/e93adc7d-9d31-4279-9f76-644668f4d3c9","resource":{"resourceType":"Patient","id":"e93adc7d-9d31-4279-9f76-644668f4d3c9","meta":{"profile":["http://hl7.org/fhir/us/qicore/StructureDefinition/qicore-patient"]},"extension":[{"url":"http://hl7.org/fhir/us/core/StructureDefinition/us-core-race","extension":[{"url":"ombCategory","valueCoding":{"system":"urn:oid:2.16.840.1.113883.6.238","code":"2076-8","display":"Native Hawaiian or Other Pacific Islander","userSelected":true}},{"url":"text","valueString":"Native Hawaiian or Other Pacific Islander"}]},{"url":"http://hl7.org/fhir/us/core/StructureDefinition/us-core-ethnicity","extension":[{"url":"ombCategory","valueCoding":{"system":"urn:oid:2.16.840.1.113883.6.238","code":"2135-2","display":"Hispanic or Latino","userSelected":true}},{"url":"text","valueString":"Hispanic or Latino"}]}],"identifier":[{"type":{"coding":[{"system":"http://terminology.hl7.org/CodeSystem/v2-0203","code":"MR"}]},"system":"https://bonnie-fhir.healthit.gov/","value":"632334c2414ba67d4e1d1c32"}],"name":[{"family":"DENEXFail","given":["HospiceCodeFromOtherVS"]}],"gender":"female","birthDate":"2005-12-31"},"request":{"method":"PUT","url":"Patient/e93adc7d-9d31-4279-9f76-644668f4d3c9"}},{"fullUrl":"https://madie.cms.gov/Encounter/encounter-inpatient-1c2a","resource":{"resourceType":"Encounter","id":"536f1f83-2e43-4a0c-bce5-6201c0fbf8b0","meta":{"profile":["http://hl7.org/fhir/us/qicore/StructureDefinition/qicore-encounter"]},"status":"finished","class":{"system":"http://terminology.hl7.org/CodeSystem/v3-ActCode","code":"IMP","display":"inpatient"},"type":[{"coding":[{"system":"http://snomed.info/sct","version":"2022-03","code":"183452005","display":"Emergency hospital admission (procedure)","userSelected":true}]}],"subject":{"reference":"Patient/e93adc7d-9d31-4279-9f76-644668f4d3c9"},"period":{"start":"2025-01-01T00:01:00.000+00:00","end":"2025-01-02T08:30:00.000+00:00"},"hospitalization":{"dischargeDisposition":{"coding":[{"system":"http://terminology.hl7.org/CodeSystem/discharge-disposition","code":"hosp","display":"Hospice","userSelected":true}]}}},"request":{"method":"PUT","url":"Encounter/536f1f83-2e43-4a0c-bce5-6201c0fbf8b0"}},{"fullUrl":"https://madie.cms.gov/MedicationRequest/schedule-ii-iii-opioid-medications-1c2b","resource":{"resourceType":"MedicationRequest","id":"78565529-c66c-4602-91af-1f11168f9203","meta":{"profile":["http://hl7.org/fhir/us/qicore/StructureDefinition/qicore-medicationrequest"]},"status":"active","intent":"order","category":[{"coding":[{"system":"http://terminology.hl7.org/CodeSystem/medicationrequest-category","code":"discharge","display":"Discharge","userSelected":true}]}],"doNotPerform":false,"medicationCodeableConcept":{"coding":[{"system":"http://www.nlm.nih.gov/research/umls/rxnorm","code":"1014599","display":"acetaminophen 300 MG / oxycodone hydrochloride 10 MG Oral Tablet","userSelected":true}]},"subject":{"reference":"Patient/e93adc7d-9d31-4279-9f76-644668f4d3c9"},"authoredOn":"2025-01-02T08:30:00.000+00:00","requester":{"reference":"Practitioner/example","display":"Patrick Pump"}},"request":{"method":"PUT","url":"MedicationRequest/78565529-c66c-4602-91af-1f11168f9203"}},{"fullUrl":"https://madie.cms.gov/Coverage/1","resource":{"resourceType":"Coverage","id":"86250ec0-e7dd-4916-891e-f1f241c0ecf3","meta":{"profile":["http://hl7.org/fhir/us/qicore/StructureDefinition/qicore-coverage"]},"status":"active","beneficiary":{"reference":"Patient/e93adc7d-9d31-4279-9f76-644668f4d3c9"},"payor":[{"reference":"Organization/4b5a882f-1f43-485c-85c6-f5ad2337d5b1"}]},"request":{"method":"PUT","url":"Coverage/86250ec0-e7dd-4916-891e-f1f241c0ecf3"}},{"fullUrl":"https://madie.cms.gov/Organization/123456","resource":{"resourceType":"Organization","id":"4b5a882f-1f43-485c-85c6-f5ad2337d5b1","meta":{"profile":["http://hl7.org/fhir/us/qicore/StructureDefinition/qicore-organization"]},"identifier":[{"use":"temp","system":"urn:oid:2.16.840.1.113883.4.4","value":"21-3259825"}],"active":true,"type":[{"coding":[{"system":"http://terminology.hl7.org/CodeSystem/organization-type","code":"pay","display":"Payer"}]}],"name":"Blue Cross Blue Shield of Texas","telecom":[{"system":"phone","value":"(+1) 972-766-6900"}],"address":[{"use":"billing","type":"postal","line":["P.O. Box 660044"],"city":"Dallas","state":"TX","postalCode":"75266-0044","country":"USA"}]},"request":{"method":"PUT","url":"Organization/4b5a882f-1f43-485c-85c6-f5ad2337d5b1"}},{"fullUrl":"https://madie.cms.gov/MeasureReport/1bfbf22c-6f81-4ae4-b139-3b348a117c88","resource":{"resourceType":"MeasureReport","id":"1bfbf22c-6f81-4ae4-b139-3b348a117c88","meta":{"profile":["http://hl7.org/fhir/us/cqfmeasures/StructureDefinition/test-case-cqfm"]},"contained":[{"resourceType":"Parameters","id":"2d0df350-02ba-43e5-93ac-e437966dae7a-parameters","parameter":[{"name":"subject","valueString":"e93adc7d-9d31-4279-9f76-644668f4d3c9"}]}],"extension":[{"url":"http://hl7.org/fhir/us/cqfmeasures/StructureDefinition/cqfm-inputParameters","valueReference":{"reference":"#2d0df350-02ba-43e5-93ac-e437966dae7a-parameters"}},{"url":"http://hl7.org/fhir/us/cqfmeasures/StructureDefinition/cqfm-testCaseDescription","valueMarkdown":"Encounter during MP, opioid prescribed at discharge to hospice but terminology (hosp) used hl7, not the \"Hospice Care Referral or Admission\" vs"}],"modifierExtension":[{"url":"http://hl7.org/fhir/us/cqfmeasures/StructureDefinition/cqfm-isTestCase","valueBoolean":true}],"status":"complete","type":"individual","measure":"https://madie.cms.gov/Measure/SafeUseofOpioidsConcurrentPrescribingFHIR","period":{"start":"2025-01-01","end":"2025-12-31"},"group":[{"population":[{"code":{"coding":[{"system":"http://terminology.hl7.org/CodeSystem/measure-population","code":"initial-population","display":"Initial Population"}]},"count":1},{"code":{"coding":[{"system":"http://terminology.hl7.org/CodeSystem/measure-population","code":"denominator","display":"Denominator"}]},"count":1},{"code":{"coding":[{"system":"http://terminology.hl7.org/CodeSystem/measure-population","code":"denominator-exclusion","display":"Denominator Exclusion"}]},"count":0},{"code":{"coding":[{"system":"http://terminology.hl7.org/CodeSystem/measure-population","code":"numerator","display":"Numerator"}]},"count":0}]}]},"request":{"method":"PUT","url":"MeasureReport/1bfbf22c-6f81-4ae4-b139-3b348a117c88"}}]}