{"resourceType":"Bundle","id":"tests-57da77da-de92-4ef5-9311-1d86e67c9de4-bundle","type":"transaction","entry":[{"fullUrl":"https://madie.cms.gov/Patient/57da77da-de92-4ef5-9311-1d86e67c9de4","resource":{"resourceType":"Patient","id":"57da77da-de92-4ef5-9311-1d86e67c9de4","meta":{"profile":["http://hl7.org/fhir/us/qicore/StructureDefinition/qicore-patient"]},"extension":[{"url":"http://hl7.org/fhir/us/core/StructureDefinition/us-core-race","extension":[{"url":"ombCategory","valueCoding":{"system":"urn:oid:2.16.840.1.113883.6.238","code":"2028-9","display":"Asian","userSelected":true}},{"url":"text","valueString":"Asian"},{"url":"detailed","valueCoding":{"system":"urn:oid:2.16.840.1.113883.6.238","code":"1653-5","display":"Tohono O'Odham"}}]},{"url":"http://hl7.org/fhir/us/core/StructureDefinition/us-core-ethnicity","extension":[{"url":"ombCategory","valueCoding":{"system":"urn:oid:2.16.840.1.113883.6.238","code":"2186-5","display":"Not Hispanic or Latino","userSelected":true}},{"url":"text","valueString":"Not Hispanic or Latino"},{"url":"detailed","valueCoding":{"system":"urn:oid:2.16.840.1.113883.6.238","code":"2153-5","display":"Mexican American Indian"}}]}],"identifier":[{"type":{"coding":[{"system":"http://terminology.hl7.org/CodeSystem/v2-0203","code":"MR"}]},"system":"https://bonnie-fhir.healthit.gov/","value":"63233350414ba67d4e1d1c2f"}],"name":[{"family":"DENEXPass","given":["CancerProblemList"]}],"gender":"female","birthDate":"1943-02-01"},"request":{"method":"PUT","url":"Patient/57da77da-de92-4ef5-9311-1d86e67c9de4"}},{"fullUrl":"https://madie.cms.gov/Encounter/encounter-inpatient-1c2a","resource":{"resourceType":"Encounter","id":"9229e47d-00eb-4f07-8d4a-bc801e5b0e61","meta":{"profile":["http://hl7.org/fhir/us/qicore/StructureDefinition/qicore-encounter"]},"status":"finished","class":{"system":"http://terminology.hl7.org/CodeSystem/v3-ActCode","code":"AMB","display":"ambulatory"},"type":[{"coding":[{"system":"http://snomed.info/sct","version":"2022-03","code":"183452005","display":"Emergency hospital admission (procedure)","userSelected":true}]}],"subject":{"reference":"Patient/57da77da-de92-4ef5-9311-1d86e67c9de4"},"period":{"start":"2025-01-01T11:45:00.000+00:00","end":"2025-01-03T11:59:00.000+00:00"}},"request":{"method":"PUT","url":"Encounter/9229e47d-00eb-4f07-8d4a-bc801e5b0e61"}},{"fullUrl":"https://madie.cms.gov/MedicationRequest/schedule-ii-iii-opioid-medications-1c2b","resource":{"resourceType":"MedicationRequest","id":"f79c9da1-da64-49e6-9024-0893833bcf8f","meta":{"profile":["http://hl7.org/fhir/us/qicore/StructureDefinition/qicore-medicationrequest"]},"status":"completed","intent":"order","category":[{"coding":[{"system":"http://terminology.hl7.org/CodeSystem/medicationrequest-category","code":"discharge","display":"Discharge","userSelected":true}]}],"doNotPerform":false,"medicationCodeableConcept":{"coding":[{"system":"http://www.nlm.nih.gov/research/umls/rxnorm","code":"2103192","display":"sufentanil 0.03 MG Sublingual Tablet","userSelected":true}]},"subject":{"reference":"Patient/57da77da-de92-4ef5-9311-1d86e67c9de4"},"authoredOn":"2025-01-03T11:59:00.000+00:00","requester":{"reference":"Practitioner/example","display":"Patrick Pump"}},"request":{"method":"PUT","url":"MedicationRequest/f79c9da1-da64-49e6-9024-0893833bcf8f"}},{"fullUrl":"https://madie.cms.gov/Condition/all-primary-and-secondary-cancer-1c30","resource":{"resourceType":"Condition","id":"c4c4fc3c-75bf-4eb0-a9c8-f1018969104d","meta":{"profile":["http://hl7.org/fhir/us/qicore/StructureDefinition/qicore-condition"]},"clinicalStatus":{"coding":[{"system":"http://terminology.hl7.org/CodeSystem/condition-clinical","code":"active","display":"active","userSelected":true}]},"category":[{"coding":[{"system":"http://terminology.hl7.org/CodeSystem/condition-category","code":"problem-list-item","display":"Problem List Item"},{"system":"http://snomed.info/sct","code":"439401001","display":"Diagnosis"}]}],"code":{"coding":[{"system":"http://snomed.info/sct","version":"2022-03","code":"75544000","display":"Opioid dependence (disorder)","userSelected":true}]},"subject":{"reference":"Patient/57da77da-de92-4ef5-9311-1d86e67c9de4"},"onsetPeriod":{"start":"2024-12-31T08:00:00.000+00:00","end":"2024-12-31T08:00:00.000+00:00"}},"request":{"method":"PUT","url":"Condition/c4c4fc3c-75bf-4eb0-a9c8-f1018969104d"}},{"fullUrl":"https://madie.cms.gov/Coverage/1","resource":{"resourceType":"Coverage","id":"6890e5dd-d369-471c-b02f-5e7f143777b3","meta":{"profile":["http://hl7.org/fhir/us/qicore/StructureDefinition/qicore-coverage"]},"status":"active","beneficiary":{"reference":"Patient/57da77da-de92-4ef5-9311-1d86e67c9de4"},"payor":[{"reference":"Organization/4b5a882f-1f43-485c-85c6-f5ad2337d5b1"}]},"request":{"method":"PUT","url":"Coverage/6890e5dd-d369-471c-b02f-5e7f143777b3"}},{"fullUrl":"https://madie.cms.gov/Organization/123456","resource":{"resourceType":"Organization","id":"4b5a882f-1f43-485c-85c6-f5ad2337d5b1","meta":{"profile":["http://hl7.org/fhir/us/qicore/StructureDefinition/qicore-organization"]},"identifier":[{"use":"temp","system":"urn:oid:2.16.840.1.113883.4.4","value":"21-3259825"}],"active":true,"type":[{"coding":[{"system":"http://terminology.hl7.org/CodeSystem/organization-type","code":"pay","display":"Payer"}]}],"name":"Blue Cross Blue Shield of Texas","telecom":[{"system":"phone","value":"(+1) 972-766-6900"}],"address":[{"use":"billing","type":"postal","line":["P.O. Box 660044"],"city":"Dallas","state":"TX","postalCode":"75266-0044","country":"USA"}]},"request":{"method":"PUT","url":"Organization/4b5a882f-1f43-485c-85c6-f5ad2337d5b1"}},{"fullUrl":"https://madie.cms.gov/MeasureReport/245d5fc6-b92d-4c89-b945-3f0f1a66619e","resource":{"resourceType":"MeasureReport","id":"245d5fc6-b92d-4c89-b945-3f0f1a66619e","meta":{"profile":["http://hl7.org/fhir/us/cqfmeasures/StructureDefinition/test-case-cqfm"]},"contained":[{"resourceType":"Parameters","id":"5e75a509-3eae-4efc-ad50-db2100037e9b-parameters","parameter":[{"name":"subject","valueString":"57da77da-de92-4ef5-9311-1d86e67c9de4"}]}],"extension":[{"url":"http://hl7.org/fhir/us/cqfmeasures/StructureDefinition/cqfm-inputParameters","valueReference":{"reference":"#5e75a509-3eae-4efc-ad50-db2100037e9b-parameters"}},{"url":"http://hl7.org/fhir/us/cqfmeasures/StructureDefinition/cqfm-testCaseDescription","valueMarkdown":"Enc first day of MP, pt has opioid use disorder"}],"modifierExtension":[{"url":"http://hl7.org/fhir/us/cqfmeasures/StructureDefinition/cqfm-isTestCase","valueBoolean":true}],"status":"complete","type":"individual","measure":"https://madie.cms.gov/Measure/SafeUseofOpioidsConcurrentPrescribingFHIR","period":{"start":"2025-01-01","end":"2025-12-31"},"group":[{"population":[{"code":{"coding":[{"system":"http://terminology.hl7.org/CodeSystem/measure-population","code":"initial-population","display":"Initial Population"}]},"count":1},{"code":{"coding":[{"system":"http://terminology.hl7.org/CodeSystem/measure-population","code":"denominator","display":"Denominator"}]},"count":1},{"code":{"coding":[{"system":"http://terminology.hl7.org/CodeSystem/measure-population","code":"denominator-exclusion","display":"Denominator Exclusion"}]},"count":1},{"code":{"coding":[{"system":"http://terminology.hl7.org/CodeSystem/measure-population","code":"numerator","display":"Numerator"}]},"count":0}]}]},"request":{"method":"PUT","url":"MeasureReport/245d5fc6-b92d-4c89-b945-3f0f1a66619e"}}]}