{"resourceType":"Bundle","id":"tests-5e76e39a-8a30-4035-8d44-3362f4826aa7-bundle","type":"transaction","entry":[{"fullUrl":"https://madie.cms.gov/Patient/5e76e39a-8a30-4035-8d44-3362f4826aa7","resource":{"resourceType":"Patient","id":"5e76e39a-8a30-4035-8d44-3362f4826aa7","meta":{"profile":["http://hl7.org/fhir/us/qicore/StructureDefinition/qicore-patient"]},"extension":[{"url":"http://hl7.org/fhir/us/core/StructureDefinition/us-core-race","extension":[{"url":"ombCategory","valueCoding":{"system":"urn:oid:2.16.840.1.113883.6.238","code":"2028-9","display":"Asian","userSelected":true}},{"url":"text","valueString":"Asian"},{"url":"detailed","valueCoding":{"system":"urn:oid:2.16.840.1.113883.6.238","code":"1653-5","display":"Tohono O'Odham"}}]},{"url":"http://hl7.org/fhir/us/core/StructureDefinition/us-core-ethnicity","extension":[{"url":"ombCategory","valueCoding":{"system":"urn:oid:2.16.840.1.113883.6.238","code":"2186-5","display":"Not Hispanic or Latino","userSelected":true}},{"url":"text","valueString":"Not Hispanic or Latino"},{"url":"detailed","valueCoding":{"system":"urn:oid:2.16.840.1.113883.6.238","code":"2153-5","display":"Mexican American Indian"}}]}],"identifier":[{"type":{"coding":[{"system":"http://terminology.hl7.org/CodeSystem/v2-0203","code":"MR"}]},"system":"https://bonnie-fhir.healthit.gov/","value":"63233350414ba67d4e1d1c2f"}],"name":[{"family":"DENEXPass","given":["CancerProblemList"]}],"gender":"female","birthDate":"1943-02-01"},"request":{"method":"PUT","url":"Patient/5e76e39a-8a30-4035-8d44-3362f4826aa7"}},{"fullUrl":"https://madie.cms.gov/Encounter/encounter-inpatient-1c2a","resource":{"resourceType":"Encounter","id":"6399d991-ceaa-494f-a611-ed6f4ef2d23c","meta":{"profile":["http://hl7.org/fhir/us/qicore/StructureDefinition/qicore-encounter"]},"status":"finished","class":{"system":"http://terminology.hl7.org/CodeSystem/v3-ActCode","code":"AMB","display":"ambulatory"},"type":[{"coding":[{"system":"http://snomed.info/sct","version":"2022-03","code":"183452005","display":"Emergency hospital admission (procedure)","userSelected":true}]}],"subject":{"reference":"Patient/5e76e39a-8a30-4035-8d44-3362f4826aa7"},"period":{"start":"2025-01-01T11:45:00.000+00:00","end":"2025-01-03T11:59:00.000+00:00"}},"request":{"method":"PUT","url":"Encounter/6399d991-ceaa-494f-a611-ed6f4ef2d23c"}},{"fullUrl":"https://madie.cms.gov/MedicationRequest/schedule-ii-iii-opioid-medications-1c2b","resource":{"resourceType":"MedicationRequest","id":"e1b14103-4d9b-4999-91cc-77525d805af2","meta":{"profile":["http://hl7.org/fhir/us/qicore/StructureDefinition/qicore-medicationrequest"]},"status":"completed","intent":"order","category":[{"coding":[{"system":"http://terminology.hl7.org/CodeSystem/medicationrequest-category","code":"discharge","display":"Discharge","userSelected":true}]}],"doNotPerform":false,"medicationCodeableConcept":{"coding":[{"system":"http://www.nlm.nih.gov/research/umls/rxnorm","code":"2103192","display":"sufentanil 0.03 MG Sublingual Tablet","userSelected":true}]},"subject":{"reference":"Patient/5e76e39a-8a30-4035-8d44-3362f4826aa7"},"authoredOn":"2025-01-03T11:59:00.000+00:00","requester":{"reference":"Practitioner/example","display":"Patrick Pump"}},"request":{"method":"PUT","url":"MedicationRequest/e1b14103-4d9b-4999-91cc-77525d805af2"}},{"fullUrl":"https://madie.cms.gov/Condition/all-primary-and-secondary-cancer-1c30","resource":{"resourceType":"Condition","id":"cccc236e-3f27-4fa6-9332-c00ff11af9f8","meta":{"profile":["http://hl7.org/fhir/us/qicore/StructureDefinition/qicore-condition"]},"clinicalStatus":{"coding":[{"system":"http://terminology.hl7.org/CodeSystem/condition-clinical","code":"active","display":"active","userSelected":true}]},"category":[{"coding":[{"system":"http://terminology.hl7.org/CodeSystem/condition-category","code":"problem-list-item","display":"Problem List Item"},{"system":"http://snomed.info/sct","code":"439401001","display":"Diagnosis"}]}],"code":{"coding":[{"system":"http://snomed.info/sct","version":"2022-03","code":"788891004","display":"Chronic pain after cancer treatment (finding)","userSelected":true}]},"subject":{"reference":"Patient/5e76e39a-8a30-4035-8d44-3362f4826aa7"},"onsetPeriod":{"start":"2024-12-31T08:00:00.000+00:00","end":"2024-12-31T08:00:00.000+00:00"}},"request":{"method":"PUT","url":"Condition/cccc236e-3f27-4fa6-9332-c00ff11af9f8"}},{"fullUrl":"https://madie.cms.gov/Coverage/1","resource":{"resourceType":"Coverage","id":"eac90631-3d82-474b-9f78-cbdd73f3c3c7","meta":{"profile":["http://hl7.org/fhir/us/qicore/StructureDefinition/qicore-coverage"]},"status":"active","beneficiary":{"reference":"Patient/5e76e39a-8a30-4035-8d44-3362f4826aa7"},"payor":[{"reference":"Organization/4b5a882f-1f43-485c-85c6-f5ad2337d5b1"}]},"request":{"method":"PUT","url":"Coverage/eac90631-3d82-474b-9f78-cbdd73f3c3c7"}},{"fullUrl":"https://madie.cms.gov/Organization/123456","resource":{"resourceType":"Organization","id":"4b5a882f-1f43-485c-85c6-f5ad2337d5b1","meta":{"profile":["http://hl7.org/fhir/us/qicore/StructureDefinition/qicore-organization"]},"identifier":[{"use":"temp","system":"urn:oid:2.16.840.1.113883.4.4","value":"21-3259825"}],"active":true,"type":[{"coding":[{"system":"http://terminology.hl7.org/CodeSystem/organization-type","code":"pay","display":"Payer"}]}],"name":"Blue Cross Blue Shield of Texas","telecom":[{"system":"phone","value":"(+1) 972-766-6900"}],"address":[{"use":"billing","type":"postal","line":["P.O. Box 660044"],"city":"Dallas","state":"TX","postalCode":"75266-0044","country":"USA"}]},"request":{"method":"PUT","url":"Organization/4b5a882f-1f43-485c-85c6-f5ad2337d5b1"}},{"fullUrl":"https://madie.cms.gov/MeasureReport/ee845cd1-cec4-4b00-9b6d-cafc54c2ff8b","resource":{"resourceType":"MeasureReport","id":"ee845cd1-cec4-4b00-9b6d-cafc54c2ff8b","meta":{"profile":["http://hl7.org/fhir/us/cqfmeasures/StructureDefinition/test-case-cqfm"]},"contained":[{"resourceType":"Parameters","id":"33b2a7c0-090a-4ed1-bb1b-9af43dba7d6f-parameters","parameter":[{"name":"subject","valueString":"5e76e39a-8a30-4035-8d44-3362f4826aa7"}]}],"extension":[{"url":"http://hl7.org/fhir/us/cqfmeasures/StructureDefinition/cqfm-inputParameters","valueReference":{"reference":"#33b2a7c0-090a-4ed1-bb1b-9af43dba7d6f-parameters"}},{"url":"http://hl7.org/fhir/us/cqfmeasures/StructureDefinition/cqfm-testCaseDescription","valueMarkdown":"Encounter 1/1 - 1/3 , age 18, 1 opioid completed at dc , has cancer that started last day of prior year (onsetPeriod, start and end)"}],"modifierExtension":[{"url":"http://hl7.org/fhir/us/cqfmeasures/StructureDefinition/cqfm-isTestCase","valueBoolean":true}],"status":"complete","type":"individual","measure":"https://madie.cms.gov/Measure/SafeUseofOpioidsConcurrentPrescribingFHIR","period":{"start":"2025-01-01","end":"2025-12-31"},"group":[{"population":[{"code":{"coding":[{"system":"http://terminology.hl7.org/CodeSystem/measure-population","code":"initial-population","display":"Initial Population"}]},"count":1},{"code":{"coding":[{"system":"http://terminology.hl7.org/CodeSystem/measure-population","code":"denominator","display":"Denominator"}]},"count":1},{"code":{"coding":[{"system":"http://terminology.hl7.org/CodeSystem/measure-population","code":"denominator-exclusion","display":"Denominator Exclusion"}]},"count":1},{"code":{"coding":[{"system":"http://terminology.hl7.org/CodeSystem/measure-population","code":"numerator","display":"Numerator"}]},"count":0}]}]},"request":{"method":"PUT","url":"MeasureReport/ee845cd1-cec4-4b00-9b6d-cafc54c2ff8b"}}]}