{"resourceType":"Bundle","id":"tests-6bbda026-cf4e-4843-91cd-30e8e052fc43-bundle","type":"transaction","entry":[{"fullUrl":"https://madie.cms.gov/Patient/6bbda026-cf4e-4843-91cd-30e8e052fc43","resource":{"resourceType":"Patient","id":"6bbda026-cf4e-4843-91cd-30e8e052fc43","meta":{"profile":["http://hl7.org/fhir/us/qicore/StructureDefinition/qicore-patient"]},"extension":[{"url":"http://hl7.org/fhir/us/core/StructureDefinition/us-core-race","extension":[{"url":"ombCategory","valueCoding":{"system":"urn:oid:2.16.840.1.113883.6.238","code":"2054-5","display":"Black or African American","userSelected":true}},{"url":"text","valueString":"Black or African American"}]},{"url":"http://hl7.org/fhir/us/core/StructureDefinition/us-core-ethnicity","extension":[{"url":"ombCategory","valueCoding":{"system":"urn:oid:2.16.840.1.113883.6.238","code":"2186-5","display":"Not Hispanic or Latino","userSelected":true}},{"url":"text","valueString":"Not Hispanic or Latino"}]}],"identifier":[{"type":{"coding":[{"system":"http://terminology.hl7.org/CodeSystem/v2-0203","code":"MR"}]},"system":"https://bonnie-fhir.healthit.gov/","value":"632368e98d26c655c5601f01"}],"name":[{"family":"NUMERPass","given":["OpioidAndBenzodiazepine"]}],"gender":"female","birthDate":"2005-12-31"},"request":{"method":"PUT","url":"Patient/6bbda026-cf4e-4843-91cd-30e8e052fc43"}},{"fullUrl":"https://madie.cms.gov/Encounter/encounter-inpatient-53ef","resource":{"resourceType":"Encounter","id":"0dc2687e-c181-4c44-829b-d56b543deb0b","meta":{"profile":["http://hl7.org/fhir/us/qicore/StructureDefinition/qicore-encounter"]},"status":"finished","class":{"system":"http://terminology.hl7.org/CodeSystem/v3-ActCode","code":"IMP","display":"inpatient"},"type":[{"coding":[{"system":"http://snomed.info/sct","version":"2022-03","code":"183452005","display":"Emergency hospital admission (procedure)","userSelected":true}]}],"subject":{"reference":"Patient/6bbda026-cf4e-4843-91cd-30e8e052fc43"},"period":{"start":"2025-01-01T00:00:00.000+00:00","end":"2025-01-02T00:15:00.000+00:00"}},"request":{"method":"PUT","url":"Encounter/0dc2687e-c181-4c44-829b-d56b543deb0b"}},{"fullUrl":"https://madie.cms.gov/MedicationRequest/schedule-ii-iii-opioid-medications-53f1","resource":{"resourceType":"MedicationRequest","id":"637d05a5-b413-45e6-b7cb-0b27e146baad","meta":{"profile":["http://hl7.org/fhir/us/qicore/StructureDefinition/qicore-medicationrequest"]},"status":"active","intent":"order","category":[{"coding":[{"system":"http://terminology.hl7.org/CodeSystem/medicationrequest-category","code":"community","display":"Community","userSelected":true}]}],"doNotPerform":false,"medicationCodeableConcept":{"coding":[{"system":"http://www.nlm.nih.gov/research/umls/rxnorm","version":"2022-08","code":"1014632","display":"acetaminophen 300 MG / oxycodone hydrochloride 7.5 MG Oral Tablet","userSelected":true}]},"subject":{"reference":"Patient/6bbda026-cf4e-4843-91cd-30e8e052fc43"},"authoredOn":"2025-01-02T00:15:00.000+00:00","requester":{"reference":"Practitioner/example","display":"Patrick Pump"}},"request":{"method":"PUT","url":"MedicationRequest/637d05a5-b413-45e6-b7cb-0b27e146baad"}},{"fullUrl":"https://madie.cms.gov/MedicationRequest/schedule-iv-benzodiazepines-1f02","resource":{"resourceType":"MedicationRequest","id":"369e3eae-38b2-4956-8302-74e66043596a","meta":{"profile":["http://hl7.org/fhir/us/qicore/StructureDefinition/qicore-medicationrequest"]},"status":"active","intent":"order","category":[{"coding":[{"system":"http://terminology.hl7.org/CodeSystem/medicationrequest-category","code":"community","display":"Community","userSelected":true}]}],"doNotPerform":false,"medicationCodeableConcept":{"coding":[{"system":"http://www.nlm.nih.gov/research/umls/rxnorm","code":"1298088","display":"flurazepam hydrochloride 15 MG Oral Capsule","userSelected":true}]},"subject":{"reference":"Patient/6bbda026-cf4e-4843-91cd-30e8e052fc43"},"authoredOn":"2025-01-02T00:10:00.000+00:00","requester":{"reference":"Practitioner/example","display":"Patrick Pump"}},"request":{"method":"PUT","url":"MedicationRequest/369e3eae-38b2-4956-8302-74e66043596a"}},{"fullUrl":"https://madie.cms.gov/Coverage/1","resource":{"resourceType":"Coverage","id":"a589f90d-4260-4a65-a68f-47718d2f3304","meta":{"profile":["http://hl7.org/fhir/us/qicore/StructureDefinition/qicore-coverage"]},"status":"active","beneficiary":{"reference":"Patient/6bbda026-cf4e-4843-91cd-30e8e052fc43"},"payor":[{"reference":"Organization/4b5a882f-1f43-485c-85c6-f5ad2337d5b1"}]},"request":{"method":"PUT","url":"Coverage/a589f90d-4260-4a65-a68f-47718d2f3304"}},{"fullUrl":"https://madie.cms.gov/Organization/123456","resource":{"resourceType":"Organization","id":"4b5a882f-1f43-485c-85c6-f5ad2337d5b1","meta":{"profile":["http://hl7.org/fhir/us/qicore/StructureDefinition/qicore-organization"]},"identifier":[{"use":"temp","system":"urn:oid:2.16.840.1.113883.4.4","value":"21-3259825"}],"active":true,"type":[{"coding":[{"system":"http://terminology.hl7.org/CodeSystem/organization-type","code":"pay","display":"Payer"}]}],"name":"Blue Cross Blue Shield of Texas","telecom":[{"system":"phone","value":"(+1) 972-766-6900"}],"address":[{"use":"billing","type":"postal","line":["P.O. Box 660044"],"city":"Dallas","state":"TX","postalCode":"75266-0044","country":"USA"}]},"request":{"method":"PUT","url":"Organization/4b5a882f-1f43-485c-85c6-f5ad2337d5b1"}},{"fullUrl":"https://madie.cms.gov/MeasureReport/678e2636-6050-405f-94e1-d0eb2011dd13","resource":{"resourceType":"MeasureReport","id":"678e2636-6050-405f-94e1-d0eb2011dd13","meta":{"profile":["http://hl7.org/fhir/us/cqfmeasures/StructureDefinition/test-case-cqfm"]},"contained":[{"resourceType":"Parameters","id":"0addf1e8-8875-49d8-aa96-f89f76cabb1e-parameters","parameter":[{"name":"subject","valueString":"6bbda026-cf4e-4843-91cd-30e8e052fc43"}]}],"extension":[{"url":"http://hl7.org/fhir/us/cqfmeasures/StructureDefinition/cqfm-inputParameters","valueReference":{"reference":"#0addf1e8-8875-49d8-aa96-f89f76cabb1e-parameters"}},{"url":"http://hl7.org/fhir/us/cqfmeasures/StructureDefinition/cqfm-testCaseDescription","valueMarkdown":"Encounter 01/01,  00:00 - 1/2 00:15, age 18, opioid and benzodiazepines at discharge on 1/2"}],"modifierExtension":[{"url":"http://hl7.org/fhir/us/cqfmeasures/StructureDefinition/cqfm-isTestCase","valueBoolean":true}],"status":"complete","type":"individual","measure":"https://madie.cms.gov/Measure/SafeUseofOpioidsConcurrentPrescribingFHIR","period":{"start":"2025-01-01","end":"2025-12-31"},"group":[{"population":[{"code":{"coding":[{"system":"http://terminology.hl7.org/CodeSystem/measure-population","code":"initial-population","display":"Initial Population"}]},"count":1},{"code":{"coding":[{"system":"http://terminology.hl7.org/CodeSystem/measure-population","code":"denominator","display":"Denominator"}]},"count":1},{"code":{"coding":[{"system":"http://terminology.hl7.org/CodeSystem/measure-population","code":"denominator-exclusion","display":"Denominator Exclusion"}]},"count":0},{"code":{"coding":[{"system":"http://terminology.hl7.org/CodeSystem/measure-population","code":"numerator","display":"Numerator"}]},"count":1}]}]},"request":{"method":"PUT","url":"MeasureReport/678e2636-6050-405f-94e1-d0eb2011dd13"}}]}