{"resourceType":"Bundle","id":"tests-81dc5bb4-3273-492a-beff-2f7b0394f3c8-bundle","type":"transaction","entry":[{"fullUrl":"https://madie.cms.gov/Patient/81dc5bb4-3273-492a-beff-2f7b0394f3c8","resource":{"resourceType":"Patient","id":"81dc5bb4-3273-492a-beff-2f7b0394f3c8","meta":{"profile":["http://hl7.org/fhir/us/qicore/StructureDefinition/qicore-patient"]},"extension":[{"url":"http://hl7.org/fhir/us/core/StructureDefinition/us-core-race","extension":[{"url":"ombCategory","valueCoding":{"system":"urn:oid:2.16.840.1.113883.6.238","code":"2028-9","display":"Asian","userSelected":true}},{"url":"text","valueString":"Asian"}]},{"url":"http://hl7.org/fhir/us/core/StructureDefinition/us-core-ethnicity","extension":[{"url":"ombCategory","valueCoding":{"system":"urn:oid:2.16.840.1.113883.6.238","code":"2186-5","display":"Not Hispanic or Latino","userSelected":true}},{"url":"text","valueString":"Not Hispanic or Latino"}]}],"identifier":[{"type":{"coding":[{"system":"http://terminology.hl7.org/CodeSystem/v2-0203","code":"MR"}]},"system":"https://bonnie-fhir.healthit.gov/","value":"63233350414ba67d4e1d1c2f"}],"name":[{"family":"DENEXPass","given":["HasCancerPainHealthConcern"]}],"gender":"female","birthDate":"1943-02-01"},"request":{"method":"PUT","url":"Patient/81dc5bb4-3273-492a-beff-2f7b0394f3c8"}},{"fullUrl":"https://madie.cms.gov/Encounter/encounter-inpatient-1c2a","resource":{"resourceType":"Encounter","id":"6612c049-a17c-46d5-a3d9-ec5956212a8e","meta":{"profile":["http://hl7.org/fhir/us/qicore/StructureDefinition/qicore-encounter"]},"status":"finished","class":{"system":"http://terminology.hl7.org/CodeSystem/v3-ActCode","code":"AMB","display":"ambulatory"},"type":[{"coding":[{"system":"http://snomed.info/sct","version":"2022-03","code":"183452005","display":"Emergency hospital admission (procedure)","userSelected":true}]}],"subject":{"reference":"Patient/81dc5bb4-3273-492a-beff-2f7b0394f3c8"},"period":{"start":"2025-01-01T11:45:00.000+00:00","end":"2025-01-03T11:59:00.000+00:00"}},"request":{"method":"PUT","url":"Encounter/6612c049-a17c-46d5-a3d9-ec5956212a8e"}},{"fullUrl":"https://madie.cms.gov/MedicationRequest/schedule-ii-iii-opioid-medications-1c2b","resource":{"resourceType":"MedicationRequest","id":"64c877a1-2342-4544-912d-aabbd8dda85d","meta":{"profile":["http://hl7.org/fhir/us/qicore/StructureDefinition/qicore-medicationrequest"]},"status":"active","intent":"order","category":[{"coding":[{"system":"http://terminology.hl7.org/CodeSystem/medicationrequest-category","code":"discharge","display":"Discharge","userSelected":true}]}],"doNotPerform":false,"medicationCodeableConcept":{"coding":[{"system":"http://www.nlm.nih.gov/research/umls/rxnorm","code":"2103192","display":"sufentanil 0.03 MG Sublingual Tablet","userSelected":true}]},"subject":{"reference":"Patient/81dc5bb4-3273-492a-beff-2f7b0394f3c8"},"authoredOn":"2025-01-03T11:59:00.000+00:00","requester":{"reference":"Practitioner/example","display":"Patrick Pump"}},"request":{"method":"PUT","url":"MedicationRequest/64c877a1-2342-4544-912d-aabbd8dda85d"}},{"fullUrl":"https://madie.cms.gov/Condition/all-primary-and-secondary-cancer-1c30","resource":{"resourceType":"Condition","id":"1163c960-f04f-46b9-98d2-f0a747c41a09","meta":{"profile":["http://hl7.org/fhir/us/qicore/StructureDefinition/qicore-condition"]},"clinicalStatus":{"coding":[{"system":"http://terminology.hl7.org/CodeSystem/condition-clinical","code":"active","display":"active","userSelected":true}]},"category":[{"coding":[{"system":"http://hl7.org/fhir/us/core/CodeSystem/condition-category","code":"health-concern","display":"Health Concern"},{"system":"http://snomed.info/sct","code":"439401001","display":"Diagnosis"}]}],"code":{"coding":[{"system":"http://snomed.info/sct","version":"2022-03","code":"879973007","display":"Breakthrough cancer pain (finding)","userSelected":true}]},"subject":{"reference":"Patient/81dc5bb4-3273-492a-beff-2f7b0394f3c8"},"onsetPeriod":{"start":"2023-12-31T08:00:00.000+00:00"}},"request":{"method":"PUT","url":"Condition/1163c960-f04f-46b9-98d2-f0a747c41a09"}},{"fullUrl":"https://madie.cms.gov/Coverage/1","resource":{"resourceType":"Coverage","id":"d3610f7f-3ea9-428b-9ed9-e8a99969de05","meta":{"profile":["http://hl7.org/fhir/us/qicore/StructureDefinition/qicore-coverage"]},"status":"active","beneficiary":{"reference":"Patient/81dc5bb4-3273-492a-beff-2f7b0394f3c8"},"payor":[{"reference":"Organization/4b5a882f-1f43-485c-85c6-f5ad2337d5b1"}]},"request":{"method":"PUT","url":"Coverage/d3610f7f-3ea9-428b-9ed9-e8a99969de05"}},{"fullUrl":"https://madie.cms.gov/Organization/123456","resource":{"resourceType":"Organization","id":"4b5a882f-1f43-485c-85c6-f5ad2337d5b1","meta":{"profile":["http://hl7.org/fhir/us/qicore/StructureDefinition/qicore-organization"]},"identifier":[{"use":"temp","system":"urn:oid:2.16.840.1.113883.4.4","value":"21-3259825"}],"active":true,"type":[{"coding":[{"system":"http://terminology.hl7.org/CodeSystem/organization-type","code":"pay","display":"Payer"}]}],"name":"Blue Cross Blue Shield of Texas","telecom":[{"system":"phone","value":"(+1) 972-766-6900"}],"address":[{"use":"billing","type":"postal","line":["P.O. Box 660044"],"city":"Dallas","state":"TX","postalCode":"75266-0044","country":"USA"}]},"request":{"method":"PUT","url":"Organization/4b5a882f-1f43-485c-85c6-f5ad2337d5b1"}},{"fullUrl":"https://madie.cms.gov/MeasureReport/652c999c-70c1-4b97-a3c5-0835b4a81078","resource":{"resourceType":"MeasureReport","id":"652c999c-70c1-4b97-a3c5-0835b4a81078","meta":{"profile":["http://hl7.org/fhir/us/cqfmeasures/StructureDefinition/test-case-cqfm"]},"contained":[{"resourceType":"Parameters","id":"93696621-b759-4f3d-8bb7-a8c45869a769-parameters","parameter":[{"name":"subject","valueString":"81dc5bb4-3273-492a-beff-2f7b0394f3c8"}]}],"extension":[{"url":"http://hl7.org/fhir/us/cqfmeasures/StructureDefinition/cqfm-inputParameters","valueReference":{"reference":"#93696621-b759-4f3d-8bb7-a8c45869a769-parameters"}},{"url":"http://hl7.org/fhir/us/cqfmeasures/StructureDefinition/cqfm-testCaseDescription","valueMarkdown":"Encounter 1/1 - 1/3 , age 18,  1 opioid at dc, has cancer that started last day of prior year"}],"modifierExtension":[{"url":"http://hl7.org/fhir/us/cqfmeasures/StructureDefinition/cqfm-isTestCase","valueBoolean":true}],"status":"complete","type":"individual","measure":"https://madie.cms.gov/Measure/SafeUseofOpioidsConcurrentPrescribingFHIR","period":{"start":"2025-01-01","end":"2025-12-31"},"group":[{"population":[{"code":{"coding":[{"system":"http://terminology.hl7.org/CodeSystem/measure-population","code":"initial-population","display":"Initial Population"}]},"count":1},{"code":{"coding":[{"system":"http://terminology.hl7.org/CodeSystem/measure-population","code":"denominator","display":"Denominator"}]},"count":1},{"code":{"coding":[{"system":"http://terminology.hl7.org/CodeSystem/measure-population","code":"denominator-exclusion","display":"Denominator Exclusion"}]},"count":1},{"code":{"coding":[{"system":"http://terminology.hl7.org/CodeSystem/measure-population","code":"numerator","display":"Numerator"}]},"count":0}]}]},"request":{"method":"PUT","url":"MeasureReport/652c999c-70c1-4b97-a3c5-0835b4a81078"}}]}