{"resourceType":"Bundle","id":"tests-cbf21555-f64b-427a-b274-111b94523cf7-bundle","type":"transaction","entry":[{"fullUrl":"https://madie.cms.gov/Patient/cbf21555-f64b-427a-b274-111b94523cf7","resource":{"resourceType":"Patient","id":"cbf21555-f64b-427a-b274-111b94523cf7","meta":{"profile":["http://hl7.org/fhir/us/qicore/StructureDefinition/qicore-patient"]},"extension":[{"url":"http://hl7.org/fhir/us/core/StructureDefinition/us-core-race","extension":[{"url":"ombCategory","valueCoding":{"system":"urn:oid:2.16.840.1.113883.6.238","code":"1002-5","display":"American Indian or Alaska Native","userSelected":true}},{"url":"text","valueString":"American Indian or Alaska Native"}]},{"url":"http://hl7.org/fhir/us/core/StructureDefinition/us-core-ethnicity","extension":[{"url":"ombCategory","valueCoding":{"system":"urn:oid:2.16.840.1.113883.6.238","code":"2135-2","display":"Hispanic or Latino","userSelected":true}},{"url":"text","valueString":"Hispanic or Latino"}]}],"identifier":[{"type":{"coding":[{"system":"http://terminology.hl7.org/CodeSystem/v2-0203","code":"MR"}]},"system":"https://bonnie-fhir.healthit.gov/","value":"63231ae12a56ae63756a53ee"}],"name":[{"family":"DENOMPass","given":["EncounterWithOpioid"]}],"gender":"male","birthDate":"2005-12-31"},"request":{"method":"PUT","url":"Patient/cbf21555-f64b-427a-b274-111b94523cf7"}},{"fullUrl":"https://madie.cms.gov/Encounter/encounter-inpatient-53ef","resource":{"resourceType":"Encounter","id":"75ebdda8-8ae7-4bf6-96c4-730de92d7228","meta":{"profile":["http://hl7.org/fhir/us/qicore/StructureDefinition/qicore-encounter"]},"status":"finished","class":{"system":"http://terminology.hl7.org/CodeSystem/v3-ActCode","code":"AMB","display":"ambulatory"},"type":[{"coding":[{"system":"http://snomed.info/sct","version":"2022-03","code":"183452005","display":"Emergency hospital admission (procedure)","userSelected":true}]}],"subject":{"reference":"Patient/cbf21555-f64b-427a-b274-111b94523cf7"},"period":{"start":"2025-01-01T00:01:00.000+00:00","end":"2025-01-05T00:30:00.000+00:00"}},"request":{"method":"PUT","url":"Encounter/75ebdda8-8ae7-4bf6-96c4-730de92d7228"}},{"fullUrl":"https://madie.cms.gov/MedicationRequest/schedule-ii-iii-opioid-medications-53f1","resource":{"resourceType":"MedicationRequest","id":"23118aec-3dec-490a-a43d-af43593c2d8e","meta":{"profile":["http://hl7.org/fhir/us/qicore/StructureDefinition/qicore-medicationrequest"]},"status":"active","intent":"order","category":[{"coding":[{"system":"http://terminology.hl7.org/CodeSystem/medicationrequest-category","code":"discharge","display":"Discharge","userSelected":true}]}],"doNotPerform":false,"medicationCodeableConcept":{"coding":[{"system":"http://www.nlm.nih.gov/research/umls/rxnorm","version":"2022-08","code":"1014632","display":"acetaminophen 300 MG / oxycodone hydrochloride 7.5 MG Oral Tablet","userSelected":true}]},"subject":{"reference":"Patient/cbf21555-f64b-427a-b274-111b94523cf7"},"authoredOn":"2025-01-05T00:29:00.000+00:00","requester":{"reference":"Practitioner/example","display":"Patrick Pump"}},"request":{"method":"PUT","url":"MedicationRequest/23118aec-3dec-490a-a43d-af43593c2d8e"}},{"fullUrl":"https://madie.cms.gov/Coverage/1","resource":{"resourceType":"Coverage","id":"7eec8d87-3d4e-4039-a330-1e72acd280d6","meta":{"profile":["http://hl7.org/fhir/us/qicore/StructureDefinition/qicore-coverage"]},"status":"active","beneficiary":{"reference":"Patient/cbf21555-f64b-427a-b274-111b94523cf7"},"payor":[{"reference":"Organization/4b5a882f-1f43-485c-85c6-f5ad2337d5b1"}]},"request":{"method":"PUT","url":"Coverage/7eec8d87-3d4e-4039-a330-1e72acd280d6"}},{"fullUrl":"https://madie.cms.gov/Organization/123456","resource":{"resourceType":"Organization","id":"4b5a882f-1f43-485c-85c6-f5ad2337d5b1","meta":{"profile":["http://hl7.org/fhir/us/qicore/StructureDefinition/qicore-organization"]},"identifier":[{"use":"temp","system":"urn:oid:2.16.840.1.113883.4.4","value":"21-3259825"}],"active":true,"type":[{"coding":[{"system":"http://terminology.hl7.org/CodeSystem/organization-type","code":"pay","display":"Payer"}]}],"name":"Blue Cross Blue Shield of Texas","telecom":[{"system":"phone","value":"(+1) 972-766-6900"}],"address":[{"use":"billing","type":"postal","line":["P.O. Box 660044"],"city":"Dallas","state":"TX","postalCode":"75266-0044","country":"USA"}]},"request":{"method":"PUT","url":"Organization/4b5a882f-1f43-485c-85c6-f5ad2337d5b1"}},{"fullUrl":"https://madie.cms.gov/MeasureReport/38ce1138-4836-434a-b6e4-ebf9a31d103f","resource":{"resourceType":"MeasureReport","id":"38ce1138-4836-434a-b6e4-ebf9a31d103f","meta":{"profile":["http://hl7.org/fhir/us/cqfmeasures/StructureDefinition/test-case-cqfm"]},"contained":[{"resourceType":"Parameters","id":"540b2d1a-2abc-4730-a18b-00234ab23d0b-parameters","parameter":[{"name":"subject","valueString":"cbf21555-f64b-427a-b274-111b94523cf7"}]}],"extension":[{"url":"http://hl7.org/fhir/us/cqfmeasures/StructureDefinition/cqfm-inputParameters","valueReference":{"reference":"#540b2d1a-2abc-4730-a18b-00234ab23d0b-parameters"}},{"url":"http://hl7.org/fhir/us/cqfmeasures/StructureDefinition/cqfm-testCaseDescription","valueMarkdown":"Encounter 01/01  at 00:01 - 1/5  @ 00:30, age 18, opioid prescribed  1/5 at00:29 just before discharge"}],"modifierExtension":[{"url":"http://hl7.org/fhir/us/cqfmeasures/StructureDefinition/cqfm-isTestCase","valueBoolean":true}],"status":"complete","type":"individual","measure":"https://madie.cms.gov/Measure/SafeUseofOpioidsConcurrentPrescribingFHIR","period":{"start":"2025-01-01","end":"2025-12-31"},"group":[{"population":[{"code":{"coding":[{"system":"http://terminology.hl7.org/CodeSystem/measure-population","code":"initial-population","display":"Initial Population"}]},"count":1},{"code":{"coding":[{"system":"http://terminology.hl7.org/CodeSystem/measure-population","code":"denominator","display":"Denominator"}]},"count":1},{"code":{"coding":[{"system":"http://terminology.hl7.org/CodeSystem/measure-population","code":"denominator-exclusion","display":"Denominator Exclusion"}]},"count":0},{"code":{"coding":[{"system":"http://terminology.hl7.org/CodeSystem/measure-population","code":"numerator","display":"Numerator"}]},"count":0}]}]},"request":{"method":"PUT","url":"MeasureReport/38ce1138-4836-434a-b6e4-ebf9a31d103f"}}]}