{
  "resourceType": "Bundle",
  "id": "NUMERPass-KCCQDomain180Days",
  "type": "transaction",
  "entry": [ {
    "fullUrl": "https://madie.cms.gov/Patient/ab9cb197-3c30-48f9-ba83-a921641a4501",
    "resource": {
      "resourceType": "Patient",
      "id": "ab9cb197-3c30-48f9-ba83-a921641a4501",
      "meta": {
        "profile": [ "http://hl7.org/fhir/us/qicore/StructureDefinition/qicore-patient" ]
      },
      "extension": [ {
        "url": "http://hl7.org/fhir/us/core/StructureDefinition/us-core-race",
        "extension": [ {
          "url": "ombCategory",
          "valueCoding": {
            "system": "urn:oid:2.16.840.1.113883.6.238",
            "code": "2028-9",
            "display": "Asian"
          }
        }, {
          "url": "text",
          "valueString": "Asian"
        } ]
      }, {
        "url": "http://hl7.org/fhir/us/core/StructureDefinition/us-core-ethnicity",
        "extension": [ {
          "url": "ombCategory",
          "valueCoding": {
            "system": "urn:oid:2.16.840.1.113883.6.238",
            "code": "2135-2",
            "display": "Hispanic or Latino"
          }
        }, {
          "url": "text",
          "valueString": "Hispanic or Latino"
        } ]
      } ],
      "identifier": [ {
        "system": "http://hospital.smarthealthit.org",
        "value": "999999995"
      } ],
      "name": [ {
        "family": "Bertha",
        "given": [ "Betty" ]
      } ],
      "gender": "female",
      "birthDate": "2007-01-01"
    },
    "request": {
      "method": "POST",
      "url": "Patient/ab9cb197-3c30-48f9-ba83-a921641a4501"
    }
  }, {
    "fullUrl": "https://madie.cms.gov/Encounter/Encounter-49",
    "resource": {
      "resourceType": "Encounter",
      "id": "Encounter-49",
      "meta": {
        "profile": [ "http://hl7.org/fhir/us/qicore/StructureDefinition/qicore-encounter" ]
      },
      "status": "finished",
      "class": {
        "system": "http://terminology.hl7.org/CodeSystem/v3-ActCode",
        "code": "AMB",
        "display": "ambulatory"
      },
      "type": [ {
        "coding": [ {
          "system": "http://snomed.info/sct",
          "code": "185317003",
          "display": "Telephone encounter (procedure)"
        } ]
      } ],
      "subject": {
        "reference": "Patient/ab9cb197-3c30-48f9-ba83-a921641a4501"
      },
      "period": {
        "start": "2025-01-01T01:00:00.000Z",
        "end": "2025-01-01T01:15:00.000Z"
      }
    },
    "request": {
      "method": "POST",
      "url": "Encounter/Encounter-49"
    }
  }, {
    "fullUrl": "https://madie.cms.gov/Encounter/Encounter-50",
    "resource": {
      "resourceType": "Encounter",
      "id": "Encounter-50",
      "meta": {
        "profile": [ "http://hl7.org/fhir/us/qicore/StructureDefinition/qicore-encounter" ]
      },
      "status": "finished",
      "class": {
        "system": "http://terminology.hl7.org/CodeSystem/v3-ActCode",
        "code": "AMB",
        "display": "ambulatory"
      },
      "type": [ {
        "coding": [ {
          "system": "http://snomed.info/sct",
          "code": "185317003",
          "display": "Telephone encounter (procedure)"
        } ]
      } ],
      "subject": {
        "reference": "Patient/ab9cb197-3c30-48f9-ba83-a921641a4501"
      },
      "period": {
        "start": "2025-01-02T01:00:00.000Z",
        "end": "2025-01-02T01:15:00.000Z"
      }
    },
    "request": {
      "method": "POST",
      "url": "Encounter/Encounter-50"
    }
  }, {
    "fullUrl": "https://madie.cms.gov/Condition/Condition-22",
    "resource": {
      "resourceType": "Condition",
      "id": "Condition-22",
      "meta": {
        "profile": [ "http://hl7.org/fhir/us/qicore/StructureDefinition/qicore-condition" ]
      },
      "clinicalStatus": {
        "coding": [ {
          "system": "http://terminology.hl7.org/CodeSystem/condition-clinical",
          "code": "active"
        } ]
      },
      "category": [ {
        "coding": [ {
          "system": "http://terminology.hl7.org/CodeSystem/condition-category",
          "code": "problem-list-item",
          "display": "Problem List Item"
        } ]
      } ],
      "code": {
        "coding": [ {
          "system": "http://snomed.info/sct",
          "code": "10091002",
          "display": "High output heart failure (disorder)"
        } ]
      },
      "subject": {
        "reference": "Patient/ab9cb197-3c30-48f9-ba83-a921641a4501"
      },
      "onsetDateTime": "2024-12-31T23:59:00.000Z"
    },
    "request": {
      "method": "POST",
      "url": "Condition/Condition-22"
    }
  }, {
    "fullUrl": "https://madie.cms.gov/Observation/Observation-77",
    "resource": {
      "resourceType": "Observation",
      "id": "Observation-77",
      "meta": {
        "profile": [ "http://hl7.org/fhir/us/qicore/StructureDefinition/qicore-observation" ]
      },
      "status": "final",
      "category": [ {
        "coding": [ {
          "system": "http://terminology.hl7.org/CodeSystem/observation-category",
          "code": "survey",
          "display": "survey"
        } ],
        "text": "survey"
      } ],
      "code": {
        "coding": [ {
          "system": "http://loinc.org",
          "code": "72189-4",
          "display": "Quality of life score [KCCQ]"
        } ]
      },
      "subject": {
        "reference": "Patient/ab9cb197-3c30-48f9-ba83-a921641a4501"
      },
      "effectivePeriod": {
        "start": "2025-01-01T23:00:00.000Z",
        "end": "2025-01-01T23:59:00.000Z"
      },
      "valueInteger": 4
    },
    "request": {
      "method": "POST",
      "url": "Observation/Observation-77"
    }
  }, {
    "fullUrl": "https://madie.cms.gov/Observation/Observation-78",
    "resource": {
      "resourceType": "Observation",
      "id": "Observation-78",
      "meta": {
        "profile": [ "http://hl7.org/fhir/us/qicore/StructureDefinition/qicore-observation" ]
      },
      "status": "final",
      "category": [ {
        "coding": [ {
          "system": "http://terminology.hl7.org/CodeSystem/observation-category",
          "code": "survey",
          "display": "survey"
        } ],
        "text": "survey"
      } ],
      "code": {
        "coding": [ {
          "system": "http://loinc.org",
          "code": "72189-4",
          "display": "Quality of life score [KCCQ]"
        } ]
      },
      "subject": {
        "reference": "Patient/ab9cb197-3c30-48f9-ba83-a921641a4501"
      },
      "effectivePeriod": {
        "start": "2025-06-29T23:00:00.000Z",
        "end": "2025-06-29T23:59:00.000Z"
      },
      "valueInteger": 4
    },
    "request": {
      "method": "POST",
      "url": "Observation/Observation-78"
    }
  }, {
    "fullUrl": "https://madie.cms.gov/Observation/Observation-79",
    "resource": {
      "resourceType": "Observation",
      "id": "Observation-79",
      "meta": {
        "profile": [ "http://hl7.org/fhir/us/qicore/StructureDefinition/qicore-observation" ]
      },
      "status": "final",
      "category": [ {
        "coding": [ {
          "system": "http://terminology.hl7.org/CodeSystem/observation-category",
          "code": "survey",
          "display": "survey"
        } ],
        "text": "survey"
      } ],
      "code": {
        "coding": [ {
          "system": "http://loinc.org",
          "code": "72194-4",
          "display": "Symptom stability score [KCCQ]"
        } ]
      },
      "subject": {
        "reference": "Patient/ab9cb197-3c30-48f9-ba83-a921641a4501"
      },
      "effectivePeriod": {
        "start": "2025-01-01T23:00:00.000Z",
        "end": "2025-01-01T23:59:00.000Z"
      },
      "valueInteger": 4
    },
    "request": {
      "method": "POST",
      "url": "Observation/Observation-79"
    }
  }, {
    "fullUrl": "https://madie.cms.gov/Observation/Observation-80",
    "resource": {
      "resourceType": "Observation",
      "id": "Observation-80",
      "meta": {
        "profile": [ "http://hl7.org/fhir/us/qicore/StructureDefinition/qicore-observation" ]
      },
      "status": "final",
      "category": [ {
        "coding": [ {
          "system": "http://terminology.hl7.org/CodeSystem/observation-category",
          "code": "survey",
          "display": "survey"
        } ],
        "text": "survey"
      } ],
      "code": {
        "coding": [ {
          "system": "http://loinc.org",
          "code": "72194-4",
          "display": "Symptom stability score [KCCQ]"
        } ]
      },
      "subject": {
        "reference": "Patient/ab9cb197-3c30-48f9-ba83-a921641a4501"
      },
      "effectivePeriod": {
        "start": "2025-06-29T23:00:00.000Z",
        "end": "2025-06-29T23:59:00.000Z"
      },
      "valueInteger": 4
    },
    "request": {
      "method": "POST",
      "url": "Observation/Observation-80"
    }
  }, {
    "fullUrl": "https://madie.cms.gov/Observation/Observation-81",
    "resource": {
      "resourceType": "Observation",
      "id": "Observation-81",
      "meta": {
        "profile": [ "http://hl7.org/fhir/us/qicore/StructureDefinition/qicore-observation" ]
      },
      "status": "final",
      "category": [ {
        "coding": [ {
          "system": "http://terminology.hl7.org/CodeSystem/observation-category",
          "code": "survey",
          "display": "survey"
        } ],
        "text": "survey"
      } ],
      "code": {
        "coding": [ {
          "system": "http://loinc.org",
          "code": "72190-2",
          "display": "Self-efficacy score [KCCQ]"
        } ]
      },
      "subject": {
        "reference": "Patient/ab9cb197-3c30-48f9-ba83-a921641a4501"
      },
      "effectivePeriod": {
        "start": "2025-01-01T23:00:00.000Z",
        "end": "2025-01-01T23:59:00.000Z"
      },
      "valueInteger": 4
    },
    "request": {
      "method": "POST",
      "url": "Observation/Observation-81"
    }
  }, {
    "fullUrl": "https://madie.cms.gov/Observation/Observation-82",
    "resource": {
      "resourceType": "Observation",
      "id": "Observation-82",
      "meta": {
        "profile": [ "http://hl7.org/fhir/us/qicore/StructureDefinition/qicore-observation" ]
      },
      "status": "final",
      "category": [ {
        "coding": [ {
          "system": "http://terminology.hl7.org/CodeSystem/observation-category",
          "code": "survey",
          "display": "survey"
        } ],
        "text": "survey"
      } ],
      "code": {
        "coding": [ {
          "system": "http://loinc.org",
          "code": "72190-2",
          "display": "Self-efficacy score [KCCQ]"
        } ]
      },
      "subject": {
        "reference": "Patient/ab9cb197-3c30-48f9-ba83-a921641a4501"
      },
      "effectivePeriod": {
        "start": "2025-06-29T23:00:00.000Z",
        "end": "2025-06-29T23:59:00.000Z"
      },
      "valueInteger": 4
    },
    "request": {
      "method": "POST",
      "url": "Observation/Observation-82"
    }
  }, {
    "fullUrl": "https://madie.cms.gov/Observation/Observation-83",
    "resource": {
      "resourceType": "Observation",
      "id": "Observation-83",
      "meta": {
        "profile": [ "http://hl7.org/fhir/us/qicore/StructureDefinition/qicore-observation" ]
      },
      "status": "final",
      "category": [ {
        "coding": [ {
          "system": "http://terminology.hl7.org/CodeSystem/observation-category",
          "code": "survey",
          "display": "survey"
        } ],
        "text": "survey"
      } ],
      "code": {
        "coding": [ {
          "system": "http://loinc.org",
          "code": "72191-0",
          "display": "Total symptom score [KCCQ]"
        } ]
      },
      "subject": {
        "reference": "Patient/ab9cb197-3c30-48f9-ba83-a921641a4501"
      },
      "effectivePeriod": {
        "start": "2025-01-01T23:00:00.000Z",
        "end": "2025-01-01T23:59:00.000Z"
      },
      "valueInteger": 4
    },
    "request": {
      "method": "POST",
      "url": "Observation/Observation-83"
    }
  }, {
    "fullUrl": "https://madie.cms.gov/Observation/Observation-84",
    "resource": {
      "resourceType": "Observation",
      "id": "Observation-84",
      "meta": {
        "profile": [ "http://hl7.org/fhir/us/qicore/StructureDefinition/qicore-observation" ]
      },
      "status": "final",
      "category": [ {
        "coding": [ {
          "system": "http://terminology.hl7.org/CodeSystem/observation-category",
          "code": "survey",
          "display": "survey"
        } ],
        "text": "survey"
      } ],
      "code": {
        "coding": [ {
          "system": "http://loinc.org",
          "code": "72191-0",
          "display": "Total symptom score [KCCQ]"
        } ]
      },
      "subject": {
        "reference": "Patient/ab9cb197-3c30-48f9-ba83-a921641a4501"
      },
      "effectivePeriod": {
        "start": "2025-06-29T23:00:00.000Z",
        "end": "2025-06-29T23:59:00.000Z"
      },
      "valueInteger": 4
    },
    "request": {
      "method": "POST",
      "url": "Observation/Observation-84"
    }
  }, {
    "fullUrl": "https://madie.cms.gov/Observation/Observation-85",
    "resource": {
      "resourceType": "Observation",
      "id": "Observation-85",
      "meta": {
        "profile": [ "http://hl7.org/fhir/us/qicore/StructureDefinition/qicore-observation" ]
      },
      "status": "final",
      "category": [ {
        "coding": [ {
          "system": "http://terminology.hl7.org/CodeSystem/observation-category",
          "code": "survey",
          "display": "survey"
        } ],
        "text": "survey"
      } ],
      "code": {
        "coding": [ {
          "system": "http://loinc.org",
          "code": "72195-1",
          "display": "Physical limitation score [KCCQ]"
        } ]
      },
      "subject": {
        "reference": "Patient/ab9cb197-3c30-48f9-ba83-a921641a4501"
      },
      "effectivePeriod": {
        "start": "2025-01-01T23:00:00.000Z",
        "end": "2025-01-01T23:59:00.000Z"
      },
      "valueInteger": 4
    },
    "request": {
      "method": "POST",
      "url": "Observation/Observation-85"
    }
  }, {
    "fullUrl": "https://madie.cms.gov/Observation/Observation-86",
    "resource": {
      "resourceType": "Observation",
      "id": "Observation-86",
      "meta": {
        "profile": [ "http://hl7.org/fhir/us/qicore/StructureDefinition/qicore-observation" ]
      },
      "status": "final",
      "category": [ {
        "coding": [ {
          "system": "http://terminology.hl7.org/CodeSystem/observation-category",
          "code": "survey",
          "display": "survey"
        } ],
        "text": "survey"
      } ],
      "code": {
        "coding": [ {
          "system": "http://loinc.org",
          "code": "72195-1",
          "display": "Physical limitation score [KCCQ]"
        } ]
      },
      "subject": {
        "reference": "Patient/ab9cb197-3c30-48f9-ba83-a921641a4501"
      },
      "effectivePeriod": {
        "start": "2025-06-29T23:00:00.000Z",
        "end": "2025-06-29T23:59:00.000Z"
      },
      "valueInteger": 4
    },
    "request": {
      "method": "POST",
      "url": "Observation/Observation-86"
    }
  }, {
    "fullUrl": "https://madie.cms.gov/Observation/Observation-87",
    "resource": {
      "resourceType": "Observation",
      "id": "Observation-87",
      "meta": {
        "profile": [ "http://hl7.org/fhir/us/qicore/StructureDefinition/qicore-observation" ]
      },
      "status": "final",
      "category": [ {
        "coding": [ {
          "system": "http://terminology.hl7.org/CodeSystem/observation-category",
          "code": "survey",
          "display": "survey"
        } ],
        "text": "survey"
      } ],
      "code": {
        "coding": [ {
          "system": "http://loinc.org",
          "code": "72196-9",
          "display": "Social limitation score [KCCQ]"
        } ]
      },
      "subject": {
        "reference": "Patient/ab9cb197-3c30-48f9-ba83-a921641a4501"
      },
      "effectivePeriod": {
        "start": "2025-01-01T23:00:00.000Z",
        "end": "2025-01-01T23:59:00.000Z"
      },
      "valueInteger": 4
    },
    "request": {
      "method": "POST",
      "url": "Observation/Observation-87"
    }
  }, {
    "fullUrl": "https://madie.cms.gov/Observation/Observation-88",
    "resource": {
      "resourceType": "Observation",
      "id": "Observation-88",
      "meta": {
        "profile": [ "http://hl7.org/fhir/us/qicore/StructureDefinition/qicore-observation" ]
      },
      "status": "final",
      "category": [ {
        "coding": [ {
          "system": "http://terminology.hl7.org/CodeSystem/observation-category",
          "code": "survey",
          "display": "survey"
        } ],
        "text": "survey"
      } ],
      "code": {
        "coding": [ {
          "system": "http://loinc.org",
          "code": "72196-9",
          "display": "Social limitation score [KCCQ]"
        } ]
      },
      "subject": {
        "reference": "Patient/ab9cb197-3c30-48f9-ba83-a921641a4501"
      },
      "effectivePeriod": {
        "start": "2025-06-29T23:00:00.000Z",
        "end": "2025-06-29T23:59:00.000Z"
      },
      "valueInteger": 4
    },
    "request": {
      "method": "POST",
      "url": "Observation/Observation-88"
    }
  }, {
    "fullUrl": "https://madie.cms.gov/MeasureReport/85ac0a93-87d1-4781-8776-cea6b27f0868",
    "resource": {
      "resourceType": "MeasureReport",
      "id": "85ac0a93-87d1-4781-8776-cea6b27f0868",
      "meta": {
        "profile": [ "http://hl7.org/fhir/us/cqfmeasures/StructureDefinition/test-case-cqfm" ]
      },
      "contained": [ {
        "resourceType": "Parameters",
        "id": "f07247a7-c6cf-4262-b6fb-86022ffa6893-parameters",
        "parameter": [ {
          "name": "subject",
          "valueString": "ab9cb197-3c30-48f9-ba83-a921641a4501"
        } ]
      } ],
      "extension": [ {
        "url": "http://hl7.org/fhir/us/cqfmeasures/StructureDefinition/cqfm-inputParameters",
        "valueReference": {
          "reference": "#f07247a7-c6cf-4262-b6fb-86022ffa6893-parameters"
        }
      }, {
        "url": "http://hl7.org/fhir/us/cqfmeasures/StructureDefinition/cqfm-testCaseDescription",
        "valueMarkdown": "Patient has all KCCQ Domain assessments with results during the correct timeframe. Testing the 180 days boundary."
      } ],
      "modifierExtension": [ {
        "url": "http://hl7.org/fhir/us/cqfmeasures/StructureDefinition/cqfm-isTestCase",
        "valueBoolean": true
      } ],
      "status": "complete",
      "type": "individual",
      "measure": "https://madie.cms.gov/Measure/FunctionalStatusAssessmentsforHeartFailureFHIR",
      "period": {
        "start": "2025-01-01",
        "end": "2025-12-31"
      },
      "group": [ {
        "population": [ {
          "code": {
            "coding": [ {
              "system": "http://terminology.hl7.org/CodeSystem/measure-population",
              "code": "initial-population",
              "display": "Initial Population"
            } ]
          },
          "count": 1
        }, {
          "code": {
            "coding": [ {
              "system": "http://terminology.hl7.org/CodeSystem/measure-population",
              "code": "denominator",
              "display": "Denominator"
            } ]
          },
          "count": 1
        }, {
          "code": {
            "coding": [ {
              "system": "http://terminology.hl7.org/CodeSystem/measure-population",
              "code": "denominator-exclusion",
              "display": "Denominator Exclusion"
            } ]
          },
          "count": 0
        }, {
          "code": {
            "coding": [ {
              "system": "http://terminology.hl7.org/CodeSystem/measure-population",
              "code": "numerator",
              "display": "Numerator"
            } ]
          },
          "count": 1
        } ]
      } ],
      "evaluatedResource": [ {
        "reference": "https://madie.cms.gov/Patient/ab9cb197-3c30-48f9-ba83-a921641a4501"
      }, {
        "reference": "https://madie.cms.gov/Encounter/Encounter-49"
      }, {
        "reference": "https://madie.cms.gov/Encounter/Encounter-50"
      }, {
        "reference": "https://madie.cms.gov/Condition/Condition-22"
      }, {
        "reference": "https://madie.cms.gov/Observation/Observation-77"
      }, {
        "reference": "https://madie.cms.gov/Observation/Observation-78"
      }, {
        "reference": "https://madie.cms.gov/Observation/Observation-79"
      }, {
        "reference": "https://madie.cms.gov/Observation/Observation-80"
      }, {
        "reference": "https://madie.cms.gov/Observation/Observation-81"
      }, {
        "reference": "https://madie.cms.gov/Observation/Observation-82"
      }, {
        "reference": "https://madie.cms.gov/Observation/Observation-83"
      }, {
        "reference": "https://madie.cms.gov/Observation/Observation-84"
      }, {
        "reference": "https://madie.cms.gov/Observation/Observation-85"
      }, {
        "reference": "https://madie.cms.gov/Observation/Observation-86"
      }, {
        "reference": "https://madie.cms.gov/Observation/Observation-87"
      }, {
        "reference": "https://madie.cms.gov/Observation/Observation-88"
      } ]
    },
    "request": {
      "method": "POST",
      "url": "MeasureReport/85ac0a93-87d1-4781-8776-cea6b27f0868"
    }
  } ]
}