{
  "resourceType": "Bundle",
  "id": "NUMFail-Age29HPVTestDuringMP",
  "type": "transaction",
  "entry": [ {
    "fullUrl": "https://madie.cms.gov/Patient/1104f4a8-5328-4629-8b7f-77f7b2e62225",
    "resource": {
      "resourceType": "Patient",
      "id": "1104f4a8-5328-4629-8b7f-77f7b2e62225",
      "meta": {
        "profile": [ "http://hl7.org/fhir/us/qicore/StructureDefinition/qicore-patient" ]
      },
      "extension": [ {
        "url": "http://hl7.org/fhir/us/core/StructureDefinition/us-core-race",
        "extension": [ {
          "url": "ombCategory",
          "valueCoding": {
            "system": "urn:oid:2.16.840.1.113883.6.238",
            "code": "2028-9",
            "display": "Asian"
          }
        }, {
          "url": "text",
          "valueString": "Asian"
        } ]
      }, {
        "url": "http://hl7.org/fhir/us/core/StructureDefinition/us-core-ethnicity",
        "extension": [ {
          "url": "ombCategory",
          "valueCoding": {
            "system": "urn:oid:2.16.840.1.113883.6.238",
            "code": "2135-2",
            "display": "Hispanic or Latino"
          }
        }, {
          "url": "text",
          "valueString": "Hispanic or Latino"
        } ]
      } ],
      "identifier": [ {
        "system": "http://hospital.smarthealthit.org",
        "value": "999999995"
      } ],
      "name": [ {
        "family": "Bertha",
        "given": [ "Betty" ]
      } ],
      "gender": "female",
      "birthDate": "1996-01-01"
    },
    "request": {
      "method": "POST",
      "url": "Patient/1104f4a8-5328-4629-8b7f-77f7b2e62225"
    }
  }, {
    "fullUrl": "https://madie.cms.gov/Encounter/Encounter-18",
    "resource": {
      "resourceType": "Encounter",
      "id": "Encounter-18",
      "meta": {
        "profile": [ "http://hl7.org/fhir/us/qicore/StructureDefinition/qicore-encounter" ]
      },
      "status": "finished",
      "class": {
        "system": "http://terminology.hl7.org/CodeSystem/v3-ActCode",
        "code": "AMB",
        "display": "ambulatory"
      },
      "type": [ {
        "coding": [ {
          "system": "http://snomed.info/sct",
          "code": "185317003",
          "display": "Telephone encounter (procedure)"
        } ]
      } ],
      "subject": {
        "reference": "Patient/1104f4a8-5328-4629-8b7f-77f7b2e62225"
      },
      "period": {
        "start": "2025-01-01T01:00:00.000Z",
        "end": "2025-01-01T01:15:00.000Z"
      }
    },
    "request": {
      "method": "POST",
      "url": "Encounter/Encounter-18"
    }
  }, {
    "fullUrl": "https://madie.cms.gov/Observation/Observation-22",
    "resource": {
      "resourceType": "Observation",
      "id": "Observation-22",
      "meta": {
        "profile": [ "http://hl7.org/fhir/us/qicore/StructureDefinition/qicore-observation" ]
      },
      "status": "final",
      "category": [ {
        "coding": [ {
          "system": "http://terminology.hl7.org/CodeSystem/observation-category",
          "code": "laboratory",
          "display": "laboratory"
        } ],
        "text": "laboratory"
      } ],
      "code": {
        "coding": [ {
          "system": "http://loinc.org",
          "code": "21440-3",
          "display": "Human papilloma virus 16+18+31+33+35+45+51+52+56 DNA [Presence] in Cervix by Probe"
        } ]
      },
      "subject": {
        "reference": "Patient/1104f4a8-5328-4629-8b7f-77f7b2e62225"
      },
      "effectivePeriod": {
        "start": "2025-12-31T00:00:00.000Z",
        "end": "2025-12-31T01:00:00.000Z"
      },
      "valueInteger": 1
    },
    "request": {
      "method": "POST",
      "url": "Observation/Observation-22"
    }
  }, {
    "fullUrl": "https://madie.cms.gov/MeasureReport/d89b665f-e18a-437c-b7ec-f72d1a17080e",
    "resource": {
      "resourceType": "MeasureReport",
      "id": "d89b665f-e18a-437c-b7ec-f72d1a17080e",
      "meta": {
        "profile": [ "http://hl7.org/fhir/us/cqfmeasures/StructureDefinition/test-case-cqfm" ]
      },
      "contained": [ {
        "resourceType": "Parameters",
        "id": "3a87b9e0-7d15-4a59-88ad-24e9bdabefa2-parameters",
        "parameter": [ {
          "name": "subject",
          "valueString": "1104f4a8-5328-4629-8b7f-77f7b2e62225"
        } ]
      } ],
      "extension": [ {
        "url": "http://hl7.org/fhir/us/cqfmeasures/StructureDefinition/cqfm-inputParameters",
        "valueReference": {
          "reference": "#3a87b9e0-7d15-4a59-88ad-24e9bdabefa2-parameters"
        }
      }, {
        "url": "http://hl7.org/fhir/us/cqfmeasures/StructureDefinition/cqfm-testCaseDescription",
        "valueMarkdown": "Female 29 years old with HPV Test during MP"
      } ],
      "modifierExtension": [ {
        "url": "http://hl7.org/fhir/us/cqfmeasures/StructureDefinition/cqfm-isTestCase",
        "valueBoolean": true
      } ],
      "status": "complete",
      "type": "individual",
      "measure": "https://madie.cms.gov/Measure/CervicalCancerScreeningFHIR",
      "period": {
        "start": "2025-01-01",
        "end": "2025-12-31"
      },
      "group": [ {
        "population": [ {
          "code": {
            "coding": [ {
              "system": "http://terminology.hl7.org/CodeSystem/measure-population",
              "code": "initial-population",
              "display": "Initial Population"
            } ]
          },
          "count": 1
        }, {
          "code": {
            "coding": [ {
              "system": "http://terminology.hl7.org/CodeSystem/measure-population",
              "code": "denominator",
              "display": "Denominator"
            } ]
          },
          "count": 1
        }, {
          "code": {
            "coding": [ {
              "system": "http://terminology.hl7.org/CodeSystem/measure-population",
              "code": "denominator-exclusion",
              "display": "Denominator Exclusion"
            } ]
          },
          "count": 0
        }, {
          "code": {
            "coding": [ {
              "system": "http://terminology.hl7.org/CodeSystem/measure-population",
              "code": "numerator",
              "display": "Numerator"
            } ]
          },
          "count": 0
        } ]
      } ],
      "evaluatedResource": [ {
        "reference": "https://madie.cms.gov/Patient/1104f4a8-5328-4629-8b7f-77f7b2e62225"
      }, {
        "reference": "https://madie.cms.gov/Encounter/Encounter-18"
      }, {
        "reference": "https://madie.cms.gov/Observation/Observation-22"
      } ]
    },
    "request": {
      "method": "POST",
      "url": "MeasureReport/d89b665f-e18a-437c-b7ec-f72d1a17080e"
    }
  } ]
}