{"resourceType":"Bundle","id":"tests-69c40e81-479f-44cb-a2dd-ff3bbc9a8923-bundle","type":"transaction","entry":[{"fullUrl":"https://madie.cms.gov/Patient/69c40e81-479f-44cb-a2dd-ff3bbc9a8923","resource":{"resourceType":"Patient","id":"69c40e81-479f-44cb-a2dd-ff3bbc9a8923","meta":{"profile":["http://hl7.org/fhir/us/qicore/StructureDefinition/qicore-patient"]},"text":{"status":"generated","div":"<div xmlns=\"http://www.w3.org/1999/xhtml\"><div class=\"hapiHeaderText\">GT94Yrs <b>IPFAIL </b></div><table class=\"hapiPropertyTable\"><tbody><tr><td>Identifier</td><td>3e2cc83e5e4f5654bc788ad95fe65be8e90e99da3635326149b0cf67c8c316a9</td></tr><tr><td>Date of birth</td><td><span>21 June 1926</span></td></tr></tbody></table></div>"},"extension":[{"url":"http://hl7.org/fhir/us/core/StructureDefinition/us-core-race","extension":[{"url":"ombCategory","valueCoding":{"system":"urn:oid:2.16.840.1.113883.6.238","code":"1002-5","display":"American Indian or Alaska Native","userSelected":true}},{"url":"text","valueString":"American Indian or Alaska Native"}]},{"url":"http://hl7.org/fhir/us/core/StructureDefinition/us-core-ethnicity","extension":[{"url":"ombCategory","valueCoding":{"system":"urn:oid:2.16.840.1.113883.6.238","code":"2186-5","display":"Not Hispanic or Latino","userSelected":true}},{"url":"text","valueString":"Not Hispanic or Latino"}]}],"identifier":[{"type":{"coding":[{"system":"http://terminology.hl7.org/CodeSystem/v2-0203","code":"MR"}]},"system":"https://bonnie-fhir.healthit.gov/","value":"63ec0969ccb3770120fe9f0b"}],"active":true,"name":[{"use":"usual","family":"IPPass","given":["Age65DayOfEncounter"]}],"gender":"male","birthDate":"1960-07-01"},"request":{"method":"PUT","url":"Patient/69c40e81-479f-44cb-a2dd-ff3bbc9a8923"}},{"fullUrl":"https://madie.cms.gov/Encounter/5e3b30a5c043460000d12b32","resource":{"resourceType":"Encounter","id":"b2cdbd5d-ebe3-4146-a2a2-cee1ac305ef2","meta":{"profile":["http://hl7.org/fhir/us/qicore/StructureDefinition/qicore-encounter"]},"status":"finished","class":{"system":"http://terminology.hl7.org/CodeSystem/v3-ActCode","code":"IMP","display":"inpatient encounter","userSelected":true},"type":[{"coding":[{"system":"http://snomed.info/sct","code":"183452005"}]}],"subject":{"reference":"Patient/69c40e81-479f-44cb-a2dd-ff3bbc9a8923"},"period":{"start":"2025-07-01T08:00:00.000+00:00","end":"2025-07-03T08:15:00.000+00:00"},"length":{"value":2,"unit":"days"}},"request":{"method":"PUT","url":"Encounter/b2cdbd5d-ebe3-4146-a2a2-cee1ac305ef2"}},{"fullUrl":"https://madie.cms.gov/Coverage/5f996b62f654cc0000fe37fb","resource":{"resourceType":"Coverage","id":"ddcfeff3-9916-4e76-b7d8-1accb2e4739f","meta":{"profile":["http://hl7.org/fhir/us/qicore/StructureDefinition/qicore-coverage"]},"status":"active","type":{"coding":[{"system":"https://nahdo.org/sopt","version":"1.0.1","code":"1","display":"Medicare payer","userSelected":true}]},"beneficiary":{"reference":"Patient/69c40e81-479f-44cb-a2dd-ff3bbc9a8923"},"payor":[{"reference":"Organization/26111c91-b0e2-476c-a20b-e3f39799f8f5"}]},"request":{"method":"PUT","url":"Coverage/ddcfeff3-9916-4e76-b7d8-1accb2e4739f"}},{"fullUrl":"https://madie.cms.gov/Organization/123456","resource":{"resourceType":"Organization","id":"26111c91-b0e2-476c-a20b-e3f39799f8f5","meta":{"profile":["http://hl7.org/fhir/us/qicore/StructureDefinition/qicore-organization"]},"identifier":[{"use":"temp","system":"urn:oid:2.16.840.1.113883.4.4","value":"21-3259825"}],"active":true,"type":[{"coding":[{"system":"http://terminology.hl7.org/CodeSystem/organization-type","code":"pay","display":"Payer"}]}],"name":"Blue Cross Blue Shield of Texas","telecom":[{"system":"phone","value":"(+1) 972-766-6900"}],"address":[{"use":"billing","type":"postal","line":["P.O. Box 660044"],"city":"Dallas","state":"TX","postalCode":"75266-0044","country":"USA"}]},"request":{"method":"PUT","url":"Organization/26111c91-b0e2-476c-a20b-e3f39799f8f5"}},{"fullUrl":"https://madie.cms.gov/Practitioner/practitioner-123456","resource":{"resourceType":"Practitioner","id":"8d87015b-a41e-4a86-85b9-472db523add4","meta":{"profile":["http://hl7.org/fhir/us/qicore/StructureDefinition/qicore-practitioner"]},"identifier":[{"system":"http://hl7.org/fhir/sid/us-npi","value":"123456"}],"name":[{"family":"Evil","prefix":["Dr"]}]},"request":{"method":"PUT","url":"Practitioner/8d87015b-a41e-4a86-85b9-472db523add4"}},{"fullUrl":"https://madie.cms.gov/MeasureReport/85b9fe19-31b8-45b9-b5b6-571359cc246e","resource":{"resourceType":"MeasureReport","id":"85b9fe19-31b8-45b9-b5b6-571359cc246e","meta":{"profile":["http://hl7.org/fhir/us/cqfmeasures/StructureDefinition/test-case-cqfm"]},"contained":[{"resourceType":"Parameters","id":"35ee947a-fbdf-4851-8442-6b292c9ea4ce-parameters","parameter":[{"name":"subject","valueString":"69c40e81-479f-44cb-a2dd-ff3bbc9a8923"}]}],"extension":[{"url":"http://hl7.org/fhir/us/cqfmeasures/StructureDefinition/cqfm-inputParameters","valueReference":{"reference":"#35ee947a-fbdf-4851-8442-6b292c9ea4ce-parameters"}},{"url":"http://hl7.org/fhir/us/cqfmeasures/StructureDefinition/cqfm-testCaseDescription","valueMarkdown":"Encounter first day of MP (7/1), patient turned 65 this day and has Medicare."}],"modifierExtension":[{"url":"http://hl7.org/fhir/us/cqfmeasures/StructureDefinition/cqfm-isTestCase","valueBoolean":true}],"status":"complete","type":"individual","measure":"https://madie.cms.gov/Measure/HybridHospitalWideReadmissionFHIR","period":{"start":"2025-07-01","end":"2026-06-30"},"group":[{"population":[{"code":{"coding":[{"system":"http://terminology.hl7.org/CodeSystem/measure-population","code":"initial-population","display":"Initial Population"}]},"count":1}]}]},"request":{"method":"PUT","url":"MeasureReport/85b9fe19-31b8-45b9-b5b6-571359cc246e"}}]}