{
  "resourceType": "Bundle",
  "id": "62ec37fb11a78d0ca7dcb4b8",
  "type": "transaction",
  "entry": [ {
    "fullUrl": "https://madie.cms.gov/Patient/25702f88-2839-416a-9adf-e09e22f8a48c",
    "resource": {
      "resourceType": "Patient",
      "id": "25702f88-2839-416a-9adf-e09e22f8a48c",
      "meta": {
        "profile": [ "http://hl7.org/fhir/us/qicore/StructureDefinition/qicore-patient" ]
      },
      "extension": [ {
        "url": "http://hl7.org/fhir/us/core/StructureDefinition/us-core-race",
        "extension": [ {
          "url": "ombCategory",
          "valueCoding": {
            "system": "urn:oid:2.16.840.1.113883.6.238",
            "code": "1002-5",
            "display": "American Indian or Alaska Native",
            "userSelected": true
          }
        }, {
          "url": "text",
          "valueString": "American Indian or Alaska Native"
        } ]
      }, {
        "url": "http://hl7.org/fhir/us/core/StructureDefinition/us-core-ethnicity",
        "extension": [ {
          "url": "ombCategory",
          "valueCoding": {
            "system": "urn:oid:2.16.840.1.113883.6.238",
            "code": "2135-2",
            "display": "Hispanic or Latino",
            "userSelected": true
          }
        }, {
          "url": "text",
          "valueString": "Hispanic or Latino"
        } ]
      } ],
      "identifier": [ {
        "type": {
          "coding": [ {
            "system": "http://terminology.hl7.org/CodeSystem/v2-0203",
            "code": "MR"
          } ]
        },
        "system": "https://bonnie-fhir.healthit.gov/",
        "value": "62ec37fb11a78d0ca7dcb4b8"
      } ],
      "name": [ {
        "family": "DENEXCEPFail",
        "given": [ "MedNoDocStatusRejectedNoReason" ]
      } ],
      "gender": "unknown",
      "birthDate": "2007-01-01"
    },
    "request": {
      "method": "POST",
      "url": "Patient/25702f88-2839-416a-9adf-e09e22f8a48c"
    }
  }, {
    "fullUrl": "https://madie.cms.gov/Encounter/encounter-to-document-medications-a085",
    "resource": {
      "resourceType": "Encounter",
      "id": "encounter-to-document-medications-a085",
      "meta": {
        "profile": [ "http://hl7.org/fhir/us/qicore/StructureDefinition/qicore-encounter" ]
      },
      "status": "finished",
      "class": {
        "system": "http://terminology.hl7.org/CodeSystem/v3-ActCode",
        "code": "IMP",
        "display": "inpatient encounter"
      },
      "type": [ {
        "coding": [ {
          "system": "http://snomed.info/sct",
          "version": "2022-03",
          "code": "10197000",
          "display": "Psychiatric interview and evaluation (procedure)",
          "userSelected": true
        } ]
      } ],
      "subject": {
        "reference": "Patient/25702f88-2839-416a-9adf-e09e22f8a48c"
      },
      "period": {
        "start": "2025-08-04T08:00:00.000+00:00",
        "end": "2025-08-04T09:15:00.000+00:00"
      }
    },
    "request": {
      "method": "POST",
      "url": "Encounter/encounter-to-document-medications-a085"
    }
  }, {
    "fullUrl": "https://madie.cms.gov/Task/documentation-of-current-medications-procedure-a086",
    "resource": {
      "resourceType": "Task",
      "id": "documentation-of-current-medications-procedure-a086",
      "meta": {
        "profile": [ "http://hl7.org/fhir/us/qicore/StructureDefinition/qicore-tasknotdone" ]
      },
      "identifier": [ {
        "use": "official",
        "system": "http:/goodhealth.org/identifiers",
        "value": "20170201-002"
      } ],
      "status": "rejected",
      "statusReason": {
        "coding": [ {
          "system": "http://snomed.info/sct",
          "code": "183932001",
          "display": "Procedure contraindictated (situation)",
          "userSelected": true
        } ]
      },
      "intent": "proposal",
      "priority": "routine",
      "code": {
        "coding": [ {
          "system": "http://snomed.info/sct",
          "code": "428191000124101",
          "display": "Documentation of current medications (procedure)",
          "userSelected": true
        } ]
      },
      "focus": {
        "reference": "Patient/25702f88-2839-416a-9adf-e09e22f8a48c"
      },
      "for": {
        "reference": "Patient/25702f88-2839-416a-9adf-e09e22f8a48c"
      },
      "executionPeriod": {
        "start": "2025-08-01T08:45:00+10:00",
        "end": "2025-08-01T08:45:00.000+00:00"
      },
      "reasonCode": {
        "coding": [ {
          "system": "http://snomed.info/sct",
          "code": "0",
          "display": "No Reason",
          "userSelected": true
        } ]
      }
    },
    "request": {
      "method": "POST",
      "url": "Task/documentation-of-current-medications-procedure-a086"
    }
  }, {
    "fullUrl": "https://madie.cms.gov/MeasureReport/018692ec-a3bf-4783-98a4-13beddc8dace",
    "resource": {
      "resourceType": "MeasureReport",
      "id": "018692ec-a3bf-4783-98a4-13beddc8dace",
      "meta": {
        "profile": [ "http://hl7.org/fhir/us/cqfmeasures/StructureDefinition/test-case-cqfm" ]
      },
      "contained": [ {
        "resourceType": "Parameters",
        "id": "30c10118-0e2f-442f-b0e8-7d24949e773e-parameters",
        "parameter": [ {
          "name": "subject",
          "valueString": "25702f88-2839-416a-9adf-e09e22f8a48c"
        } ]
      } ],
      "extension": [ {
        "url": "http://hl7.org/fhir/us/cqfmeasures/StructureDefinition/cqfm-inputParameters",
        "valueReference": {
          "reference": "#30c10118-0e2f-442f-b0e8-7d24949e773e-parameters"
        }
      }, {
        "url": "http://hl7.org/fhir/us/cqfmeasures/StructureDefinition/cqfm-testCaseDescription",
        "valueMarkdown": "Qualifying encounter (status finished) during MP Medications not documented during encounter period status equal to rejected and No reason code"
      } ],
      "modifierExtension": [ {
        "url": "http://hl7.org/fhir/us/cqfmeasures/StructureDefinition/cqfm-isTestCase",
        "valueBoolean": true
      } ],
      "status": "complete",
      "type": "individual",
      "measure": "https://madie.cms.gov/Measure/DocumentationofCurrentMedicationsFHIR",
      "period": {
        "start": "2025-01-01",
        "end": "2025-12-31"
      },
      "group": [ {
        "population": [ {
          "code": {
            "coding": [ {
              "system": "http://terminology.hl7.org/CodeSystem/measure-population",
              "code": "initial-population",
              "display": "Initial Population"
            } ]
          },
          "count": 1
        }, {
          "code": {
            "coding": [ {
              "system": "http://terminology.hl7.org/CodeSystem/measure-population",
              "code": "denominator",
              "display": "Denominator"
            } ]
          },
          "count": 1
        }, {
          "code": {
            "coding": [ {
              "system": "http://terminology.hl7.org/CodeSystem/measure-population",
              "code": "numerator",
              "display": "Numerator"
            } ]
          },
          "count": 0
        }, {
          "code": {
            "coding": [ {
              "system": "http://terminology.hl7.org/CodeSystem/measure-population",
              "code": "denominator-exception",
              "display": "Denominator Exception"
            } ]
          },
          "count": 0
        } ]
      } ],
      "evaluatedResource": [ {
        "reference": "https://madie.cms.gov/Patient/25702f88-2839-416a-9adf-e09e22f8a48c"
      }, {
        "reference": "https://madie.cms.gov/Encounter/encounter-to-document-medications-a085"
      }, {
        "reference": "https://madie.cms.gov/Task/documentation-of-current-medications-procedure-a086"
      } ]
    },
    "request": {
      "method": "POST",
      "url": "MeasureReport/018692ec-a3bf-4783-98a4-13beddc8dace"
    }
  } ]
}