{"resourceType":"Bundle","id":"tests-006665cc-fce7-4e0a-9c13-b394fb41aee2-bundle","type":"transaction","entry":[{"fullUrl":"https://madie.cms.gov/Patient/006665cc-fce7-4e0a-9c13-b394fb41aee2","resource":{"resourceType":"Patient","id":"006665cc-fce7-4e0a-9c13-b394fb41aee2","meta":{"profile":["http://hl7.org/fhir/us/qicore/StructureDefinition/qicore-patient"]},"extension":[{"url":"http://hl7.org/fhir/us/core/StructureDefinition/us-core-race","extension":[{"url":"ombCategory","valueCoding":{"system":"urn:oid:2.16.840.1.113883.6.238","code":"2106-3","display":"White","userSelected":true}},{"url":"text","valueString":"White"}]},{"url":"http://hl7.org/fhir/us/core/StructureDefinition/us-core-ethnicity","extension":[{"url":"ombCategory","valueCoding":{"system":"urn:oid:2.16.840.1.113883.6.238","code":"2186-5","display":"Not Hispanic or Latino","userSelected":true}},{"url":"text","valueString":"Not Hispanic or Latino"}]}],"identifier":[{"type":{"coding":[{"system":"http://terminology.hl7.org/CodeSystem/v2-0203","code":"MR"}]},"system":"https://GoodHealthCare.healthit.com/","value":"6109658e98086b538055b9e4"}],"active":true,"name":[{"use":"usual","family":"IPPFail","given":["NoGlaucomaDx"]}],"gender":"male","birthDate":"2005-12-31"},"request":{"method":"PUT","url":"Patient/006665cc-fce7-4e0a-9c13-b394fb41aee2"}},{"fullUrl":"https://madie.cms.gov/Encounter/604287465c49a000003f51d4","resource":{"resourceType":"Encounter","id":"d858c16e-0d72-4e6b-803f-31023028012e","meta":{"profile":["http://hl7.org/fhir/us/qicore/StructureDefinition/qicore-encounter"]},"status":"finished","class":{"system":"http://terminology.hl7.org/CodeSystem/v3-ActCode","code":"AMB","display":"ambulatory","userSelected":true},"type":[{"coding":[{"system":"http://snomed.info/sct","code":"37894004"},{"system":"http://www.ama-assn.org/go/cpt","code":"99213","userSelected":true}]}],"subject":{"reference":"Patient/006665cc-fce7-4e0a-9c13-b394fb41aee2"},"period":{"start":"2025-03-05T08:00:00.000+00:00","end":"2025-03-05T08:30:00.000+00:00"}},"request":{"method":"PUT","url":"Encounter/d858c16e-0d72-4e6b-803f-31023028012e"}},{"fullUrl":"https://madie.cms.gov/MeasureReport/99eab185-d17e-4752-8d4c-fd1780480cd3","resource":{"resourceType":"MeasureReport","id":"99eab185-d17e-4752-8d4c-fd1780480cd3","meta":{"profile":["http://hl7.org/fhir/us/cqfmeasures/StructureDefinition/test-case-cqfm"]},"contained":[{"resourceType":"Parameters","id":"887ee610-a8f4-4d80-8cc5-2f0b339cbf13-parameters","parameter":[{"name":"subject","valueString":"006665cc-fce7-4e0a-9c13-b394fb41aee2"}]}],"extension":[{"url":"http://hl7.org/fhir/us/cqfmeasures/StructureDefinition/cqfm-inputParameters","valueReference":{"reference":"#887ee610-a8f4-4d80-8cc5-2f0b339cbf13-parameters"}},{"url":"http://hl7.org/fhir/us/cqfmeasures/StructureDefinition/cqfm-testCaseDescription","valueMarkdown":"Patient is missing glaucoma (POAG) diagnosis "}],"modifierExtension":[{"url":"http://hl7.org/fhir/us/cqfmeasures/StructureDefinition/cqfm-isTestCase","valueBoolean":true}],"status":"complete","type":"individual","measure":"https://madie.cms.gov/Measure/POAGOpticNerveEvaluationFHIR","period":{"start":"2025-01-01","end":"2025-12-31"},"group":[{"population":[{"code":{"coding":[{"system":"http://terminology.hl7.org/CodeSystem/measure-population","code":"initial-population","display":"Initial Population"}]},"count":0},{"code":{"coding":[{"system":"http://terminology.hl7.org/CodeSystem/measure-population","code":"denominator","display":"Denominator"}]},"count":0},{"code":{"coding":[{"system":"http://terminology.hl7.org/CodeSystem/measure-population","code":"numerator","display":"Numerator"}]},"count":0},{"code":{"coding":[{"system":"http://terminology.hl7.org/CodeSystem/measure-population","code":"denominator-exception","display":"Denominator Exception"}]},"count":0}]}]},"request":{"method":"PUT","url":"MeasureReport/99eab185-d17e-4752-8d4c-fd1780480cd3"}}]}