{"resourceType":"Bundle","id":"tests-2b101fed-53d1-44c8-b11a-792edd52228d-bundle","type":"transaction","entry":[{"fullUrl":"https://madie.cms.gov/Patient/2b101fed-53d1-44c8-b11a-792edd52228d","resource":{"resourceType":"Patient","id":"2b101fed-53d1-44c8-b11a-792edd52228d","meta":{"profile":["http://hl7.org/fhir/us/qicore/StructureDefinition/qicore-patient"]},"extension":[{"url":"http://hl7.org/fhir/us/core/StructureDefinition/us-core-race","extension":[{"url":"ombCategory","valueCoding":{"system":"urn:oid:2.16.840.1.113883.6.238","code":"2106-3","display":"White","userSelected":true}},{"url":"text","valueString":"White"}]},{"url":"http://hl7.org/fhir/us/core/StructureDefinition/us-core-ethnicity","extension":[{"url":"ombCategory","valueCoding":{"system":"urn:oid:2.16.840.1.113883.6.238","code":"2186-5","display":"Not Hispanic or Latino","userSelected":true}},{"url":"text","valueString":"Not Hispanic or Latino"}]}],"identifier":[{"type":{"coding":[{"system":"http://terminology.hl7.org/CodeSystem/v2-0203","code":"MR"}]},"system":"https://bonnie-fhir.healthit.gov/","value":"6109658e98086b538055b9e4"}],"active":true,"name":[{"use":"usual","family":"IPPass","given":["Age18DayBeforeMPEdge"]}],"gender":"male","birthDate":"2005-12-31"},"request":{"method":"PUT","url":"Patient/2b101fed-53d1-44c8-b11a-792edd52228d"}},{"fullUrl":"https://madie.cms.gov/Encounter/604287465c49a000003f51d4","resource":{"resourceType":"Encounter","id":"5a2d2d4e-35ca-4870-92b0-21df035179f9","meta":{"profile":["http://hl7.org/fhir/us/qicore/StructureDefinition/qicore-encounter"]},"status":"finished","class":{"system":"http://terminology.hl7.org/CodeSystem/v3-ActCode","code":"AMB","display":"ambulatory","userSelected":true},"type":[{"coding":[{"system":"http://www.ama-assn.org/go/cpt","code":"99309","userSelected":true}]}],"subject":{"reference":"Patient/2b101fed-53d1-44c8-b11a-792edd52228d"},"period":{"start":"2025-03-05T08:00:00.000+00:00","end":"2025-03-05T08:30:00.000+00:00"}},"request":{"method":"PUT","url":"Encounter/5a2d2d4e-35ca-4870-92b0-21df035179f9"}},{"fullUrl":"https://madie.cms.gov/Coverage/Coverage-1","resource":{"resourceType":"Coverage","id":"dc919dd4-ca75-4764-bc71-5e78def12612","meta":{"profile":["http://hl7.org/fhir/us/qicore/StructureDefinition/qicore-coverage"]},"identifier":[{"system":"http://benefitsinc.com/certificate","value":"12345"}],"status":"active","type":{"coding":[{"system":"https://nahdo.org/sopt","version":"9.2","code":"1","display":"MEDICARE","userSelected":true}]},"beneficiary":{"reference":"Patient/2b101fed-53d1-44c8-b11a-792edd52228d"},"period":{"start":"2025-01-28T08:00:00.000+00:00","end":"2025-12-28T00:15:00.000+00:00"},"payor":[{"reference":"Organization/4b5a882f-1f43-485c-85c6-f5ad2337d5b1"}]},"request":{"method":"PUT","url":"Coverage/dc919dd4-ca75-4764-bc71-5e78def12612"}},{"fullUrl":"https://madie.cms.gov/Condition/6000320042","resource":{"resourceType":"Condition","id":"949a46d4-29b0-4863-a66b-df84dfae379e","meta":{"profile":["http://hl7.org/fhir/us/qicore/StructureDefinition/qicore-condition"]},"clinicalStatus":{"coding":[{"system":"http://terminology.hl7.org/CodeSystem/condition-clinical","code":"active","display":"active","userSelected":true}]},"category":[{"coding":[{"system":"http://terminology.hl7.org/CodeSystem/condition-category","code":"problem-list-item","display":"problem-list-item","userSelected":true}]}],"code":{"coding":[{"system":"http://hl7.org/fhir/sid/icd-10-cm","code":"H40.10X0"}]},"subject":{"reference":"Patient/2b101fed-53d1-44c8-b11a-792edd52228d"},"onsetDateTime":"2023-09-14T08:00:00.000+00:00"},"request":{"method":"PUT","url":"Condition/949a46d4-29b0-4863-a66b-df84dfae379e"}},{"fullUrl":"https://madie.cms.gov/MeasureReport/bb7560df-aada-45d1-8947-90b36606730e","resource":{"resourceType":"MeasureReport","id":"bb7560df-aada-45d1-8947-90b36606730e","meta":{"profile":["http://hl7.org/fhir/us/cqfmeasures/StructureDefinition/test-case-cqfm"]},"contained":[{"resourceType":"Parameters","id":"a94b314f-4752-4c84-8b15-cada39f661b2-parameters","parameter":[{"name":"subject","valueString":"2b101fed-53d1-44c8-b11a-792edd52228d"}]}],"extension":[{"url":"http://hl7.org/fhir/us/cqfmeasures/StructureDefinition/cqfm-inputParameters","valueReference":{"reference":"#a94b314f-4752-4c84-8b15-cada39f661b2-parameters"}},{"url":"http://hl7.org/fhir/us/cqfmeasures/StructureDefinition/cqfm-testCaseDescription","valueMarkdown":"Patient turns 18 on the day before the start of the MP with POAG Diagnosis starting before MP (but not ending)"}],"modifierExtension":[{"url":"http://hl7.org/fhir/us/cqfmeasures/StructureDefinition/cqfm-isTestCase","valueBoolean":true}],"status":"complete","type":"individual","measure":"https://madie.cms.gov/Measure/POAGOpticNerveEvaluationFHIR","period":{"start":"2025-01-01","end":"2025-12-31"},"group":[{"population":[{"code":{"coding":[{"system":"http://terminology.hl7.org/CodeSystem/measure-population","code":"initial-population","display":"Initial Population"}]},"count":1},{"code":{"coding":[{"system":"http://terminology.hl7.org/CodeSystem/measure-population","code":"denominator","display":"Denominator"}]},"count":1},{"code":{"coding":[{"system":"http://terminology.hl7.org/CodeSystem/measure-population","code":"denominator-exception","display":"Denominator Exception"}]},"count":0},{"code":{"coding":[{"system":"http://terminology.hl7.org/CodeSystem/measure-population","code":"numerator","display":"Numerator"}]},"count":0}]}]},"request":{"method":"PUT","url":"MeasureReport/bb7560df-aada-45d1-8947-90b36606730e"}}]}