{"resourceType":"Bundle","id":"tests-1ea6ee4a-bfb0-44ec-8a94-5f0035c81c9e-bundle","type":"transaction","entry":[{"fullUrl":"https://madie.cms.gov/Patient/1ea6ee4a-bfb0-44ec-8a94-5f0035c81c9e","resource":{"resourceType":"Patient","id":"1ea6ee4a-bfb0-44ec-8a94-5f0035c81c9e","meta":{"profile":["http://hl7.org/fhir/us/qicore/StructureDefinition/qicore-patient"]},"extension":[{"url":"http://hl7.org/fhir/us/core/StructureDefinition/us-core-race","extension":[{"url":"ombCategory","valueCoding":{"system":"urn:oid:2.16.840.1.113883.6.238","code":"2106-3","display":"White","userSelected":true}},{"url":"text","valueString":"White"}]},{"url":"http://hl7.org/fhir/us/core/StructureDefinition/us-core-ethnicity","extension":[{"url":"ombCategory","valueCoding":{"system":"urn:oid:2.16.840.1.113883.6.238","code":"2186-5","display":"Not Hispanic or Latino","userSelected":true}},{"url":"text","valueString":"Not Hispanic or Latino"}]}],"identifier":[{"type":{"coding":[{"system":"http://terminology.hl7.org/CodeSystem/v2-0203","code":"MR"}]},"system":"https://bonnie-fhir.healthit.gov/","value":"6109658e98086b538055b9e4"}],"active":true,"name":[{"use":"usual","family":"IPPass","given":["CareServInLTRF Enc"]}],"gender":"male","birthDate":"2005-12-31"},"request":{"method":"PUT","url":"Patient/1ea6ee4a-bfb0-44ec-8a94-5f0035c81c9e"}},{"fullUrl":"https://madie.cms.gov/Encounter/care-services-in-long-term-residential-facility-8695","resource":{"resourceType":"Encounter","id":"96bce705-fe6a-4a7a-918d-1c0583ef1056","meta":{"profile":["http://hl7.org/fhir/us/qicore/StructureDefinition/qicore-encounter"]},"status":"finished","class":{"system":"http://terminology.hl7.org/CodeSystem/v3-ActCode","code":"AMB","display":"ambulatory","userSelected":true},"type":[{"coding":[{"system":"http://snomed.info/sct","code":"37894004"},{"system":"http://www.ama-assn.org/go/cpt","code":"99213","userSelected":true}]}],"subject":{"reference":"Patient/1ea6ee4a-bfb0-44ec-8a94-5f0035c81c9e"},"period":{"start":"2025-03-05T08:00:00.000+00:00","end":"2025-03-05T08:30:00.000+00:00"}},"request":{"method":"PUT","url":"Encounter/96bce705-fe6a-4a7a-918d-1c0583ef1056"}},{"fullUrl":"https://madie.cms.gov/Condition/6000320042","resource":{"resourceType":"Condition","id":"a182b560-6be2-4b5a-a9e4-4b2b7208fced","meta":{"profile":["http://hl7.org/fhir/us/qicore/StructureDefinition/qicore-condition"]},"clinicalStatus":{"coding":[{"system":"http://terminology.hl7.org/CodeSystem/condition-clinical","code":"active","display":"active","userSelected":true}]},"category":[{"coding":[{"system":"http://terminology.hl7.org/CodeSystem/condition-category","code":"problem-list-item","display":"problem-list-item","userSelected":true}]}],"code":{"coding":[{"system":"http://hl7.org/fhir/sid/icd-10-cm","code":"H40.10X0"}]},"subject":{"reference":"Patient/1ea6ee4a-bfb0-44ec-8a94-5f0035c81c9e"},"onsetDateTime":"2023-09-14T08:00:00.000+00:00"},"request":{"method":"PUT","url":"Condition/a182b560-6be2-4b5a-a9e4-4b2b7208fced"}},{"fullUrl":"https://madie.cms.gov/MeasureReport/57d9048c-8dcb-479d-bc9c-21d00fb8dbda","resource":{"resourceType":"MeasureReport","id":"57d9048c-8dcb-479d-bc9c-21d00fb8dbda","meta":{"profile":["http://hl7.org/fhir/us/cqfmeasures/StructureDefinition/test-case-cqfm"]},"contained":[{"resourceType":"Parameters","id":"db48767d-edef-413a-ad15-79140c1c53db-parameters","parameter":[{"name":"subject","valueString":"1ea6ee4a-bfb0-44ec-8a94-5f0035c81c9e"}]}],"extension":[{"url":"http://hl7.org/fhir/us/cqfmeasures/StructureDefinition/cqfm-inputParameters","valueReference":{"reference":"#db48767d-edef-413a-ad15-79140c1c53db-parameters"}},{"url":"http://hl7.org/fhir/us/cqfmeasures/StructureDefinition/cqfm-testCaseDescription","valueMarkdown":"Patient turns 18 on the day before the start of the MP with Dx starting before MP; Encounter: Care Services in Long Term Residential Facility"}],"modifierExtension":[{"url":"http://hl7.org/fhir/us/cqfmeasures/StructureDefinition/cqfm-isTestCase","valueBoolean":true}],"status":"complete","type":"individual","measure":"https://madie.cms.gov/Measure/POAGOpticNerveEvaluationFHIR","period":{"start":"2025-01-01","end":"2025-12-31"},"group":[{"population":[{"code":{"coding":[{"system":"http://terminology.hl7.org/CodeSystem/measure-population","code":"initial-population","display":"Initial Population"}]},"count":1},{"code":{"coding":[{"system":"http://terminology.hl7.org/CodeSystem/measure-population","code":"denominator","display":"Denominator"}]},"count":1},{"code":{"coding":[{"system":"http://terminology.hl7.org/CodeSystem/measure-population","code":"numerator","display":"Numerator"}]},"count":0},{"code":{"coding":[{"system":"http://terminology.hl7.org/CodeSystem/measure-population","code":"denominator-exception","display":"Denominator Exception"}]},"count":0}]}]},"request":{"method":"PUT","url":"MeasureReport/57d9048c-8dcb-479d-bc9c-21d00fb8dbda"}}]}