{"resourceType":"Bundle","id":"tests-20d535da-db77-47c2-bc50-d36ed8a29270-bundle","type":"transaction","entry":[{"fullUrl":"https://madie.cms.gov/Patient/20d535da-db77-47c2-bc50-d36ed8a29270","resource":{"resourceType":"Patient","id":"20d535da-db77-47c2-bc50-d36ed8a29270","meta":{"profile":["http://hl7.org/fhir/us/qicore/StructureDefinition/qicore-patient"]},"extension":[{"url":"http://hl7.org/fhir/us/core/StructureDefinition/us-core-race","extension":[{"url":"ombCategory","valueCoding":{"system":"urn:oid:2.16.840.1.113883.6.238","code":"2106-3","display":"White","userSelected":true}},{"url":"text","valueString":"White"}]},{"url":"http://hl7.org/fhir/us/core/StructureDefinition/us-core-ethnicity","extension":[{"url":"ombCategory","valueCoding":{"system":"urn:oid:2.16.840.1.113883.6.238","code":"2186-5","display":"Not Hispanic or Latino","userSelected":true}},{"url":"text","valueString":"Not Hispanic or Latino"}]}],"identifier":[{"type":{"coding":[{"system":"http://terminology.hl7.org/CodeSystem/v2-0203","code":"MR"}]},"system":"https://bonnie-fhir.healthit.gov/","value":"6109658e98086b538055b9db"}],"active":true,"name":[{"use":"usual","family":"IPPFail","given":["PatientLT18atMPEdge"]}],"gender":"male","birthDate":"2007-01-02"},"request":{"method":"PUT","url":"Patient/20d535da-db77-47c2-bc50-d36ed8a29270"}},{"fullUrl":"https://madie.cms.gov/Condition/5c9a433bb8484623838502b4","resource":{"resourceType":"Condition","id":"720c1bb6-3336-40c7-8e7f-34c627ca60f4","meta":{"profile":["http://hl7.org/fhir/us/qicore/StructureDefinition/qicore-condition"]},"clinicalStatus":{"coding":[{"system":"http://terminology.hl7.org/CodeSystem/condition-clinical","code":"active","display":"active","userSelected":true}]},"category":[{"coding":[{"system":"http://terminology.hl7.org/CodeSystem/condition-category","code":"encounter-diagnosis","display":"Encounter Diagnosis","userSelected":true}]}],"code":{"coding":[{"system":"http://hl7.org/fhir/sid/icd-10-cm","code":"H40.10X0"}]},"subject":{"reference":"Patient/20d535da-db77-47c2-bc50-d36ed8a29270"},"onsetDateTime":"2012-08-27T13:00:00+00:00"},"request":{"method":"PUT","url":"Condition/720c1bb6-3336-40c7-8e7f-34c627ca60f4"}},{"fullUrl":"https://madie.cms.gov/Observation/5c9a433bb8484623838502b6","resource":{"resourceType":"Observation","id":"30e52d8e-1ba4-4cda-ab61-3df0432cb9a1","meta":{"profile":["http://hl7.org/fhir/us/qicore/StructureDefinition/qicore-observation"]},"status":"final","category":[{"coding":[{"system":"http://terminology.hl7.org/CodeSystem/observation-category","code":"laboratory","display":"Laboratory","userSelected":true}]}],"code":{"coding":[{"system":"http://loinc.org","code":"71487-3"}]},"subject":{"reference":"Patient/20d535da-db77-47c2-bc50-d36ed8a29270"},"effectivePeriod":{"start":"2025-08-27T13:00:00.000+00:00","end":"2025-08-27T13:15:00.000+00:00"},"valueString":"Documented, progressive thinning of the neuroretinal rim with an associated increase in cupping of the optic disc"},"request":{"method":"PUT","url":"Observation/30e52d8e-1ba4-4cda-ab61-3df0432cb9a1"}},{"fullUrl":"https://madie.cms.gov/Observation/5c9a433bb8484623838502b8","resource":{"resourceType":"Observation","id":"2dc7c8c0-3703-46d8-98c3-bc2d12195888","meta":{"profile":["http://hl7.org/fhir/us/qicore/StructureDefinition/qicore-observationnotdone"]},"extension":[{"url":"http://hl7.org/fhir/us/qicore/StructureDefinition/qicore-notDoneReason","valueCodeableConcept":{"coding":[{"system":"http://snomed.info/sct","version":"http://snomed.info/sct/731000124108/version/202303","code":"410536001","display":"Contraindicated (qualifier value)"}]}}],"status":"cancelled","category":[{"coding":[{"system":"http://snomed.info/sct","version":"http://snomed.info/sct/731000124108/version/202303","code":"428119001","display":"Procedure not indicated (situation)","userSelected":true}]}],"code":{"coding":[{"system":"http://loinc.org","version":"2.73","code":"71487-3"}]},"subject":{"reference":"Patient/20d535da-db77-47c2-bc50-d36ed8a29270"},"effectiveDateTime":"2025-08-27T13:00:00.000+00:00","issued":"2025-08-27T13:00:00.000+00:00"},"request":{"method":"PUT","url":"Observation/2dc7c8c0-3703-46d8-98c3-bc2d12195888"}},{"fullUrl":"https://madie.cms.gov/Encounter/5c9a433bb8484623838502b5","resource":{"resourceType":"Encounter","id":"cbe3c935-8689-4256-b984-edae09fa66d6","meta":{"profile":["http://hl7.org/fhir/us/qicore/StructureDefinition/qicore-encounter"]},"status":"finished","class":{"system":"http://terminology.hl7.org/CodeSystem/v3-ActCode","code":"AMB","display":"ambulatory","userSelected":true},"type":[{"coding":[{"system":"http://www.ama-assn.org/go/cpt","code":"92002"}]}],"subject":{"reference":"Patient/20d535da-db77-47c2-bc50-d36ed8a29270"},"period":{"start":"2025-08-27T12:40:00.000+00:00","end":"2025-08-27T13:40:00.000+00:00"},"length":{"value":0.0,"unit":"days"}},"request":{"method":"PUT","url":"Encounter/cbe3c935-8689-4256-b984-edae09fa66d6"}},{"fullUrl":"https://madie.cms.gov/MeasureReport/043a4d94-4366-4c7c-a0d3-2b6ae815f03c","resource":{"resourceType":"MeasureReport","id":"043a4d94-4366-4c7c-a0d3-2b6ae815f03c","meta":{"profile":["http://hl7.org/fhir/us/cqfmeasures/StructureDefinition/test-case-cqfm"]},"contained":[{"resourceType":"Parameters","id":"4d4a12e3-cadc-4746-98b4-dcf62e35da22-parameters","parameter":[{"name":"subject","valueString":"20d535da-db77-47c2-bc50-d36ed8a29270"}]}],"extension":[{"url":"http://hl7.org/fhir/us/cqfmeasures/StructureDefinition/cqfm-inputParameters","valueReference":{"reference":"#4d4a12e3-cadc-4746-98b4-dcf62e35da22-parameters"}},{"url":"http://hl7.org/fhir/us/cqfmeasures/StructureDefinition/cqfm-testCaseDescription","valueMarkdown":"Patient fails IPP/Denom due to age being 17 years 11 months and 30 days old  at start of MP"}],"modifierExtension":[{"url":"http://hl7.org/fhir/us/cqfmeasures/StructureDefinition/cqfm-isTestCase","valueBoolean":true}],"status":"complete","type":"individual","measure":"https://madie.cms.gov/Measure/POAGOpticNerveEvaluationFHIR","period":{"start":"2025-01-01","end":"2025-12-31"},"group":[{"population":[{"code":{"coding":[{"system":"http://terminology.hl7.org/CodeSystem/measure-population","code":"initial-population","display":"Initial Population"}]},"count":0},{"code":{"coding":[{"system":"http://terminology.hl7.org/CodeSystem/measure-population","code":"denominator","display":"Denominator"}]},"count":0},{"code":{"coding":[{"system":"http://terminology.hl7.org/CodeSystem/measure-population","code":"denominator-exception","display":"Denominator Exception"}]},"count":0},{"code":{"coding":[{"system":"http://terminology.hl7.org/CodeSystem/measure-population","code":"numerator","display":"Numerator"}]},"count":0}]}]},"request":{"method":"PUT","url":"MeasureReport/043a4d94-4366-4c7c-a0d3-2b6ae815f03c"}}]}