{"resourceType":"Bundle","id":"tests-901324d3-abcb-44c1-97af-7fb226ea1985-bundle","type":"transaction","entry":[{"fullUrl":"https://madie.cms.gov/Patient/901324d3-abcb-44c1-97af-7fb226ea1985","resource":{"resourceType":"Patient","id":"901324d3-abcb-44c1-97af-7fb226ea1985","meta":{"profile":["http://hl7.org/fhir/us/qicore/StructureDefinition/qicore-patient"]},"extension":[{"url":"http://hl7.org/fhir/us/core/StructureDefinition/us-core-race","extension":[{"url":"ombCategory","valueCoding":{"system":"urn:oid:2.16.840.1.113883.6.238","code":"2028-9","display":"Asian","userSelected":true}},{"url":"text","valueString":"Asian"}]},{"url":"http://hl7.org/fhir/us/core/StructureDefinition/us-core-ethnicity","extension":[{"url":"ombCategory","valueCoding":{"system":"urn:oid:2.16.840.1.113883.6.238","code":"2186-5","display":"Not Hispanic or Latino","userSelected":true}},{"url":"text","valueString":"Not Hispanic or Latino"}]}],"identifier":[{"type":{"coding":[{"system":"http://terminology.hl7.org/CodeSystem/v2-0203","code":"MR"}]},"system":"https://bonnie-fhir.healthit.gov/","value":"6109658e98086b538055b9e4"}],"active":true,"name":[{"use":"usual","family":"IPPPass","given":["GlaucomaDxOverlapsEncEdge"]}],"gender":"female","birthDate":"1983-03-31"},"request":{"method":"PUT","url":"Patient/901324d3-abcb-44c1-97af-7fb226ea1985"}},{"fullUrl":"https://madie.cms.gov/Encounter/604287465c49a000003f51d4","resource":{"resourceType":"Encounter","id":"d68006a0-018c-4af8-857c-6a9276b3ea13","meta":{"profile":["http://hl7.org/fhir/us/qicore/StructureDefinition/qicore-encounter"]},"status":"finished","class":{"system":"http://terminology.hl7.org/CodeSystem/v3-ActCode","code":"AMB","display":"ambulatory","userSelected":true},"type":[{"coding":[{"system":"http://www.ama-assn.org/go/cpt","version":"2023","code":"99213","userSelected":true}]}],"subject":{"reference":"Patient/901324d3-abcb-44c1-97af-7fb226ea1985"},"period":{"start":"2025-03-05T08:00:00.000+00:00","end":"2025-03-05T08:30:00.000+00:00"}},"request":{"method":"PUT","url":"Encounter/d68006a0-018c-4af8-857c-6a9276b3ea13"}},{"fullUrl":"https://madie.cms.gov/Condition/6420002306","resource":{"resourceType":"Condition","id":"18819d9f-4f70-435e-b064-e5071fdb3788","meta":{"profile":["http://hl7.org/fhir/us/qicore/StructureDefinition/qicore-condition"]},"clinicalStatus":{"coding":[{"system":"http://terminology.hl7.org/CodeSystem/condition-clinical","code":"active"}]},"category":[{"coding":[{"system":"http://terminology.hl7.org/CodeSystem/condition-category","code":"problem-list-item","display":"problem-list-item","userSelected":true}]}],"code":{"coding":[{"system":"http://hl7.org/fhir/sid/icd-10-cm","version":"2023","code":"H40.10X0"}]},"subject":{"reference":"Patient/901324d3-abcb-44c1-97af-7fb226ea1985"},"onsetDateTime":"2025-03-05T07:59:00.000+00:00"},"request":{"method":"PUT","url":"Condition/18819d9f-4f70-435e-b064-e5071fdb3788"}},{"fullUrl":"https://madie.cms.gov/MeasureReport/e44a3adc-9c98-44bb-bc2a-944cc0efd144","resource":{"resourceType":"MeasureReport","id":"e44a3adc-9c98-44bb-bc2a-944cc0efd144","meta":{"profile":["http://hl7.org/fhir/us/cqfmeasures/StructureDefinition/test-case-cqfm"]},"contained":[{"resourceType":"Parameters","id":"afb2faca-55f1-4be4-a475-4559ec2c9276-parameters","parameter":[{"name":"subject","valueString":"901324d3-abcb-44c1-97af-7fb226ea1985"}]}],"extension":[{"url":"http://hl7.org/fhir/us/cqfmeasures/StructureDefinition/cqfm-inputParameters","valueReference":{"reference":"#afb2faca-55f1-4be4-a475-4559ec2c9276-parameters"}},{"url":"http://hl7.org/fhir/us/cqfmeasures/StructureDefinition/cqfm-testCaseDescription","valueMarkdown":"POAG diagnosis overlaps Encounter one minute before start of Qualifying Encounter period"}],"modifierExtension":[{"url":"http://hl7.org/fhir/us/cqfmeasures/StructureDefinition/cqfm-isTestCase","valueBoolean":true}],"status":"complete","type":"individual","measure":"https://madie.cms.gov/Measure/POAGOpticNerveEvaluationFHIR","period":{"start":"2025-01-01","end":"2025-12-31"},"group":[{"population":[{"code":{"coding":[{"system":"http://terminology.hl7.org/CodeSystem/measure-population","code":"initial-population","display":"Initial Population"}]},"count":1},{"code":{"coding":[{"system":"http://terminology.hl7.org/CodeSystem/measure-population","code":"denominator","display":"Denominator"}]},"count":1},{"code":{"coding":[{"system":"http://terminology.hl7.org/CodeSystem/measure-population","code":"denominator-exception","display":"Denominator Exception"}]},"count":0},{"code":{"coding":[{"system":"http://terminology.hl7.org/CodeSystem/measure-population","code":"numerator","display":"Numerator"}]},"count":0}]}]},"request":{"method":"PUT","url":"MeasureReport/e44a3adc-9c98-44bb-bc2a-944cc0efd144"}}]}