{"resourceType":"Bundle","id":"tests-37d4f1ee-3f65-4f68-ac6c-685cc093eaf1-bundle","type":"transaction","entry":[{"fullUrl":"https://madie.cms.gov/Patient/37d4f1ee-3f65-4f68-ac6c-685cc093eaf1","resource":{"resourceType":"Patient","id":"37d4f1ee-3f65-4f68-ac6c-685cc093eaf1","meta":{"profile":["http://hl7.org/fhir/us/qicore/StructureDefinition/qicore-patient"]},"extension":[{"url":"http://hl7.org/fhir/us/core/StructureDefinition/us-core-race","extension":[{"url":"ombCategory","valueCoding":{"system":"urn:oid:2.16.840.1.113883.6.238","code":"1002-5","display":"American Indian or Alaska Native","userSelected":true}},{"url":"text","valueString":"American Indian or Alaska Native"}]},{"url":"http://hl7.org/fhir/us/core/StructureDefinition/us-core-ethnicity","extension":[{"url":"ombCategory","valueCoding":{"system":"urn:oid:2.16.840.1.113883.6.238","code":"2186-5","display":"Not Hispanic or Latino","userSelected":true}},{"url":"text","valueString":"Not Hispanic or Latino"}]}],"identifier":[{"type":{"coding":[{"system":"http://terminology.hl7.org/CodeSystem/v2-0203","code":"MR"}]},"system":"https://bonnie-fhir.healthit.gov/","value":"6109658e98086b538055b9db"}],"active":true,"name":[{"use":"usual","family":"DENEXCEPFail","given":["NotPerformed4MedReasonGTEncEdge"]}],"gender":"female","birthDate":"1956-08-16"},"request":{"method":"PUT","url":"Patient/37d4f1ee-3f65-4f68-ac6c-685cc093eaf1"}},{"fullUrl":"https://madie.cms.gov/Condition/5c9a433bb8484623838502b4","resource":{"resourceType":"Condition","id":"abdf2606-3717-4122-baec-7f76c8db1d39","meta":{"profile":["http://hl7.org/fhir/us/qicore/StructureDefinition/qicore-condition"]},"clinicalStatus":{"coding":[{"system":"http://terminology.hl7.org/CodeSystem/condition-clinical","code":"active","display":"active","userSelected":true}]},"category":[{"coding":[{"system":"http://terminology.hl7.org/CodeSystem/condition-category","code":"encounter-diagnosis","display":"Encounter Diagnosis","userSelected":true}]}],"code":{"coding":[{"system":"http://hl7.org/fhir/sid/icd-10-cm","version":"2023","code":"H40.10X0"}]},"subject":{"reference":"Patient/37d4f1ee-3f65-4f68-ac6c-685cc093eaf1"},"onsetDateTime":"2012-08-27T13:00:00+00:00"},"request":{"method":"PUT","url":"Condition/abdf2606-3717-4122-baec-7f76c8db1d39"}},{"fullUrl":"https://madie.cms.gov/Observation/5c9a433bb8484623838502b6","resource":{"resourceType":"Observation","id":"f4aff011-9429-4270-b74a-a4faacc54133","meta":{"profile":["http://hl7.org/fhir/us/qicore/StructureDefinition/qicore-observation"]},"status":"final","category":[{"coding":[{"system":"http://terminology.hl7.org/CodeSystem/observation-category","code":"laboratory","display":"Laboratory","userSelected":true}]}],"code":{"coding":[{"system":"http://loinc.org","version":"2.73","code":"71487-3"}]},"subject":{"reference":"Patient/37d4f1ee-3f65-4f68-ac6c-685cc093eaf1"},"effectivePeriod":{"start":"2025-08-27T13:00:00.000+00:00","end":"2025-08-27T13:15:00.000+00:00"},"valueString":"Documented, progressive thinning of the neuroretinal rim with an associated increase in cupping of the optic disc"},"request":{"method":"PUT","url":"Observation/f4aff011-9429-4270-b74a-a4faacc54133"}},{"fullUrl":"https://madie.cms.gov/Observation/5c9a433bb8484623838502b8","resource":{"resourceType":"Observation","id":"29ea8c50-6b27-4e70-8859-4b2d6d49f866","meta":{"profile":["http://hl7.org/fhir/us/qicore/StructureDefinition/qicore-observationnotdone"]},"extension":[{"url":"http://hl7.org/fhir/us/qicore/StructureDefinition/qicore-notDoneReason","valueCodeableConcept":{"coding":[{"system":"http://snomed.info/sct","version":"http://snomed.info/sct/731000124108/version/202303","code":"410536001","display":"Contraindicated (qualifier value)"}]}}],"status":"cancelled","category":[{"coding":[{"system":"http://snomed.info/sct","version":"http://snomed.info/sct/731000124108/version/202303","code":"428119001","display":"Procedure not indicated (situation)","userSelected":true}]}],"code":{"coding":[{"system":"http://loinc.org","version":"2.73","code":"71487-3","display":"Right eye Optic disc or retinal nerve fiber layer structural abnormalities by Ophthalmoscopy"}]},"subject":{"reference":"Patient/37d4f1ee-3f65-4f68-ac6c-685cc093eaf1"},"effectiveDateTime":"2025-08-27T13:00:00.000+00:00","issued":"2025-08-27T14:15:00.000+00:00"},"request":{"method":"PUT","url":"Observation/29ea8c50-6b27-4e70-8859-4b2d6d49f866"}},{"fullUrl":"https://madie.cms.gov/Encounter/5c9a433bb8484623838502b5","resource":{"resourceType":"Encounter","id":"cfa0eb37-407a-47f7-8cab-8f36fac9ed7e","meta":{"profile":["http://hl7.org/fhir/us/qicore/StructureDefinition/qicore-encounter"]},"status":"finished","class":{"system":"http://terminology.hl7.org/CodeSystem/v3-ActCode","code":"AMB","display":"ambulatory","userSelected":true},"type":[{"coding":[{"system":"http://www.ama-assn.org/go/cpt","code":"92002"}]}],"subject":{"reference":"Patient/37d4f1ee-3f65-4f68-ac6c-685cc093eaf1"},"period":{"start":"2025-08-27T12:40:00.000+00:00","end":"2025-08-27T13:40:00.000+00:00"},"length":{"value":0.0,"unit":"days"}},"request":{"method":"PUT","url":"Encounter/cfa0eb37-407a-47f7-8cab-8f36fac9ed7e"}},{"fullUrl":"https://madie.cms.gov/MeasureReport/56d135ae-c9c9-44b1-a3ec-cfda521a441e","resource":{"resourceType":"MeasureReport","id":"56d135ae-c9c9-44b1-a3ec-cfda521a441e","meta":{"profile":["http://hl7.org/fhir/us/cqfmeasures/StructureDefinition/test-case-cqfm"]},"contained":[{"resourceType":"Parameters","id":"9c58cb99-666c-4f4e-b701-579c30121227-parameters","parameter":[{"name":"subject","valueString":"37d4f1ee-3f65-4f68-ac6c-685cc093eaf1"}]}],"extension":[{"url":"http://hl7.org/fhir/us/cqfmeasures/StructureDefinition/cqfm-inputParameters","valueReference":{"reference":"#9c58cb99-666c-4f4e-b701-579c30121227-parameters"}},{"url":"http://hl7.org/fhir/us/cqfmeasures/StructureDefinition/cqfm-testCaseDescription","valueMarkdown":"Optic Disc Exam Not Performed for Medical Reason is issued outside of Encounter Period disqualifying for denominator exception"}],"modifierExtension":[{"url":"http://hl7.org/fhir/us/cqfmeasures/StructureDefinition/cqfm-isTestCase","valueBoolean":true}],"status":"complete","type":"individual","measure":"https://madie.cms.gov/Measure/POAGOpticNerveEvaluationFHIR","period":{"start":"2025-01-01","end":"2025-12-31"},"group":[{"population":[{"code":{"coding":[{"system":"http://terminology.hl7.org/CodeSystem/measure-population","code":"initial-population","display":"Initial Population"}]},"count":1},{"code":{"coding":[{"system":"http://terminology.hl7.org/CodeSystem/measure-population","code":"denominator","display":"Denominator"}]},"count":1},{"code":{"coding":[{"system":"http://terminology.hl7.org/CodeSystem/measure-population","code":"denominator-exception","display":"Denominator Exception"}]},"count":0},{"code":{"coding":[{"system":"http://terminology.hl7.org/CodeSystem/measure-population","code":"numerator","display":"Numerator"}]},"count":0}]}]},"request":{"method":"PUT","url":"MeasureReport/56d135ae-c9c9-44b1-a3ec-cfda521a441e"}}]}