{"resourceType":"Bundle","id":"tests-2e8da2d1-f38b-4c84-af43-51378f5af1c5-bundle","type":"transaction","entry":[{"fullUrl":"https://madie.cms.gov/Patient/2e8da2d1-f38b-4c84-af43-51378f5af1c5","resource":{"resourceType":"Patient","id":"2e8da2d1-f38b-4c84-af43-51378f5af1c5","meta":{"profile":["http://hl7.org/fhir/us/qicore/StructureDefinition/qicore-patient"]},"extension":[{"url":"http://hl7.org/fhir/us/core/StructureDefinition/us-core-race","extension":[{"url":"ombCategory","valueCoding":{"system":"urn:oid:2.16.840.1.113883.6.238","code":"2054-5","display":"Black or African American","userSelected":true}},{"url":"text","valueString":"Black or African American"}]},{"url":"http://hl7.org/fhir/us/core/StructureDefinition/us-core-ethnicity","extension":[{"url":"ombCategory","valueCoding":{"system":"urn:oid:2.16.840.1.113883.6.238","code":"2186-5","display":"Not Hispanic or Latino","userSelected":true}},{"url":"text","valueString":"Not Hispanic or Latino"}]}],"identifier":[{"type":{"coding":[{"system":"http://terminology.hl7.org/CodeSystem/v2-0203","code":"MR"}]},"system":"https://GoodHealthCare.com","value":"6109658e98086b538055b9db"}],"active":true,"name":[{"use":"usual","family":"DENEXCEPFail","given":["OpticExamMRB4EncEdge"]}],"gender":"male","birthDate":"1982-08-12"},"request":{"method":"PUT","url":"Patient/2e8da2d1-f38b-4c84-af43-51378f5af1c5"}},{"fullUrl":"https://madie.cms.gov/Condition/5c9a433bb8484623838502b4","resource":{"resourceType":"Condition","id":"ec1c9d31-3095-4a01-ba23-b399b3f10137","meta":{"profile":["http://hl7.org/fhir/us/qicore/StructureDefinition/qicore-condition"]},"clinicalStatus":{"coding":[{"system":"http://terminology.hl7.org/CodeSystem/condition-clinical","code":"active","display":"active","userSelected":true}]},"category":[{"coding":[{"system":"http://terminology.hl7.org/CodeSystem/condition-category","code":"encounter-diagnosis","display":"Encounter Diagnosis","userSelected":true}]}],"code":{"coding":[{"system":"http://snomed.info/sct","version":"http://snomed.info/sct/731000124108/version/20230301","code":"50485007","display":"Low tension glaucoma (disorder)"}]},"subject":{"reference":"Patient/2e8da2d1-f38b-4c84-af43-51378f5af1c5"},"onsetDateTime":"2019-01-02T08:00:00+00:00"},"request":{"method":"PUT","url":"Condition/ec1c9d31-3095-4a01-ba23-b399b3f10137"}},{"fullUrl":"https://madie.cms.gov/Observation/5c9a433bb8484623838502b6","resource":{"resourceType":"Observation","id":"b749b99b-5f14-4b15-8141-045712e7d0fe","meta":{"profile":["http://hl7.org/fhir/us/qicore/StructureDefinition/qicore-observation"]},"status":"final","category":[{"coding":[{"system":"http://terminology.hl7.org/CodeSystem/observation-category","code":"laboratory","display":"Laboratory","userSelected":true}]}],"code":{"coding":[{"system":"http://loinc.org","code":"71487-3"}]},"subject":{"reference":"Patient/2e8da2d1-f38b-4c84-af43-51378f5af1c5"},"effectivePeriod":{"start":"2025-08-27T13:00:00.000+00:00","end":"2025-08-27T13:15:00.000+00:00"},"valueString":"Documented, progressive thinning of the neuroretinal rim with an associated increase in cupping of the optic disc"},"request":{"method":"PUT","url":"Observation/b749b99b-5f14-4b15-8141-045712e7d0fe"}},{"fullUrl":"https://madie.cms.gov/Observation/5c9a433bb8484623838502b8","resource":{"resourceType":"Observation","id":"c72f7266-4a6c-4cdb-a65b-6db39b8d2b78","meta":{"profile":["http://hl7.org/fhir/us/qicore/StructureDefinition/qicore-observationnotdone"]},"extension":[{"url":"http://hl7.org/fhir/us/qicore/StructureDefinition/qicore-notDoneReason","valueCodeableConcept":{"coding":[{"system":"http://snomed.info/sct","version":"http://snomed.info/sct/731000124108/version/202303","code":"410536001","display":"Contraindicated (qualifier value)"}]}}],"status":"cancelled","category":[{"coding":[{"system":"http://snomed.info/sct","version":"http://snomed.info/sct/731000124108/version/202303","code":"428119001","display":"Procedure not indicated (situation)","userSelected":true}]}],"code":{"coding":[{"system":"http://loinc.org","version":"2.73","code":"71487-3"}]},"subject":{"reference":"Patient/2e8da2d1-f38b-4c84-af43-51378f5af1c5"},"effectiveDateTime":"2025-05-05T04:59:00.000+00:00","issued":"2025-05-05T04:59:00.000+00:00"},"request":{"method":"PUT","url":"Observation/c72f7266-4a6c-4cdb-a65b-6db39b8d2b78"}},{"fullUrl":"https://madie.cms.gov/Encounter/5c9a433bb8484623838502b5","resource":{"resourceType":"Encounter","id":"60f0c4ce-504d-4ac6-a993-0aaac66f052c","meta":{"profile":["http://hl7.org/fhir/us/qicore/StructureDefinition/qicore-encounter"]},"status":"finished","class":{"system":"http://terminology.hl7.org/CodeSystem/v3-ActCode","code":"AMB","display":"ambulatory","userSelected":true},"type":[{"coding":[{"system":"http://www.ama-assn.org/go/cpt","code":"92002"}]}],"subject":{"reference":"Patient/2e8da2d1-f38b-4c84-af43-51378f5af1c5"},"period":{"start":"2025-05-05T05:00:00.000+00:00","end":"2025-05-05T05:45:00.000+00:00"},"length":{"value":0,"unit":"days"}},"request":{"method":"PUT","url":"Encounter/60f0c4ce-504d-4ac6-a993-0aaac66f052c"}},{"fullUrl":"https://madie.cms.gov/MeasureReport/3afa8a68-e799-4d4a-8a97-b0eb97ceccec","resource":{"resourceType":"MeasureReport","id":"3afa8a68-e799-4d4a-8a97-b0eb97ceccec","meta":{"profile":["http://hl7.org/fhir/us/cqfmeasures/StructureDefinition/test-case-cqfm"]},"contained":[{"resourceType":"Parameters","id":"d08dd84c-1e4e-4b97-895c-bd3655767603-parameters","parameter":[{"name":"subject","valueString":"2e8da2d1-f38b-4c84-af43-51378f5af1c5"}]}],"extension":[{"url":"http://hl7.org/fhir/us/cqfmeasures/StructureDefinition/cqfm-inputParameters","valueReference":{"reference":"#d08dd84c-1e4e-4b97-895c-bd3655767603-parameters"}},{"url":"http://hl7.org/fhir/us/cqfmeasures/StructureDefinition/cqfm-testCaseDescription","valueMarkdown":"Medical Reason for not performing required Optic Exam is 1 minute before Encounter"}],"modifierExtension":[{"url":"http://hl7.org/fhir/us/cqfmeasures/StructureDefinition/cqfm-isTestCase","valueBoolean":true}],"status":"complete","type":"individual","measure":"https://madie.cms.gov/Measure/POAGOpticNerveEvaluationFHIR","period":{"start":"2025-01-01","end":"2025-12-31"},"group":[{"population":[{"code":{"coding":[{"system":"http://terminology.hl7.org/CodeSystem/measure-population","code":"initial-population","display":"Initial Population"}]},"count":1},{"code":{"coding":[{"system":"http://terminology.hl7.org/CodeSystem/measure-population","code":"denominator","display":"Denominator"}]},"count":1},{"code":{"coding":[{"system":"http://terminology.hl7.org/CodeSystem/measure-population","code":"denominator-exception","display":"Denominator Exception"}]},"count":0},{"code":{"coding":[{"system":"http://terminology.hl7.org/CodeSystem/measure-population","code":"numerator","display":"Numerator"}]},"count":0}]}]},"request":{"method":"PUT","url":"MeasureReport/3afa8a68-e799-4d4a-8a97-b0eb97ceccec"}}]}