{"resourceType":"Bundle","id":"tests-13d6df48-7288-49e6-9ad4-aa230744746b-bundle","type":"transaction","entry":[{"fullUrl":"https://madie.cms.gov/Patient/13d6df48-7288-49e6-9ad4-aa230744746b","resource":{"resourceType":"Patient","id":"13d6df48-7288-49e6-9ad4-aa230744746b","meta":{"profile":["http://hl7.org/fhir/us/qicore/StructureDefinition/qicore-patient"]},"extension":[{"url":"http://hl7.org/fhir/us/core/StructureDefinition/us-core-race","extension":[{"url":"ombCategory","valueCoding":{"system":"urn:oid:2.16.840.1.113883.6.238","code":"2028-9","display":"Asian","userSelected":true}},{"url":"text","valueString":"Asian"}]},{"url":"http://hl7.org/fhir/us/core/StructureDefinition/us-core-ethnicity","extension":[{"url":"ombCategory","valueCoding":{"system":"urn:oid:2.16.840.1.113883.6.238","code":"2186-5","display":"Not Hispanic or Latino","userSelected":true}},{"url":"text","valueString":"Not Hispanic or Latino"}]}],"identifier":[{"type":{"coding":[{"system":"http://terminology.hl7.org/CodeSystem/v2-0203","code":"MR"}]},"system":"https://bonnie-fhir.healthit.gov/","value":"6109658e98086b538055b9e4"}],"active":true,"name":[{"use":"usual","family":"IPPFail","given":["QualifyingEncHasNoStartDate"]}],"gender":"male","birthDate":"2004-02-01"},"request":{"method":"PUT","url":"Patient/13d6df48-7288-49e6-9ad4-aa230744746b"}},{"fullUrl":"https://madie.cms.gov/Encounter/604287465c49a000003f51d4","resource":{"resourceType":"Encounter","id":"7364e8f8-68c5-43b6-9481-c216c288f1e6","meta":{"profile":["http://hl7.org/fhir/us/qicore/StructureDefinition/qicore-encounter"]},"status":"finished","class":{"system":"http://terminology.hl7.org/CodeSystem/v3-ActCode","code":"AMB","display":"ambulatory","userSelected":true},"type":[{"coding":[{"system":"http://snomed.info/sct","version":"http://snomed.info/sct/731000124108/version/202303","code":"37894004"},{"system":"http://www.ama-assn.org/go/cpt","version":"2023","code":"99213","userSelected":true}]}],"subject":{"reference":"Patient/13d6df48-7288-49e6-9ad4-aa230744746b"},"period":{"end":"2025-01-02T03:45:00.000+00:00"}},"request":{"method":"PUT","url":"Encounter/7364e8f8-68c5-43b6-9481-c216c288f1e6"}},{"fullUrl":"https://madie.cms.gov/Condition/700070023","resource":{"resourceType":"Condition","id":"7e34744f-23d3-47b0-8bb5-4b757a35939c","meta":{"profile":["http://hl7.org/fhir/us/qicore/StructureDefinition/qicore-condition"]},"clinicalStatus":{"coding":[{"system":"http://terminology.hl7.org/CodeSystem/condition-clinical","code":"active","display":"active","userSelected":true}]},"category":[{"coding":[{"system":"http://terminology.hl7.org/CodeSystem/condition-category","code":"problem-list-item","display":"problem-list-item","userSelected":true}]}],"code":{"coding":[{"system":"http://hl7.org/fhir/sid/icd-10-cm","version":"2023","code":"H40.10X0"}]},"subject":{"reference":"Patient/13d6df48-7288-49e6-9ad4-aa230744746b"},"onsetDateTime":"2023-09-14T08:00:00.000+00:00"},"request":{"method":"PUT","url":"Condition/7e34744f-23d3-47b0-8bb5-4b757a35939c"}},{"fullUrl":"https://madie.cms.gov/MeasureReport/cd54d2fd-1bed-4c30-bd77-41807612b573","resource":{"resourceType":"MeasureReport","id":"cd54d2fd-1bed-4c30-bd77-41807612b573","meta":{"profile":["http://hl7.org/fhir/us/cqfmeasures/StructureDefinition/test-case-cqfm"]},"contained":[{"resourceType":"Parameters","id":"c0c56c93-602b-4d65-b1ca-32a6f6cbf3bc-parameters","parameter":[{"name":"subject","valueString":"13d6df48-7288-49e6-9ad4-aa230744746b"}]}],"extension":[{"url":"http://hl7.org/fhir/us/cqfmeasures/StructureDefinition/cqfm-inputParameters","valueReference":{"reference":"#c0c56c93-602b-4d65-b1ca-32a6f6cbf3bc-parameters"}},{"url":"http://hl7.org/fhir/us/cqfmeasures/StructureDefinition/cqfm-testCaseDescription","valueMarkdown":"Qualifying Encounter without a start dateTime in Encounter period should fail Initial Population."}],"modifierExtension":[{"url":"http://hl7.org/fhir/us/cqfmeasures/StructureDefinition/cqfm-isTestCase","valueBoolean":true}],"status":"complete","type":"individual","measure":"https://madie.cms.gov/Measure/POAGOpticNerveEvaluationFHIR","period":{"start":"2025-01-01","end":"2025-12-31"},"group":[{"population":[{"code":{"coding":[{"system":"http://terminology.hl7.org/CodeSystem/measure-population","code":"initial-population","display":"Initial Population"}]},"count":0},{"code":{"coding":[{"system":"http://terminology.hl7.org/CodeSystem/measure-population","code":"denominator","display":"Denominator"}]},"count":0},{"code":{"coding":[{"system":"http://terminology.hl7.org/CodeSystem/measure-population","code":"denominator-exception","display":"Denominator Exception"}]},"count":0},{"code":{"coding":[{"system":"http://terminology.hl7.org/CodeSystem/measure-population","code":"numerator","display":"Numerator"}]},"count":0}]}]},"request":{"method":"PUT","url":"MeasureReport/cd54d2fd-1bed-4c30-bd77-41807612b573"}}]}