{"resourceType":"Bundle","id":"tests-f72cdb4b-8664-425b-a6ec-53480aa155de-bundle","type":"transaction","entry":[{"fullUrl":"https://madie.cms.gov/Patient/f72cdb4b-8664-425b-a6ec-53480aa155de","resource":{"resourceType":"Patient","id":"f72cdb4b-8664-425b-a6ec-53480aa155de","meta":{"profile":["http://hl7.org/fhir/us/qicore/StructureDefinition/qicore-patient"]},"extension":[{"url":"http://hl7.org/fhir/us/core/StructureDefinition/us-core-race","extension":[{"url":"ombCategory","valueCoding":{"system":"urn:oid:2.16.840.1.113883.6.238","code":"2106-3","display":"White","userSelected":true}},{"url":"text","valueString":"White"}]},{"url":"http://hl7.org/fhir/us/core/StructureDefinition/us-core-ethnicity","extension":[{"url":"ombCategory","valueCoding":{"system":"urn:oid:2.16.840.1.113883.6.238","code":"2135-2","display":"Hispanic or Latino","userSelected":true}},{"url":"text","valueString":"Hispanic or Latino"}]}],"identifier":[{"type":{"coding":[{"system":"http://terminology.hl7.org/CodeSystem/v2-0203","code":"MR"}]},"system":"https://GoodHealthCare.gov/","value":"6109658e98086b538055b9d0"}],"active":true,"name":[{"use":"usual","family":"NUMERFail","given":["MissingOpticDiscExam"]}],"gender":"male","birthDate":"1969-02-10"},"request":{"method":"PUT","url":"Patient/f72cdb4b-8664-425b-a6ec-53480aa155de"}},{"fullUrl":"https://madie.cms.gov/Condition/5e1f9548eab2e700004583ec","resource":{"resourceType":"Condition","id":"1bd64889-b7f5-4920-a88d-daaedecf38db","meta":{"profile":["http://hl7.org/fhir/us/qicore/StructureDefinition/qicore-condition"]},"clinicalStatus":{"coding":[{"system":"http://terminology.hl7.org/CodeSystem/condition-clinical","code":"active","display":"active","userSelected":true}]},"category":[{"coding":[{"system":"http://terminology.hl7.org/CodeSystem/condition-category","code":"problem-list-item","display":"problem-list-item","userSelected":true}]}],"code":{"coding":[{"system":"http://hl7.org/fhir/sid/icd-10-cm","code":"H40.10X0"}]},"subject":{"reference":"Patient/f72cdb4b-8664-425b-a6ec-53480aa155de"},"onsetDateTime":"2014-06-15T07:00:00+00:00"},"request":{"method":"PUT","url":"Condition/1bd64889-b7f5-4920-a88d-daaedecf38db"}},{"fullUrl":"https://madie.cms.gov/Observation/5c9a433bb848462383850286","resource":{"resourceType":"Observation","id":"6aba4f2e-83ea-4833-adb8-6fc5167762eb","meta":{"profile":["http://hl7.org/fhir/us/qicore/StructureDefinition/qicore-observation"]},"status":"final","category":[{"coding":[{"system":"http://terminology.hl7.org/CodeSystem/observation-category","code":"laboratory","display":"laboratory","userSelected":true}]}],"code":{"coding":[{"system":"http://loinc.org","version":"2.73","code":"71487-3"}]},"subject":{"reference":"Patient/f72cdb4b-8664-425b-a6ec-53480aa155de"},"effectiveDateTime":"2025-01-22T08:00:00.000+00:00","valueString":"Within Normal Limits"},"request":{"method":"PUT","url":"Observation/6aba4f2e-83ea-4833-adb8-6fc5167762eb"}},{"fullUrl":"https://madie.cms.gov/Encounter/5c9a433bb848462383850285","resource":{"resourceType":"Encounter","id":"665675c9-f208-4177-a92f-55561b94dec6","meta":{"profile":["http://hl7.org/fhir/us/qicore/StructureDefinition/qicore-encounter"]},"status":"finished","class":{"system":"http://terminology.hl7.org/CodeSystem/v3-ActCode","code":"AMB","display":"ambulatory","userSelected":true},"type":[{"coding":[{"system":"http://www.ama-assn.org/go/cpt","version":"2023","code":"99213"}]}],"subject":{"reference":"Patient/f72cdb4b-8664-425b-a6ec-53480aa155de"},"period":{"start":"2025-01-26T08:00:00.000+00:00","end":"2025-01-26T08:00:00.000+00:00"},"length":{"value":0,"unit":"days"}},"request":{"method":"PUT","url":"Encounter/665675c9-f208-4177-a92f-55561b94dec6"}},{"fullUrl":"https://madie.cms.gov/MeasureReport/1e65dfbb-784c-4347-a440-fe05e7a223b0","resource":{"resourceType":"MeasureReport","id":"1e65dfbb-784c-4347-a440-fe05e7a223b0","meta":{"profile":["http://hl7.org/fhir/us/cqfmeasures/StructureDefinition/test-case-cqfm"]},"contained":[{"resourceType":"Parameters","id":"d0574185-b8fe-4221-a966-5388ba9a699e-parameters","parameter":[{"name":"subject","valueString":"f72cdb4b-8664-425b-a6ec-53480aa155de"}]}],"extension":[{"url":"http://hl7.org/fhir/us/cqfmeasures/StructureDefinition/cqfm-inputParameters","valueReference":{"reference":"#d0574185-b8fe-4221-a966-5388ba9a699e-parameters"}},{"url":"http://hl7.org/fhir/us/cqfmeasures/StructureDefinition/cqfm-testCaseDescription","valueMarkdown":"Patient has qualifying encounter, POAG diagnosis and only 1 of the 2 required examinations . Does not CupDiscRatio examination"}],"modifierExtension":[{"url":"http://hl7.org/fhir/us/cqfmeasures/StructureDefinition/cqfm-isTestCase","valueBoolean":true}],"status":"complete","type":"individual","measure":"https://madie.cms.gov/Measure/POAGOpticNerveEvaluationFHIR","period":{"start":"2025-01-01","end":"2025-12-31"},"group":[{"population":[{"code":{"coding":[{"system":"http://terminology.hl7.org/CodeSystem/measure-population","code":"initial-population","display":"Initial Population"}]},"count":1},{"code":{"coding":[{"system":"http://terminology.hl7.org/CodeSystem/measure-population","code":"denominator","display":"Denominator"}]},"count":1},{"code":{"coding":[{"system":"http://terminology.hl7.org/CodeSystem/measure-population","code":"numerator","display":"Numerator"}]},"count":0},{"code":{"coding":[{"system":"http://terminology.hl7.org/CodeSystem/measure-population","code":"denominator-exception","display":"Denominator Exception"}]},"count":0}]}]},"request":{"method":"PUT","url":"MeasureReport/1e65dfbb-784c-4347-a440-fe05e7a223b0"}}]}