{"resourceType":"Bundle","id":"tests-003b7002-84ee-4303-8030-8bc113f15e7e-bundle","type":"transaction","entry":[{"fullUrl":"https://madie.cms.gov/Patient/003b7002-84ee-4303-8030-8bc113f15e7e","resource":{"resourceType":"Patient","id":"003b7002-84ee-4303-8030-8bc113f15e7e","meta":{"profile":["http://hl7.org/fhir/us/qicore/StructureDefinition/qicore-patient"]},"extension":[{"url":"http://hl7.org/fhir/us/core/StructureDefinition/us-core-race","extension":[{"url":"ombCategory","valueCoding":{"system":"urn:oid:2.16.840.1.113883.6.238","code":"2106-3","display":"White","userSelected":true}},{"url":"text","valueString":"White"}]},{"url":"http://hl7.org/fhir/us/core/StructureDefinition/us-core-ethnicity","extension":[{"url":"ombCategory","valueCoding":{"system":"urn:oid:2.16.840.1.113883.6.238","code":"2186-5","display":"Not Hispanic or Latino","userSelected":true}},{"url":"text","valueString":"Not Hispanic or Latino"}]}],"identifier":[{"type":{"coding":[{"system":"http://terminology.hl7.org/CodeSystem/v2-0203","code":"MR"}]},"system":"https://GoodHealthCare.com/","value":"6109658e98086b538055b9d0"}],"active":true,"name":[{"use":"usual","family":"NUMERPass","given":["OpticExamsDuringPOAGEnc"]}],"gender":"female","birthDate":"1970-02-01"},"request":{"method":"PUT","url":"Patient/003b7002-84ee-4303-8030-8bc113f15e7e"}},{"fullUrl":"https://madie.cms.gov/Condition/5e1f9548eab2e700004583ec","resource":{"resourceType":"Condition","id":"8ff2fe4e-064d-4aec-83cd-3bf511861a87","meta":{"profile":["http://hl7.org/fhir/us/qicore/StructureDefinition/qicore-condition"]},"clinicalStatus":{"coding":[{"system":"http://terminology.hl7.org/CodeSystem/condition-clinical","code":"active","display":"active","userSelected":true}]},"category":[{"coding":[{"system":"http://terminology.hl7.org/CodeSystem/condition-category","code":"problem-list-item","display":"problem-list-item","userSelected":true}]}],"code":{"coding":[{"system":"http://snomed.info/sct","version":"http://snomed.info/sct/731000124108/version/20230301","code":"50485007","display":"Low tension glaucoma (disorder)"}]},"subject":{"reference":"Patient/003b7002-84ee-4303-8030-8bc113f15e7e"},"onsetDateTime":"2021-01-14T08:30:00+00:00"},"request":{"method":"PUT","url":"Condition/8ff2fe4e-064d-4aec-83cd-3bf511861a87"}},{"fullUrl":"https://madie.cms.gov/Observation/5c9a433bb848462383850286","resource":{"resourceType":"Observation","id":"914b5069-7d4c-4a64-aedb-a78fd4f58e7c","meta":{"profile":["http://hl7.org/fhir/us/qicore/StructureDefinition/qicore-observation"]},"status":"final","category":[{"coding":[{"system":"http://terminology.hl7.org/CodeSystem/observation-category","code":"laboratory","display":"laboratory","userSelected":true}]}],"code":{"coding":[{"system":"http://loinc.org","version":"2.73","code":"71487-3"}]},"subject":{"reference":"Patient/003b7002-84ee-4303-8030-8bc113f15e7e"},"effectiveDateTime":"2025-03-01T08:10:00.000+00:00","valueQuantity":{"value":0.8}},"request":{"method":"PUT","url":"Observation/914b5069-7d4c-4a64-aedb-a78fd4f58e7c"}},{"fullUrl":"https://madie.cms.gov/Observation/5c9a433bb848462383850288","resource":{"resourceType":"Observation","id":"12c6b4fb-d6cc-41fe-8ba1-61f53da46d0e","meta":{"profile":["http://hl7.org/fhir/us/qicore/StructureDefinition/qicore-observation"]},"status":"final","category":[{"coding":[{"system":"http://terminology.hl7.org/CodeSystem/observation-category","code":"laboratory","display":"laboratory","userSelected":true}]}],"code":{"coding":[{"system":"http://loinc.org","version":"2.73","code":"71484-0"}]},"subject":{"reference":"Patient/003b7002-84ee-4303-8030-8bc113f15e7e"},"effectiveDateTime":"2025-03-01T08:30:00.000+00:00","valueQuantity":{"value":0.6}},"request":{"method":"PUT","url":"Observation/12c6b4fb-d6cc-41fe-8ba1-61f53da46d0e"}},{"fullUrl":"https://madie.cms.gov/Encounter/5c9a433bb848462383850285","resource":{"resourceType":"Encounter","id":"fe8b15f7-ee7e-460d-9706-9ef0dd1a0378","meta":{"profile":["http://hl7.org/fhir/us/qicore/StructureDefinition/qicore-encounter"]},"status":"finished","class":{"system":"http://terminology.hl7.org/CodeSystem/v3-ActCode","code":"AMB","display":"ambulatory","userSelected":true},"type":[{"coding":[{"system":"http://snomed.info/sct","version":"http://snomed.info/sct/731000124108/version/20230301","code":"18170008","display":"Comprehensive eye examination (procedure)"}]}],"subject":{"reference":"Patient/003b7002-84ee-4303-8030-8bc113f15e7e"},"period":{"start":"2025-03-01T08:00:00.000+00:00","end":"2025-03-01T08:45:00.000+00:00"},"length":{"value":0,"unit":"days"}},"request":{"method":"PUT","url":"Encounter/fe8b15f7-ee7e-460d-9706-9ef0dd1a0378"}},{"fullUrl":"https://madie.cms.gov/MeasureReport/88a1f490-9c88-43b1-8d20-4be24e4969b3","resource":{"resourceType":"MeasureReport","id":"88a1f490-9c88-43b1-8d20-4be24e4969b3","meta":{"profile":["http://hl7.org/fhir/us/cqfmeasures/StructureDefinition/test-case-cqfm"]},"contained":[{"resourceType":"Parameters","id":"a0260b5d-551d-4f93-b93a-898461fd0c26-parameters","parameter":[{"name":"subject","valueString":"003b7002-84ee-4303-8030-8bc113f15e7e"}]}],"extension":[{"url":"http://hl7.org/fhir/us/cqfmeasures/StructureDefinition/cqfm-inputParameters","valueReference":{"reference":"#a0260b5d-551d-4f93-b93a-898461fd0c26-parameters"}},{"url":"http://hl7.org/fhir/us/cqfmeasures/StructureDefinition/cqfm-testCaseDescription","valueMarkdown":"Patient > 18 with POAG Encounter and Cup to Disc and Optic Nerve performed "}],"modifierExtension":[{"url":"http://hl7.org/fhir/us/cqfmeasures/StructureDefinition/cqfm-isTestCase","valueBoolean":true}],"status":"complete","type":"individual","measure":"https://madie.cms.gov/Measure/POAGOpticNerveEvaluationFHIR","period":{"start":"2025-01-01","end":"2025-12-31"},"group":[{"population":[{"code":{"coding":[{"system":"http://terminology.hl7.org/CodeSystem/measure-population","code":"initial-population","display":"Initial Population"}]},"count":1},{"code":{"coding":[{"system":"http://terminology.hl7.org/CodeSystem/measure-population","code":"denominator","display":"Denominator"}]},"count":1},{"code":{"coding":[{"system":"http://terminology.hl7.org/CodeSystem/measure-population","code":"denominator-exception","display":"Denominator Exception"}]},"count":0},{"code":{"coding":[{"system":"http://terminology.hl7.org/CodeSystem/measure-population","code":"numerator","display":"Numerator"}]},"count":1}]}]},"request":{"method":"PUT","url":"MeasureReport/88a1f490-9c88-43b1-8d20-4be24e4969b3"}}]}