{
  "resourceType": "Bundle",
  "id": "numerpass-twoscans",
  "type": "transaction",
  "entry": [ {
    "fullUrl": "https://madie.cms.gov/Patient/4b74a078-9de4-4159-81f6-4de44d196fd1",
    "resource": {
      "resourceType": "Patient",
      "id": "4b74a078-9de4-4159-81f6-4de44d196fd1",
      "meta": {
        "profile": [ "http://hl7.org/fhir/us/core/StructureDefinition/us-core-patient", "http://hl7.org/fhir/us/qicore/StructureDefinition/qicore-patient" ]
      },
      "extension": [ {
        "url": "http://hl7.org/fhir/us/core/StructureDefinition/us-core-race",
        "extension": [ {
          "url": "ombCategory",
          "valueCoding": {
            "system": "urn:oid:2.16.840.1.113883.6.238",
            "code": "2028-9",
            "display": "Asian"
          }
        }, {
          "url": "text",
          "valueString": "Asian"
        } ]
      }, {
        "url": "http://hl7.org/fhir/us/core/StructureDefinition/us-core-ethnicity",
        "extension": [ {
          "url": "ombCategory",
          "valueCoding": {
            "system": "urn:oid:2.16.840.1.113883.6.238",
            "code": "2135-2",
            "display": "Hispanic or Latino"
          }
        }, {
          "url": "text",
          "valueString": "Hispanic or Latino"
        } ]
      } ],
      "identifier": [ {
        "system": "http://hospital.smarthealthit.org",
        "value": "999999995"
      } ],
      "name": [ {
        "family": "TwoScans",
        "given": [ "NUMERPass" ]
      } ],
      "gender": "female",
      "birthDate": "1987-06-12"
    },
    "request": {
      "method": "PUT",
      "url": "Patient/4b74a078-9de4-4159-81f6-4de44d196fd1"
    }
  }, {
    "fullUrl": "https://madie.cms.gov/Encounter/c266c0e0-ed82-4102-856b-4fe9450137c4",
    "resource": {
      "resourceType": "Encounter",
      "id": "c266c0e0-ed82-4102-856b-4fe9450137c4",
      "meta": {
        "profile": [ "http://hl7.org/fhir/us/qicore/StructureDefinition/qicore-encounter" ]
      },
      "status": "finished",
      "class": {
        "system": "http://terminology.hl7.org/CodeSystem/v3-ActCode",
        "code": "IMP",
        "display": "inpatient encounter"
      },
      "type": [ {
        "coding": [ {
          "system": "http://snomed.info/sct",
          "code": "183452005",
          "display": "Emergency hospital admission"
        } ]
      } ],
      "subject": {
        "reference": "Patient/4b74a078-9de4-4159-81f6-4de44d196fd1"
      },
      "period": {
        "start": "2025-01-01T00:00:00.000Z",
        "end": "2025-01-03T01:00:00.000Z"
      }
    },
    "request": {
      "method": "PUT",
      "url": "Encounter/c266c0e0-ed82-4102-856b-4fe9450137c4"
    }
  }, {
    "fullUrl": "https://madie.cms.gov/Observation/20254856-0b11-493c-b445-3e8655183d37",
    "resource": {
      "resourceType": "Observation",
      "id": "20254856-0b11-493c-b445-3e8655183d37",
      "meta": {
        "profile": [ "http://hl7.org/fhir/us/qicore/StructureDefinition/qicore-observation" ]
      },
      "status": "final",
      "category": [ {
        "coding": [ {
          "system": "http://terminology.hl7.org/CodeSystem/observation-category",
          "code": "imaging",
          "display": "Imaging"
        } ]
      } ],
      "code": {
        "coding": [ {
          "system": "http://loinc.org",
          "code": "96914-7",
          "display": "CT dose and image quality category"
        } ],
        "text": "CT dose and image quality category"
      },
      "subject": {
        "reference": "Patient/4b74a078-9de4-4159-81f6-4de44d196fd1"
      },
      "encounter": {
        "reference": "Encounter/c266c0e0-ed82-4102-856b-4fe9450137c4"
      },
      "effectiveDateTime": "2025-01-02T00:00:00.000Z",
      "valueCodeableConcept": {
        "coding": [ {
          "system": "http://loinc.org",
          "code": "LA31752-1",
          "display": "Abdomen and Pelvis Low Dose"
        } ]
      },
      "component": [ {
        "code": {
          "coding": [ {
            "system": "http://loinc.org",
            "code": "96912-1",
            "display": "Calculated CT global noise"
          } ]
        },
        "valueQuantity": {
          "value": 65,
          "unit": "[hnsf'U]",
          "system": "http://unitsofmeasure.org",
          "code": "[hnsf'U]"
        }
      }, {
        "code": {
          "coding": [ {
            "system": "http://loinc.org",
            "code": "96913-9",
            "display": "Calculated CT size-adjusted dose"
          } ]
        },
        "valueQuantity": {
          "value": 585,
          "unit": "mGy.cm",
          "system": "http://unitsofmeasure.org",
          "code": "mGy.cm"
        }
      } ]
    },
    "request": {
      "method": "PUT",
      "url": "Observation/20254856-0b11-493c-b445-3e8655183d37"
    }
  }, {
    "fullUrl": "https://madie.cms.gov/Observation/97d1a910-4d27-4d31-805e-f7cb2716ebaa",
    "resource": {
      "resourceType": "Observation",
      "id": "97d1a910-4d27-4d31-805e-f7cb2716ebaa",
      "meta": {
        "profile": [ "http://hl7.org/fhir/us/qicore/StructureDefinition/qicore-observation" ]
      },
      "status": "final",
      "category": [ {
        "coding": [ {
          "system": "http://terminology.hl7.org/CodeSystem/observation-category",
          "code": "imaging",
          "display": "Imaging"
        } ]
      } ],
      "code": {
        "coding": [ {
          "system": "http://loinc.org",
          "code": "96914-7",
          "display": "CT dose and image quality category"
        } ],
        "text": "CT dose and image quality category"
      },
      "subject": {
        "reference": "Patient/4b74a078-9de4-4159-81f6-4de44d196fd1"
      },
      "encounter": {
        "reference": "Encounter/c266c0e0-ed82-4102-856b-4fe9450137c4"
      },
      "effectiveDateTime": "2025-01-02T00:00:00.000Z",
      "valueCodeableConcept": {
        "coding": [ {
          "system": "http://loinc.org",
          "code": "LA31752-1",
          "display": "Abdomen and Pelvis Low Dose"
        } ]
      },
      "component": [ {
        "code": {
          "coding": [ {
            "system": "http://loinc.org",
            "code": "96912-1",
            "display": "Calculated CT global noise"
          } ]
        },
        "valueQuantity": {
          "value": 63,
          "unit": "[hnsf'U]",
          "system": "http://unitsofmeasure.org",
          "code": "[hnsf'U]"
        }
      }, {
        "code": {
          "coding": [ {
            "system": "http://loinc.org",
            "code": "96913-9",
            "display": "Calculated CT size-adjusted dose"
          } ]
        },
        "valueQuantity": {
          "value": 585,
          "unit": "mGy.cm",
          "system": "http://unitsofmeasure.org",
          "code": "mGy.cm"
        }
      } ]
    },
    "request": {
      "method": "PUT",
      "url": "Observation/97d1a910-4d27-4d31-805e-f7cb2716ebaa"
    }
  }, {
    "fullUrl": "https://madie.cms.gov/MeasureReport/672159a3-c8f1-48c1-b0d4-74f748b68d69",
    "resource": {
      "resourceType": "MeasureReport",
      "id": "672159a3-c8f1-48c1-b0d4-74f748b68d69",
      "meta": {
        "profile": [ "http://hl7.org/fhir/us/cqfmeasures/StructureDefinition/test-case-cqfm" ]
      },
      "contained": [ {
        "resourceType": "Parameters",
        "id": "a83e287f-f7ef-4aba-8184-eaaea7232a4f-parameters",
        "parameter": [ {
          "name": "subject",
          "valueString": "4b74a078-9de4-4159-81f6-4de44d196fd1"
        } ]
      } ],
      "extension": [ {
        "url": "http://hl7.org/fhir/us/cqfmeasures/StructureDefinition/cqfm-inputParameters",
        "valueReference": {
          "reference": "#a83e287f-f7ef-4aba-8184-eaaea7232a4f-parameters"
        }
      }, {
        "url": "http://hl7.org/fhir/us/cqfmeasures/StructureDefinition/cqfm-testCaseDescription",
        "valueMarkdown": "Patient has 2 CT Scans during the same encounter and 1 has good dose and good noise and the other has good dose but high noise"
      } ],
      "modifierExtension": [ {
        "url": "http://hl7.org/fhir/us/cqfmeasures/StructureDefinition/cqfm-isTestCase",
        "valueBoolean": true
      } ],
      "status": "complete",
      "type": "individual",
      "measure": "https://madie.cms.gov/Measure/AlaraCTIQRFHIR",
      "period": {
        "start": "2025-01-01",
        "end": "2025-12-31"
      },
      "group": [ {
        "population": [ {
          "code": {
            "coding": [ {
              "system": "http://terminology.hl7.org/CodeSystem/measure-population",
              "code": "initial-population",
              "display": "Initial Population"
            } ]
          },
          "count": 2
        }, {
          "code": {
            "coding": [ {
              "system": "http://terminology.hl7.org/CodeSystem/measure-population",
              "code": "denominator",
              "display": "Denominator"
            } ]
          },
          "count": 2
        }, {
          "code": {
            "coding": [ {
              "system": "http://terminology.hl7.org/CodeSystem/measure-population",
              "code": "denominator-exclusion",
              "display": "Denominator Exclusion"
            } ]
          },
          "count": 0
        }, {
          "code": {
            "coding": [ {
              "system": "http://terminology.hl7.org/CodeSystem/measure-population",
              "code": "numerator",
              "display": "Numerator"
            } ]
          },
          "count": 1
        } ]
      } ],
      "evaluatedResource": [ {
        "reference": "Patient/4b74a078-9de4-4159-81f6-4de44d196fd1"
      }, {
        "reference": "Encounter/c266c0e0-ed82-4102-856b-4fe9450137c4"
      }, {
        "reference": "Observation/20254856-0b11-493c-b445-3e8655183d37"
      }, {
        "reference": "Observation/97d1a910-4d27-4d31-805e-f7cb2716ebaa"
      } ]
    },
    "request": {
      "method": "PUT",
      "url": "MeasureReport/672159a3-c8f1-48c1-b0d4-74f748b68d69"
    }
  } ]
}