{"resourceType":"Bundle","id":"tests-8a74f67d-482c-4cdd-8b71-71d1b14dd432-bundle","type":"transaction","entry":[{"fullUrl":"https://madie.cms.gov/Patient/8a74f67d-482c-4cdd-8b71-71d1b14dd432","resource":{"resourceType":"Patient","id":"8a74f67d-482c-4cdd-8b71-71d1b14dd432","meta":{"profile":["http://hl7.org/fhir/us/qicore/StructureDefinition/qicore-patient"]},"extension":[{"url":"http://hl7.org/fhir/us/core/StructureDefinition/us-core-race","extension":[{"url":"ombCategory","valueCoding":{"system":"urn:oid:2.16.840.1.113883.6.238","code":"2106-3","display":"White"}},{"url":"text","valueString":"White"}]},{"url":"http://hl7.org/fhir/us/core/StructureDefinition/us-core-ethnicity","extension":[{"url":"ombCategory","valueCoding":{"system":"urn:oid:2.16.840.1.113883.6.238","code":"2186-5","display":"Not Hispanic or Latino","userSelected":true}},{"url":"text","valueString":"Not Hispanic or Latino"}]}],"identifier":[{"type":{"coding":[{"system":"http://terminology.hl7.org/CodeSystem/v2-0203","code":"MR"}]},"system":"https://bonnie-fhir.healthit.gov/","value":"649994fdcea95c34d9e57777"}],"name":[{"family":"NumPass","given":["2TestsduringMP1ResultUnder1NotDetected"]}],"gender":"female","birthDate":"1986-05-25"},"request":{"method":"PUT","url":"Patient/8a74f67d-482c-4cdd-8b71-71d1b14dd432"}},{"fullUrl":"https://madie.cms.gov/Encounter/preventive-care-services-initial-office-visit-0-to-17-7778","resource":{"resourceType":"Encounter","id":"61365a78-f2c6-40d4-8340-623bc0758ccd","meta":{"profile":["http://hl7.org/fhir/us/qicore/StructureDefinition/qicore-encounter"]},"status":"finished","class":{"system":"http://terminology.hl7.org/CodeSystem/v3-ActCode","code":"AMB","display":"ambulatory"},"type":[{"coding":[{"system":"http://www.ama-assn.org/go/cpt","version":"2023","code":"99381","display":"Initial comprehensive preventive medicine evaluation and management of an individual including an age and gender appropriate history, examination, counseling/anticipatory guidance/risk factor reduction interventions, and the ordering of laboratory/diagnostic procedures, new patient; infant (age younger than 1 year)","userSelected":true}]}],"subject":{"reference":"Patient/8a74f67d-482c-4cdd-8b71-71d1b14dd432"},"period":{"start":"2025-03-07T10:00:00.000+00:00","end":"2025-03-07T10:30:00.000+00:00"}},"request":{"method":"PUT","url":"Encounter/61365a78-f2c6-40d4-8340-623bc0758ccd"}},{"fullUrl":"https://madie.cms.gov/Condition/hiv-7779","resource":{"resourceType":"Condition","id":"33f2d436-f8d6-4844-92f5-ab87bf456c85","meta":{"profile":["http://hl7.org/fhir/us/qicore/StructureDefinition/qicore-condition"]},"clinicalStatus":{"coding":[{"system":"http://terminology.hl7.org/CodeSystem/condition-clinical","code":"active","display":"active","userSelected":true}]},"category":[{"coding":[{"system":"http://terminology.hl7.org/CodeSystem/condition-category","code":"problem-list-item","display":"Problem List Item"}]}],"code":{"coding":[{"system":"http://hl7.org/fhir/sid/icd-9-cm","version":"2013","code":"042","display":"Human immunodeficiency virus [HIV] disease","userSelected":true},{"system":"http://snomed.info/sct","code":"165816005","userSelected":true}]},"subject":{"reference":"Patient/8a74f67d-482c-4cdd-8b71-71d1b14dd432"},"onsetDateTime":"2019-12-02T12:00:00.000+00:00","recordedDate":"2019-12-02T12:00:00.000+00:00"},"request":{"method":"PUT","url":"Condition/33f2d436-f8d6-4844-92f5-ab87bf456c85"}},{"fullUrl":"https://madie.cms.gov/Observation/hiv-viral-load-777a","resource":{"resourceType":"Observation","id":"aa92cad8-3cf2-4468-a0a9-12610bb3e163","meta":{"profile":["http://hl7.org/fhir/us/qicore/StructureDefinition/qicore-observation"]},"status":"final","category":[{"coding":[{"system":"http://terminology.hl7.org/CodeSystem/observation-category"}]}],"code":{"coding":[{"system":"http://loinc.org","version":"2.73","code":"10351-5","display":"HIV 1 RNA [Units/volume] (viral load) in Serum or Plasma by Probe with amplification","userSelected":true}]},"subject":{"reference":"Patient/8a74f67d-482c-4cdd-8b71-71d1b14dd432"},"effectiveDateTime":"2025-03-07T08:00:00.000+00:00","issued":"2025-03-07T08:00:00.000+00:00","valueQuantity":{"value":145,"unit":"{copies}/mL"}},"request":{"method":"PUT","url":"Observation/aa92cad8-3cf2-4468-a0a9-12610bb3e163"}},{"fullUrl":"https://madie.cms.gov/Observation/hiv-viral-load-777b","resource":{"resourceType":"Observation","id":"6d434dc5-2c30-4e46-ab88-4ce48a4c2cb6","meta":{"profile":["http://hl7.org/fhir/us/qicore/StructureDefinition/qicore-observation"]},"status":"final","category":[{"coding":[{"system":"http://terminology.hl7.org/CodeSystem/observation-category"}]}],"code":{"coding":[{"system":"http://loinc.org","version":"2.73","code":"10351-5","display":"HIV 1 RNA [Units/volume] (viral load) in Serum or Plasma by Probe with amplification","userSelected":true}]},"subject":{"reference":"Patient/8a74f67d-482c-4cdd-8b71-71d1b14dd432"},"effectiveDateTime":"2025-12-31T08:02:00.000+00:00","issued":"2025-12-31T08:02:00.000+00:00","valueCodeableConcept":{"coding":[{"system":"http://snomed.info/sct","code":"260415000","display":"Not detected (qualifier value)","userSelected":true}]}},"request":{"method":"PUT","url":"Observation/6d434dc5-2c30-4e46-ab88-4ce48a4c2cb6"}},{"fullUrl":"https://madie.cms.gov/Coverage/1","resource":{"resourceType":"Coverage","id":"1ebb0d56-fd92-468e-866b-37fa38b98d0f","meta":{"profile":["http://hl7.org/fhir/us/qicore/StructureDefinition/qicore-coverage"]},"status":"active","beneficiary":{"reference":"Patient/8a74f67d-482c-4cdd-8b71-71d1b14dd432"},"payor":[{"reference":"Organization/4b5a882f-1f43-485c-85c6-f5ad2337d5b1"}]},"request":{"method":"PUT","url":"Coverage/1ebb0d56-fd92-468e-866b-37fa38b98d0f"}},{"fullUrl":"https://madie.cms.gov/Organization/123456","resource":{"resourceType":"Organization","id":"4b5a882f-1f43-485c-85c6-f5ad2337d5b1","meta":{"profile":["http://hl7.org/fhir/us/qicore/StructureDefinition/qicore-organization"]},"identifier":[{"use":"temp","system":"urn:oid:2.16.840.1.113883.4.4","value":"21-3259825"}],"active":true,"type":[{"coding":[{"system":"http://terminology.hl7.org/CodeSystem/organization-type","code":"pay","display":"Payer"}]}],"name":"Blue Cross Blue Shield of Texas","telecom":[{"system":"phone","value":"(+1) 972-766-6900"}],"address":[{"use":"billing","type":"postal","line":["P.O. Box 660044"],"city":"Dallas","state":"TX","postalCode":"75266-0044","country":"USA"}]},"request":{"method":"PUT","url":"Organization/4b5a882f-1f43-485c-85c6-f5ad2337d5b1"}},{"fullUrl":"https://madie.cms.gov/Practitioner/practitioner-123456","resource":{"resourceType":"Practitioner","id":"79fb3968-a465-4889-ac51-7b1bdfa6bfa1","meta":{"profile":["http://hl7.org/fhir/us/qicore/StructureDefinition/qicore-practitioner"]},"identifier":[{"system":"http://hl7.org/fhir/sid/us-npi","value":"123456"}],"name":[{"family":"Evil","prefix":["Dr"]}]},"request":{"method":"PUT","url":"Practitioner/79fb3968-a465-4889-ac51-7b1bdfa6bfa1"}},{"fullUrl":"https://madie.cms.gov/MeasureReport/446d1e0b-6019-4dac-978f-a5d9c2af91af","resource":{"resourceType":"MeasureReport","id":"446d1e0b-6019-4dac-978f-a5d9c2af91af","meta":{"profile":["http://hl7.org/fhir/us/cqfmeasures/StructureDefinition/test-case-cqfm"]},"contained":[{"resourceType":"Parameters","id":"db102da4-1209-4910-b4f4-249d270dd22d-parameters","parameter":[{"name":"subject","valueString":"8a74f67d-482c-4cdd-8b71-71d1b14dd432"}]}],"extension":[{"url":"http://hl7.org/fhir/us/cqfmeasures/StructureDefinition/cqfm-inputParameters","valueReference":{"reference":"#db102da4-1209-4910-b4f4-249d270dd22d-parameters"}},{"url":"http://hl7.org/fhir/us/cqfmeasures/StructureDefinition/cqfm-testCaseDescription","valueMarkdown":"Patient with qualifying encounter during MP and a diagnosis of HIV years before start of MP, with 2 tests during MP - 1 with result < 200 and 1 not detected "}],"modifierExtension":[{"url":"http://hl7.org/fhir/us/cqfmeasures/StructureDefinition/cqfm-isTestCase","valueBoolean":true}],"status":"complete","type":"individual","measure":"https://madie.cms.gov/Measure/HIVViralSuppressionFHIR","period":{"start":"2025-01-01","end":"2025-12-31"},"group":[{"population":[{"code":{"coding":[{"system":"http://terminology.hl7.org/CodeSystem/measure-population","code":"initial-population","display":"Initial Population"}]},"count":1},{"code":{"coding":[{"system":"http://terminology.hl7.org/CodeSystem/measure-population","code":"denominator","display":"Denominator"}]},"count":1},{"code":{"coding":[{"system":"http://terminology.hl7.org/CodeSystem/measure-population","code":"numerator","display":"Numerator"}]},"count":1}]}]},"request":{"method":"PUT","url":"MeasureReport/446d1e0b-6019-4dac-978f-a5d9c2af91af"}}]}