{"resourceType":"Bundle","id":"tests-15c4c2c5-9cdb-4eed-b27a-22462692881a-bundle","type":"transaction","entry":[{"fullUrl":"https://madie.cms.gov/Patient/15c4c2c5-9cdb-4eed-b27a-22462692881a","resource":{"resourceType":"Patient","id":"15c4c2c5-9cdb-4eed-b27a-22462692881a","meta":{"profile":["http://hl7.org/fhir/us/qicore/StructureDefinition/qicore-patient"]},"extension":[{"url":"http://hl7.org/fhir/us/core/StructureDefinition/us-core-race","extension":[{"url":"ombCategory","valueCoding":{"system":"urn:oid:2.16.840.1.113883.6.238","code":"2028-9","display":"Asian","userSelected":true}},{"url":"text","valueString":"Asian"}]},{"url":"http://hl7.org/fhir/us/core/StructureDefinition/us-core-ethnicity","extension":[{"url":"ombCategory","valueCoding":{"system":"urn:oid:2.16.840.1.113883.6.238","code":"2186-5","display":"Not Hispanic or Latino","userSelected":true}},{"url":"text","valueString":"Not Hispanic or Latino"}]}],"identifier":[{"type":{"coding":[{"system":"http://terminology.hl7.org/CodeSystem/v2-0203","code":"MR"}]},"system":"https://bonnie-fhir.healthit.gov/","value":"6499b67ff75cf8dae8f2f3db"}],"name":[{"family":"NumPass","given":["TestDuringMPResult199"]}],"gender":"female","birthDate":"1986-05-25"},"request":{"method":"PUT","url":"Patient/15c4c2c5-9cdb-4eed-b27a-22462692881a"}},{"fullUrl":"https://madie.cms.gov/Condition/hiv-f3dc","resource":{"resourceType":"Condition","id":"bc2b69a2-e3e8-4d15-8620-3046fb29e2eb","meta":{"profile":["http://hl7.org/fhir/us/qicore/StructureDefinition/qicore-condition"]},"clinicalStatus":{"coding":[{"system":"http://terminology.hl7.org/CodeSystem/condition-clinical","code":"active","display":"active","userSelected":true}]},"category":[{"coding":[{"system":"http://terminology.hl7.org/CodeSystem/condition-category","code":"problem-list-item","display":"Problem List Item"}]}],"code":{"coding":[{"system":"http://hl7.org/fhir/sid/icd-9-cm","version":"2013","code":"042","display":"Human immunodeficiency virus [HIV] disease","userSelected":true},{"system":"http://snomed.info/sct","code":"165816005","userSelected":true}]},"subject":{"reference":"Patient/15c4c2c5-9cdb-4eed-b27a-22462692881a"},"onsetDateTime":"2019-12-02T12:00:00.000+00:00","recordedDate":"2019-12-02T12:00:00.000+00:00"},"request":{"method":"PUT","url":"Condition/bc2b69a2-e3e8-4d15-8620-3046fb29e2eb"}},{"fullUrl":"https://madie.cms.gov/Encounter/preventive-care-services-initial-office-visit-18-and-up-f3dd","resource":{"resourceType":"Encounter","id":"a2d625aa-7648-4d87-bf19-a0e1f2e61c98","meta":{"profile":["http://hl7.org/fhir/us/qicore/StructureDefinition/qicore-encounter"]},"status":"finished","class":{"system":"http://terminology.hl7.org/CodeSystem/v3-ActCode","code":"AMB","display":"ambulatory"},"type":[{"coding":[{"system":"http://www.ama-assn.org/go/cpt","code":"99386","userSelected":true}]}],"subject":{"reference":"Patient/15c4c2c5-9cdb-4eed-b27a-22462692881a"},"period":{"start":"2025-08-29T15:02:00.000+00:00","end":"2025-08-29T15:55:00.000+00:00"}},"request":{"method":"PUT","url":"Encounter/a2d625aa-7648-4d87-bf19-a0e1f2e61c98"}},{"fullUrl":"https://madie.cms.gov/Observation/hiv-viral-load-f3de","resource":{"resourceType":"Observation","id":"0c767b8f-9541-4df7-b163-34d9fe4fa9d2","meta":{"profile":["http://hl7.org/fhir/us/qicore/StructureDefinition/qicore-observation"]},"status":"final","category":[{"coding":[{"system":"http://terminology.hl7.org/CodeSystem/observation-category"}]}],"code":{"coding":[{"system":"http://loinc.org","version":"2.73","code":"10351-5","display":"HIV 1 RNA [Units/volume] (viral load) in Serum or Plasma by Probe with amplification","userSelected":true}]},"subject":{"reference":"Patient/15c4c2c5-9cdb-4eed-b27a-22462692881a"},"effectiveDateTime":"2025-08-28T09:02:00.000+00:00","issued":"2025-08-28T09:02:00.000+00:00","valueQuantity":{"value":199,"unit":"{copies}/mL"}},"request":{"method":"PUT","url":"Observation/0c767b8f-9541-4df7-b163-34d9fe4fa9d2"}},{"fullUrl":"https://madie.cms.gov/Coverage/1","resource":{"resourceType":"Coverage","id":"dad2bd57-492a-464d-9320-8dd682f7ea21","meta":{"profile":["http://hl7.org/fhir/us/qicore/StructureDefinition/qicore-coverage"]},"status":"active","beneficiary":{"reference":"Patient/15c4c2c5-9cdb-4eed-b27a-22462692881a"},"payor":[{"reference":"Organization/4b5a882f-1f43-485c-85c6-f5ad2337d5b1"}]},"request":{"method":"PUT","url":"Coverage/dad2bd57-492a-464d-9320-8dd682f7ea21"}},{"fullUrl":"https://madie.cms.gov/Organization/123456","resource":{"resourceType":"Organization","id":"4b5a882f-1f43-485c-85c6-f5ad2337d5b1","meta":{"profile":["http://hl7.org/fhir/us/qicore/StructureDefinition/qicore-organization"]},"identifier":[{"use":"temp","system":"urn:oid:2.16.840.1.113883.4.4","value":"21-3259825"}],"active":true,"type":[{"coding":[{"system":"http://terminology.hl7.org/CodeSystem/organization-type","code":"pay","display":"Payer"}]}],"name":"Blue Cross Blue Shield of Texas","telecom":[{"system":"phone","value":"(+1) 972-766-6900"}],"address":[{"use":"billing","type":"postal","line":["P.O. Box 660044"],"city":"Dallas","state":"TX","postalCode":"75266-0044","country":"USA"}]},"request":{"method":"PUT","url":"Organization/4b5a882f-1f43-485c-85c6-f5ad2337d5b1"}},{"fullUrl":"https://madie.cms.gov/Practitioner/practitioner-123456","resource":{"resourceType":"Practitioner","id":"10d43af2-29ea-4478-a1d2-e9c72723d221","meta":{"profile":["http://hl7.org/fhir/us/qicore/StructureDefinition/qicore-practitioner"]},"identifier":[{"system":"http://hl7.org/fhir/sid/us-npi","value":"123456"}],"name":[{"family":"Evil","prefix":["Dr"]}]},"request":{"method":"PUT","url":"Practitioner/10d43af2-29ea-4478-a1d2-e9c72723d221"}},{"fullUrl":"https://madie.cms.gov/MeasureReport/cebf3136-54ee-4b91-b555-e3076461bff2","resource":{"resourceType":"MeasureReport","id":"cebf3136-54ee-4b91-b555-e3076461bff2","meta":{"profile":["http://hl7.org/fhir/us/cqfmeasures/StructureDefinition/test-case-cqfm"]},"contained":[{"resourceType":"Parameters","id":"de4c0854-a255-4339-9cc5-2a42f8b0e1ff-parameters","parameter":[{"name":"subject","valueString":"15c4c2c5-9cdb-4eed-b27a-22462692881a"}]}],"extension":[{"url":"http://hl7.org/fhir/us/cqfmeasures/StructureDefinition/cqfm-inputParameters","valueReference":{"reference":"#de4c0854-a255-4339-9cc5-2a42f8b0e1ff-parameters"}},{"url":"http://hl7.org/fhir/us/cqfmeasures/StructureDefinition/cqfm-testCaseDescription","valueMarkdown":"Patient with a diagnosis of HIV  years before start of the MP and a qualifying encounter on inside 240 day edge of the MP AND a viral load test during the MP with a result of 199"}],"modifierExtension":[{"url":"http://hl7.org/fhir/us/cqfmeasures/StructureDefinition/cqfm-isTestCase","valueBoolean":true}],"status":"complete","type":"individual","measure":"https://madie.cms.gov/Measure/HIVViralSuppressionFHIR","period":{"start":"2025-01-01","end":"2025-12-31"},"group":[{"population":[{"code":{"coding":[{"system":"http://terminology.hl7.org/CodeSystem/measure-population","code":"initial-population","display":"Initial Population"}]},"count":1},{"code":{"coding":[{"system":"http://terminology.hl7.org/CodeSystem/measure-population","code":"denominator","display":"Denominator"}]},"count":1},{"code":{"coding":[{"system":"http://terminology.hl7.org/CodeSystem/measure-population","code":"numerator","display":"Numerator"}]},"count":1}]}]},"request":{"method":"PUT","url":"MeasureReport/cebf3136-54ee-4b91-b555-e3076461bff2"}}]}