{"resourceType":"Bundle","id":"tests-f5ab0931-7298-476d-8529-3e13214e626f-bundle","type":"transaction","entry":[{"fullUrl":"https://madie.cms.gov/Patient/f5ab0931-7298-476d-8529-3e13214e626f","resource":{"resourceType":"Patient","id":"f5ab0931-7298-476d-8529-3e13214e626f","meta":{"profile":["http://hl7.org/fhir/us/qicore/StructureDefinition/qicore-patient"]},"extension":[{"url":"http://hl7.org/fhir/us/core/StructureDefinition/us-core-race","extension":[{"url":"ombCategory","valueCoding":{"system":"urn:oid:2.16.840.1.113883.6.238","code":"2028-9","display":"Asian","userSelected":true}},{"url":"text","valueString":"Asian"}]},{"url":"http://hl7.org/fhir/us/core/StructureDefinition/us-core-ethnicity","extension":[{"url":"ombCategory","valueCoding":{"system":"urn:oid:2.16.840.1.113883.6.238","code":"2186-5","display":"Not Hispanic or Latino","userSelected":true}},{"url":"text","valueString":"Not Hispanic or Latino"}]}],"identifier":[{"type":{"coding":[{"system":"http://terminology.hl7.org/CodeSystem/v2-0203","code":"MR"}]},"system":"https://bonnie-fhir.healthit.gov/","value":"6495b572e06f07b7e170781b"}],"name":[{"family":"IPPass","given":["HIVDxonMarch30ofMP"]}],"gender":"female","birthDate":"1990-02-09"},"request":{"method":"PUT","url":"Patient/f5ab0931-7298-476d-8529-3e13214e626f"}},{"fullUrl":"https://madie.cms.gov/Condition/hiv-781c","resource":{"resourceType":"Condition","id":"b9e4d52a-3b91-42a7-b28b-adaac48c8f35","meta":{"profile":["http://hl7.org/fhir/us/qicore/StructureDefinition/qicore-condition"]},"clinicalStatus":{"coding":[{"system":"http://terminology.hl7.org/CodeSystem/condition-clinical","code":"active","display":"active","userSelected":true}]},"category":[{"coding":[{"system":"http://terminology.hl7.org/CodeSystem/condition-category","code":"problem-list-item","display":"Problem List Item"}]}],"code":{"coding":[{"system":"http://hl7.org/fhir/sid/icd-9-cm","version":"2013","code":"042","display":"Human immunodeficiency virus [HIV] disease","userSelected":true},{"system":"http://snomed.info/sct","code":"165816005","userSelected":true}]},"subject":{"reference":"Patient/f5ab0931-7298-476d-8529-3e13214e626f"},"onsetDateTime":"2025-03-30T11:00:00.000+00:00","recordedDate":"2025-03-30T11:00:00.000+00:00"},"request":{"method":"PUT","url":"Condition/b9e4d52a-3b91-42a7-b28b-adaac48c8f35"}},{"fullUrl":"https://madie.cms.gov/Encounter/office-visit-4e17","resource":{"resourceType":"Encounter","id":"2e76a865-e030-48af-b19c-feda6dd614b9","meta":{"profile":["http://hl7.org/fhir/us/qicore/StructureDefinition/qicore-encounter"]},"status":"finished","class":{"system":"http://terminology.hl7.org/CodeSystem/v3-ActCode","code":"AMB","display":"ambulatory"},"type":[{"coding":[{"system":"http://snomed.info/sct","version":"2022-09","code":"185463005","display":"Visit out of hours (procedure)","userSelected":true}]}],"subject":{"reference":"Patient/f5ab0931-7298-476d-8529-3e13214e626f"},"period":{"start":"2025-03-07T13:00:00.000+00:00","end":"2025-03-07T13:39:00.000+00:00"}},"request":{"method":"PUT","url":"Encounter/2e76a865-e030-48af-b19c-feda6dd614b9"}},{"fullUrl":"https://madie.cms.gov/Coverage/1","resource":{"resourceType":"Coverage","id":"a37ac0b3-2fec-4bfd-bf62-ef7d49951cb4","meta":{"profile":["http://hl7.org/fhir/us/qicore/StructureDefinition/qicore-coverage"]},"status":"active","beneficiary":{"reference":"Patient/f5ab0931-7298-476d-8529-3e13214e626f"},"payor":[{"reference":"Organization/4b5a882f-1f43-485c-85c6-f5ad2337d5b1"}]},"request":{"method":"PUT","url":"Coverage/a37ac0b3-2fec-4bfd-bf62-ef7d49951cb4"}},{"fullUrl":"https://madie.cms.gov/Organization/123456","resource":{"resourceType":"Organization","id":"4b5a882f-1f43-485c-85c6-f5ad2337d5b1","meta":{"profile":["http://hl7.org/fhir/us/qicore/StructureDefinition/qicore-organization"]},"identifier":[{"use":"temp","system":"urn:oid:2.16.840.1.113883.4.4","value":"21-3259825"}],"active":true,"type":[{"coding":[{"system":"http://terminology.hl7.org/CodeSystem/organization-type","code":"pay","display":"Payer"}]}],"name":"Blue Cross Blue Shield of Texas","telecom":[{"system":"phone","value":"(+1) 972-766-6900"}],"address":[{"use":"billing","type":"postal","line":["P.O. Box 660044"],"city":"Dallas","state":"TX","postalCode":"75266-0044","country":"USA"}]},"request":{"method":"PUT","url":"Organization/4b5a882f-1f43-485c-85c6-f5ad2337d5b1"}},{"fullUrl":"https://madie.cms.gov/Practitioner/practitioner-123456","resource":{"resourceType":"Practitioner","id":"417a751f-2ef2-403f-b3f2-f65ba82b33b9","meta":{"profile":["http://hl7.org/fhir/us/qicore/StructureDefinition/qicore-practitioner"]},"identifier":[{"system":"http://hl7.org/fhir/sid/us-npi","value":"123456"}],"name":[{"family":"Evil","prefix":["Dr"]}]},"request":{"method":"PUT","url":"Practitioner/417a751f-2ef2-403f-b3f2-f65ba82b33b9"}},{"fullUrl":"https://madie.cms.gov/MeasureReport/cb6dfdf2-da8d-4467-a465-279fd0f6cdc4","resource":{"resourceType":"MeasureReport","id":"cb6dfdf2-da8d-4467-a465-279fd0f6cdc4","meta":{"profile":["http://hl7.org/fhir/us/cqfmeasures/StructureDefinition/test-case-cqfm"]},"contained":[{"resourceType":"Parameters","id":"d3ff8de5-9ec3-4669-bfba-3d9d4df2e951-parameters","parameter":[{"name":"subject","valueString":"f5ab0931-7298-476d-8529-3e13214e626f"}]}],"extension":[{"url":"http://hl7.org/fhir/us/cqfmeasures/StructureDefinition/cqfm-inputParameters","valueReference":{"reference":"#d3ff8de5-9ec3-4669-bfba-3d9d4df2e951-parameters"}},{"url":"http://hl7.org/fhir/us/cqfmeasures/StructureDefinition/cqfm-testCaseDescription","valueMarkdown":"HIV diagnosis made on March 30 of MP with a qualifying encounter during MP"}],"modifierExtension":[{"url":"http://hl7.org/fhir/us/cqfmeasures/StructureDefinition/cqfm-isTestCase","valueBoolean":true}],"status":"complete","type":"individual","measure":"https://madie.cms.gov/Measure/HIVViralSuppressionFHIR","period":{"start":"2025-01-01","end":"2025-12-31"},"group":[{"population":[{"code":{"coding":[{"system":"http://terminology.hl7.org/CodeSystem/measure-population","code":"initial-population","display":"Initial Population"}]},"count":1},{"code":{"coding":[{"system":"http://terminology.hl7.org/CodeSystem/measure-population","code":"denominator","display":"Denominator"}]},"count":1},{"code":{"coding":[{"system":"http://terminology.hl7.org/CodeSystem/measure-population","code":"numerator","display":"Numerator"}]},"count":0}]}]},"request":{"method":"PUT","url":"MeasureReport/cb6dfdf2-da8d-4467-a465-279fd0f6cdc4"}}]}