{"resourceType":"Bundle","id":"tests-74aab416-6a06-4fb8-8fbf-5df8012dd811-bundle","type":"transaction","entry":[{"fullUrl":"https://madie.cms.gov/Patient/74aab416-6a06-4fb8-8fbf-5df8012dd811","resource":{"resourceType":"Patient","id":"74aab416-6a06-4fb8-8fbf-5df8012dd811","meta":{"profile":["http://hl7.org/fhir/us/qicore/StructureDefinition/qicore-patient"]},"extension":[{"url":"http://hl7.org/fhir/us/core/StructureDefinition/us-core-race","extension":[{"url":"ombCategory","valueCoding":{"system":"urn:oid:2.16.840.1.113883.6.238","code":"2054-5","display":"Black or African American","userSelected":true}},{"url":"text","valueString":"Black or African American"}]},{"url":"http://hl7.org/fhir/us/core/StructureDefinition/us-core-ethnicity","extension":[{"url":"ombCategory","valueCoding":{"system":"urn:oid:2.16.840.1.113883.6.238","code":"2135-2","display":"Hispanic or Latino","userSelected":true}},{"url":"text","valueString":"Hispanic or Latino"}]}],"identifier":[{"type":{"coding":[{"system":"http://terminology.hl7.org/CodeSystem/v2-0203","code":"MR"}]},"system":"https://bonnie-fhir.healthit.gov/","value":"649980116735443b9ce85cd5"}],"name":[{"family":"NumFail","given":["2VLTestsduringMPwithMostRecentResultOver"]}],"gender":"male","birthDate":"1986-05-25"},"request":{"method":"PUT","url":"Patient/74aab416-6a06-4fb8-8fbf-5df8012dd811"}},{"fullUrl":"https://madie.cms.gov/Condition/hiv-5cd6","resource":{"resourceType":"Condition","id":"dd3d485b-7f4c-4714-8a1f-6b0522a2e9a8","meta":{"profile":["http://hl7.org/fhir/us/qicore/StructureDefinition/qicore-condition"]},"clinicalStatus":{"coding":[{"system":"http://terminology.hl7.org/CodeSystem/condition-clinical","code":"active","display":"active","userSelected":true}]},"category":[{"coding":[{"system":"http://terminology.hl7.org/CodeSystem/condition-category","code":"problem-list-item","display":"Problem List Item"}]}],"code":{"coding":[{"system":"http://hl7.org/fhir/sid/icd-9-cm","version":"2013","code":"042","display":"Human immunodeficiency virus [HIV] disease","userSelected":true},{"system":"http://snomed.info/sct","code":"165816005","userSelected":true}]},"subject":{"reference":"Patient/74aab416-6a06-4fb8-8fbf-5df8012dd811"},"onsetDateTime":"2023-01-01T12:00:00.000+00:00","recordedDate":"2023-01-01T12:00:00.000+00:00"},"request":{"method":"PUT","url":"Condition/dd3d485b-7f4c-4714-8a1f-6b0522a2e9a8"}},{"fullUrl":"https://madie.cms.gov/Encounter/preventive-care-services-established-office-visit-18-and-up-5cd7","resource":{"resourceType":"Encounter","id":"98b0fcf4-edd8-4bd0-b46e-1a4107073353","meta":{"profile":["http://hl7.org/fhir/us/qicore/StructureDefinition/qicore-encounter"]},"status":"finished","class":{"system":"http://terminology.hl7.org/CodeSystem/v3-ActCode","code":"AMB","display":"ambulatory"},"type":[{"coding":[{"system":"http://www.ama-assn.org/go/cpt","version":"2023","code":"99395","display":"Periodic comprehensive preventive medicine reevaluation and management of an individual including an age and gender appropriate history, examination, counseling/anticipatory guidance/risk factor reduction interventions, and the ordering of laboratory/diagnostic procedures, established patient; 18-39 years","userSelected":true}]}],"subject":{"reference":"Patient/74aab416-6a06-4fb8-8fbf-5df8012dd811"},"period":{"start":"2025-01-01T11:00:00.000+00:00","end":"2025-01-01T11:22:00.000+00:00"}},"request":{"method":"PUT","url":"Encounter/98b0fcf4-edd8-4bd0-b46e-1a4107073353"}},{"fullUrl":"https://madie.cms.gov/Observation/hiv-viral-load-5cd8","resource":{"resourceType":"Observation","id":"24b6d7b3-a71b-4656-8e2b-599db77a2930","meta":{"profile":["http://hl7.org/fhir/us/qicore/StructureDefinition/qicore-observation"]},"status":"final","category":[{"coding":[{"system":"http://terminology.hl7.org/CodeSystem/observation-category"}]}],"code":{"coding":[{"system":"http://loinc.org","version":"2.73","code":"10351-5","display":"HIV 1 RNA [Units/volume] (viral load) in Serum or Plasma by Probe with amplification","userSelected":true}]},"subject":{"reference":"Patient/74aab416-6a06-4fb8-8fbf-5df8012dd811"},"effectiveDateTime":"2025-01-01T07:59:00.000+00:00","issued":"2025-01-01T07:59:00.000+00:00","valueQuantity":{"value":199,"unit":"{copies}/mL"}},"request":{"method":"PUT","url":"Observation/24b6d7b3-a71b-4656-8e2b-599db77a2930"}},{"fullUrl":"https://madie.cms.gov/Observation/hiv-viral-load-5cd9","resource":{"resourceType":"Observation","id":"3014aac3-c0c3-4af0-ac87-b4e8021ddeb9","meta":{"profile":["http://hl7.org/fhir/us/qicore/StructureDefinition/qicore-observation"]},"status":"final","category":[{"coding":[{"system":"http://terminology.hl7.org/CodeSystem/observation-category"}]}],"code":{"coding":[{"system":"http://loinc.org","version":"2.73","code":"10351-5","display":"HIV 1 RNA [Units/volume] (viral load) in Serum or Plasma by Probe with amplification","userSelected":true}]},"subject":{"reference":"Patient/74aab416-6a06-4fb8-8fbf-5df8012dd811"},"effectiveDateTime":"2025-08-28T08:00:00.000+00:00","issued":"2025-08-28T08:00:00.000+00:00","valueQuantity":{"value":201,"unit":"{copies}/mL"}},"request":{"method":"PUT","url":"Observation/3014aac3-c0c3-4af0-ac87-b4e8021ddeb9"}},{"fullUrl":"https://madie.cms.gov/Coverage/1","resource":{"resourceType":"Coverage","id":"dc9d684e-e397-4b87-a4d6-1f16043922cd","meta":{"profile":["http://hl7.org/fhir/us/qicore/StructureDefinition/qicore-coverage"]},"status":"active","beneficiary":{"reference":"Patient/74aab416-6a06-4fb8-8fbf-5df8012dd811"},"payor":[{"reference":"Organization/4b5a882f-1f43-485c-85c6-f5ad2337d5b1"}]},"request":{"method":"PUT","url":"Coverage/dc9d684e-e397-4b87-a4d6-1f16043922cd"}},{"fullUrl":"https://madie.cms.gov/Organization/123456","resource":{"resourceType":"Organization","id":"4b5a882f-1f43-485c-85c6-f5ad2337d5b1","meta":{"profile":["http://hl7.org/fhir/us/qicore/StructureDefinition/qicore-organization"]},"identifier":[{"use":"temp","system":"urn:oid:2.16.840.1.113883.4.4","value":"21-3259825"}],"active":true,"type":[{"coding":[{"system":"http://terminology.hl7.org/CodeSystem/organization-type","code":"pay","display":"Payer"}]}],"name":"Blue Cross Blue Shield of Texas","telecom":[{"system":"phone","value":"(+1) 972-766-6900"}],"address":[{"use":"billing","type":"postal","line":["P.O. Box 660044"],"city":"Dallas","state":"TX","postalCode":"75266-0044","country":"USA"}]},"request":{"method":"PUT","url":"Organization/4b5a882f-1f43-485c-85c6-f5ad2337d5b1"}},{"fullUrl":"https://madie.cms.gov/Practitioner/practitioner-123456","resource":{"resourceType":"Practitioner","id":"020f057b-612f-4061-9c07-7feba5a46d63","meta":{"profile":["http://hl7.org/fhir/us/qicore/StructureDefinition/qicore-practitioner"]},"identifier":[{"system":"http://hl7.org/fhir/sid/us-npi","value":"123456"}],"name":[{"family":"Evil","prefix":["Dr"]}]},"request":{"method":"PUT","url":"Practitioner/020f057b-612f-4061-9c07-7feba5a46d63"}},{"fullUrl":"https://madie.cms.gov/MeasureReport/ff6c8497-f9d7-4085-8f38-07d5fd05be35","resource":{"resourceType":"MeasureReport","id":"ff6c8497-f9d7-4085-8f38-07d5fd05be35","meta":{"profile":["http://hl7.org/fhir/us/cqfmeasures/StructureDefinition/test-case-cqfm"]},"contained":[{"resourceType":"Parameters","id":"ef7625fb-3fb0-4070-bd7a-f33d7b8bdae2-parameters","parameter":[{"name":"subject","valueString":"74aab416-6a06-4fb8-8fbf-5df8012dd811"}]}],"extension":[{"url":"http://hl7.org/fhir/us/cqfmeasures/StructureDefinition/cqfm-inputParameters","valueReference":{"reference":"#ef7625fb-3fb0-4070-bd7a-f33d7b8bdae2-parameters"}},{"url":"http://hl7.org/fhir/us/cqfmeasures/StructureDefinition/cqfm-testCaseDescription","valueMarkdown":"Patient with a diagnosis of HIV Jan 1 years before MP and a qualifying encounter on Jan 1 of the MP with TWO viral load tests - 1) Jan 1 with result < 200, 2) Aug 28 > 200"}],"modifierExtension":[{"url":"http://hl7.org/fhir/us/cqfmeasures/StructureDefinition/cqfm-isTestCase","valueBoolean":true}],"status":"complete","type":"individual","measure":"https://madie.cms.gov/Measure/HIVViralSuppressionFHIR","period":{"start":"2025-01-01","end":"2025-12-31"},"group":[{"population":[{"code":{"coding":[{"system":"http://terminology.hl7.org/CodeSystem/measure-population","code":"initial-population","display":"Initial Population"}]},"count":1},{"code":{"coding":[{"system":"http://terminology.hl7.org/CodeSystem/measure-population","code":"denominator","display":"Denominator"}]},"count":1},{"code":{"coding":[{"system":"http://terminology.hl7.org/CodeSystem/measure-population","code":"numerator","display":"Numerator"}]},"count":0}]}]},"request":{"method":"PUT","url":"MeasureReport/ff6c8497-f9d7-4085-8f38-07d5fd05be35"}}]}