{"resourceType":"Bundle","id":"tests-48fd1cfc-ee44-4e04-a174-db33789bf10c-bundle","type":"transaction","entry":[{"fullUrl":"https://madie.cms.gov/Patient/48fd1cfc-ee44-4e04-a174-db33789bf10c","resource":{"resourceType":"Patient","id":"48fd1cfc-ee44-4e04-a174-db33789bf10c","meta":{"profile":["http://hl7.org/fhir/us/qicore/StructureDefinition/qicore-patient"]},"extension":[{"url":"http://hl7.org/fhir/us/core/StructureDefinition/us-core-race","extension":[{"url":"ombCategory","valueCoding":{"system":"urn:oid:2.16.840.1.113883.6.238","code":"2076-8","display":"Native Hawaiian or Other Pacific Islander","userSelected":true}},{"url":"text","valueString":"Native Hawaiian or Other Pacific Islander"}]},{"url":"http://hl7.org/fhir/us/core/StructureDefinition/us-core-ethnicity","extension":[{"url":"ombCategory","valueCoding":{"system":"urn:oid:2.16.840.1.113883.6.238","code":"2186-5","display":"Not Hispanic or Latino","userSelected":true}},{"url":"text","valueString":"Not Hispanic or Latino"}]}],"identifier":[{"type":{"coding":[{"system":"http://terminology.hl7.org/CodeSystem/v2-0203","code":"MR"}]},"system":"https://bonnie-fhir.healthit.gov/","value":"649986d3cea95c34d9e5775b"}],"name":[{"family":"NumFail","given":["TestDuringMPResultOver"]}],"gender":"male","birthDate":"1986-05-25"},"request":{"method":"PUT","url":"Patient/48fd1cfc-ee44-4e04-a174-db33789bf10c"}},{"fullUrl":"https://madie.cms.gov/Condition/hiv-775c","resource":{"resourceType":"Condition","id":"ca3c85d4-4e3c-4131-b86c-3b5a63617e4f","meta":{"profile":["http://hl7.org/fhir/us/qicore/StructureDefinition/qicore-condition"]},"clinicalStatus":{"coding":[{"system":"http://terminology.hl7.org/CodeSystem/condition-clinical","code":"active","display":"active","userSelected":true}]},"category":[{"coding":[{"system":"http://terminology.hl7.org/CodeSystem/condition-category","code":"problem-list-item","display":"Problem List Item"}]}],"code":{"coding":[{"system":"http://hl7.org/fhir/sid/icd-9-cm","version":"2013","code":"042","display":"Human immunodeficiency virus [HIV] disease","userSelected":true},{"system":"http://snomed.info/sct","code":"165816005","userSelected":true}]},"subject":{"reference":"Patient/48fd1cfc-ee44-4e04-a174-db33789bf10c"},"onsetDateTime":"2019-12-02T12:00:00.000+00:00","recordedDate":"2019-12-02T12:00:00.000+00:00"},"request":{"method":"PUT","url":"Condition/ca3c85d4-4e3c-4131-b86c-3b5a63617e4f"}},{"fullUrl":"https://madie.cms.gov/Encounter/preventive-care-services-initial-office-visit-18-and-up-775d","resource":{"resourceType":"Encounter","id":"b55ddb98-e55f-4ac9-8876-a34fc3a14925","meta":{"profile":["http://hl7.org/fhir/us/qicore/StructureDefinition/qicore-encounter"]},"status":"finished","class":{"system":"http://terminology.hl7.org/CodeSystem/v3-ActCode","code":"AMB","display":"ambulatory"},"type":[{"coding":[{"system":"http://www.ama-assn.org/go/cpt","code":"99386","userSelected":true}]}],"subject":{"reference":"Patient/48fd1cfc-ee44-4e04-a174-db33789bf10c"},"period":{"start":"2025-08-27T15:02:00.000+00:00","end":"2025-08-27T15:55:00.000+00:00"}},"request":{"method":"PUT","url":"Encounter/b55ddb98-e55f-4ac9-8876-a34fc3a14925"}},{"fullUrl":"https://madie.cms.gov/Observation/hiv-viral-load-775e","resource":{"resourceType":"Observation","id":"33487e24-ac29-432a-ba9f-db5897d14740","meta":{"profile":["http://hl7.org/fhir/us/qicore/StructureDefinition/qicore-observation"]},"status":"final","category":[{"coding":[{"system":"http://terminology.hl7.org/CodeSystem/observation-category"}]}],"code":{"coding":[{"system":"http://loinc.org","version":"2.73","code":"10351-5","display":"HIV 1 RNA [Units/volume] (viral load) in Serum or Plasma by Probe with amplification","userSelected":true}]},"subject":{"reference":"Patient/48fd1cfc-ee44-4e04-a174-db33789bf10c"},"effectiveDateTime":"2025-08-07T09:02:00.000+00:00","issued":"2025-08-07T09:02:00.000+00:00","valueQuantity":{"value":209,"unit":"{copies}/mL"}},"request":{"method":"PUT","url":"Observation/33487e24-ac29-432a-ba9f-db5897d14740"}},{"fullUrl":"https://madie.cms.gov/Coverage/1","resource":{"resourceType":"Coverage","id":"402d5da5-efb0-4228-8ecf-a14a0f6d22ce","meta":{"profile":["http://hl7.org/fhir/us/qicore/StructureDefinition/qicore-coverage"]},"status":"active","beneficiary":{"reference":"Patient/48fd1cfc-ee44-4e04-a174-db33789bf10c"},"payor":[{"reference":"Organization/4b5a882f-1f43-485c-85c6-f5ad2337d5b1"}]},"request":{"method":"PUT","url":"Coverage/402d5da5-efb0-4228-8ecf-a14a0f6d22ce"}},{"fullUrl":"https://madie.cms.gov/Organization/123456","resource":{"resourceType":"Organization","id":"4b5a882f-1f43-485c-85c6-f5ad2337d5b1","meta":{"profile":["http://hl7.org/fhir/us/qicore/StructureDefinition/qicore-organization"]},"identifier":[{"use":"temp","system":"urn:oid:2.16.840.1.113883.4.4","value":"21-3259825"}],"active":true,"type":[{"coding":[{"system":"http://terminology.hl7.org/CodeSystem/organization-type","code":"pay","display":"Payer"}]}],"name":"Blue Cross Blue Shield of Texas","telecom":[{"system":"phone","value":"(+1) 972-766-6900"}],"address":[{"use":"billing","type":"postal","line":["P.O. Box 660044"],"city":"Dallas","state":"TX","postalCode":"75266-0044","country":"USA"}]},"request":{"method":"PUT","url":"Organization/4b5a882f-1f43-485c-85c6-f5ad2337d5b1"}},{"fullUrl":"https://madie.cms.gov/Practitioner/practitioner-123456","resource":{"resourceType":"Practitioner","id":"1c2a79af-4330-450a-9f9f-5afa8ed6302c","meta":{"profile":["http://hl7.org/fhir/us/qicore/StructureDefinition/qicore-practitioner"]},"identifier":[{"system":"http://hl7.org/fhir/sid/us-npi","value":"123456"}],"name":[{"family":"Evil","prefix":["Dr"]}]},"request":{"method":"PUT","url":"Practitioner/1c2a79af-4330-450a-9f9f-5afa8ed6302c"}},{"fullUrl":"https://madie.cms.gov/MeasureReport/b275e7ca-d2c0-4bc4-9368-bf7946d282ed","resource":{"resourceType":"MeasureReport","id":"b275e7ca-d2c0-4bc4-9368-bf7946d282ed","meta":{"profile":["http://hl7.org/fhir/us/cqfmeasures/StructureDefinition/test-case-cqfm"]},"contained":[{"resourceType":"Parameters","id":"7b077221-1275-4ce1-a57e-736104eabbd5-parameters","parameter":[{"name":"subject","valueString":"48fd1cfc-ee44-4e04-a174-db33789bf10c"}]}],"extension":[{"url":"http://hl7.org/fhir/us/cqfmeasures/StructureDefinition/cqfm-inputParameters","valueReference":{"reference":"#7b077221-1275-4ce1-a57e-736104eabbd5-parameters"}},{"url":"http://hl7.org/fhir/us/cqfmeasures/StructureDefinition/cqfm-testCaseDescription","valueMarkdown":"Patient with a diagnosis of HIV years before start of the MP and a qualifying encounter on inside 240 day edge of the MP AND a viral load test during the MP with a result over 200"}],"modifierExtension":[{"url":"http://hl7.org/fhir/us/cqfmeasures/StructureDefinition/cqfm-isTestCase","valueBoolean":true}],"status":"complete","type":"individual","measure":"https://madie.cms.gov/Measure/HIVViralSuppressionFHIR","period":{"start":"2025-01-01","end":"2025-12-31"},"group":[{"population":[{"code":{"coding":[{"system":"http://terminology.hl7.org/CodeSystem/measure-population","code":"initial-population","display":"Initial Population"}]},"count":1},{"code":{"coding":[{"system":"http://terminology.hl7.org/CodeSystem/measure-population","code":"denominator","display":"Denominator"}]},"count":1},{"code":{"coding":[{"system":"http://terminology.hl7.org/CodeSystem/measure-population","code":"numerator","display":"Numerator"}]},"count":0}]}]},"request":{"method":"PUT","url":"MeasureReport/b275e7ca-d2c0-4bc4-9368-bf7946d282ed"}}]}