{"resourceType":"Bundle","id":"tests-e03fd6c9-9b4c-4814-9301-f22a28e4b1be-bundle","type":"transaction","entry":[{"fullUrl":"https://madie.cms.gov/Patient/e03fd6c9-9b4c-4814-9301-f22a28e4b1be","resource":{"resourceType":"Patient","id":"e03fd6c9-9b4c-4814-9301-f22a28e4b1be","meta":{"profile":["http://hl7.org/fhir/us/qicore/StructureDefinition/qicore-patient"]},"extension":[{"url":"http://hl7.org/fhir/us/core/StructureDefinition/us-core-race","extension":[{"url":"ombCategory","valueCoding":{"system":"urn:oid:2.16.840.1.113883.6.238","code":"2076-8","display":"Native Hawaiian or Other Pacific Islander","userSelected":true}},{"url":"text","valueString":"Native Hawaiian or Other Pacific Islander"}]},{"url":"http://hl7.org/fhir/us/core/StructureDefinition/us-core-ethnicity","extension":[{"url":"ombCategory","valueCoding":{"system":"urn:oid:2.16.840.1.113883.6.238","code":"2186-5","display":"Not Hispanic or Latino","userSelected":true}},{"url":"text","valueString":"Not Hispanic or Latino"}]}],"identifier":[{"type":{"coding":[{"system":"http://terminology.hl7.org/CodeSystem/v2-0203","code":"MR"}]},"system":"https://bonnie-fhir.healthit.gov/","value":"6495b468e06f07b7e1707815"}],"name":[{"family":"IPPass","given":["HIVDxinyearsbeforeMP"]}],"gender":"female","birthDate":"1986-05-25"},"request":{"method":"PUT","url":"Patient/e03fd6c9-9b4c-4814-9301-f22a28e4b1be"}},{"fullUrl":"https://madie.cms.gov/Condition/hiv-7816","resource":{"resourceType":"Condition","id":"ffd50d3f-44a6-4379-89d2-ea72286ca2a7","meta":{"profile":["http://hl7.org/fhir/us/qicore/StructureDefinition/qicore-condition"]},"clinicalStatus":{"coding":[{"system":"http://terminology.hl7.org/CodeSystem/condition-clinical","code":"active","display":"active","userSelected":true}]},"category":[{"coding":[{"system":"http://terminology.hl7.org/CodeSystem/condition-category","code":"problem-list-item","display":"Problem List Item"}]}],"code":{"coding":[{"system":"http://hl7.org/fhir/sid/icd-9-cm","version":"2013","code":"042","display":"Human immunodeficiency virus [HIV] disease","userSelected":true},{"system":"http://snomed.info/sct","code":"165816005","userSelected":true}]},"subject":{"reference":"Patient/e03fd6c9-9b4c-4814-9301-f22a28e4b1be"},"onsetDateTime":"2023-12-02T13:00:00.000+00:00","recordedDate":"2023-12-02T13:00:00.000+00:00"},"request":{"method":"PUT","url":"Condition/ffd50d3f-44a6-4379-89d2-ea72286ca2a7"}},{"fullUrl":"https://madie.cms.gov/Encounter/outpatient-consultation-7817","resource":{"resourceType":"Encounter","id":"93805e09-7887-4e93-9aa1-01a039ebe0b0","meta":{"profile":["http://hl7.org/fhir/us/qicore/StructureDefinition/qicore-encounter"]},"status":"finished","class":{"system":"http://terminology.hl7.org/CodeSystem/v3-ActCode","code":"AMB","display":"ambulatory"},"type":[{"coding":[{"system":"http://snomed.info/sct","version":"2022-09","code":"281036007","display":"Follow-up consultation (procedure)","userSelected":true}]}],"subject":{"reference":"Patient/e03fd6c9-9b4c-4814-9301-f22a28e4b1be"},"period":{"start":"2025-03-07T10:00:00.000+00:00","end":"2025-03-07T10:45:00.000+00:00"}},"request":{"method":"PUT","url":"Encounter/93805e09-7887-4e93-9aa1-01a039ebe0b0"}},{"fullUrl":"https://madie.cms.gov/Coverage/1","resource":{"resourceType":"Coverage","id":"10525821-ff9d-422d-8656-936cca30d9fc","meta":{"profile":["http://hl7.org/fhir/us/qicore/StructureDefinition/qicore-coverage"]},"status":"active","beneficiary":{"reference":"Patient/e03fd6c9-9b4c-4814-9301-f22a28e4b1be"},"payor":[{"reference":"Organization/4b5a882f-1f43-485c-85c6-f5ad2337d5b1"}]},"request":{"method":"PUT","url":"Coverage/10525821-ff9d-422d-8656-936cca30d9fc"}},{"fullUrl":"https://madie.cms.gov/Organization/123456","resource":{"resourceType":"Organization","id":"4b5a882f-1f43-485c-85c6-f5ad2337d5b1","meta":{"profile":["http://hl7.org/fhir/us/qicore/StructureDefinition/qicore-organization"]},"identifier":[{"use":"temp","system":"urn:oid:2.16.840.1.113883.4.4","value":"21-3259825"}],"active":true,"type":[{"coding":[{"system":"http://terminology.hl7.org/CodeSystem/organization-type","code":"pay","display":"Payer"}]}],"name":"Blue Cross Blue Shield of Texas","telecom":[{"system":"phone","value":"(+1) 972-766-6900"}],"address":[{"use":"billing","type":"postal","line":["P.O. Box 660044"],"city":"Dallas","state":"TX","postalCode":"75266-0044","country":"USA"}]},"request":{"method":"PUT","url":"Organization/4b5a882f-1f43-485c-85c6-f5ad2337d5b1"}},{"fullUrl":"https://madie.cms.gov/Practitioner/practitioner-123456","resource":{"resourceType":"Practitioner","id":"a347035c-0146-4698-abf0-4a82bbb58593","meta":{"profile":["http://hl7.org/fhir/us/qicore/StructureDefinition/qicore-practitioner"]},"identifier":[{"system":"http://hl7.org/fhir/sid/us-npi","value":"123456"}],"name":[{"family":"Evil","prefix":["Dr"]}]},"request":{"method":"PUT","url":"Practitioner/a347035c-0146-4698-abf0-4a82bbb58593"}},{"fullUrl":"https://madie.cms.gov/MeasureReport/4e6b8b59-bbed-4547-8170-9b8ebd525dc1","resource":{"resourceType":"MeasureReport","id":"4e6b8b59-bbed-4547-8170-9b8ebd525dc1","meta":{"profile":["http://hl7.org/fhir/us/cqfmeasures/StructureDefinition/test-case-cqfm"]},"contained":[{"resourceType":"Parameters","id":"27395712-8c5c-473f-8c38-96d792514c29-parameters","parameter":[{"name":"subject","valueString":"e03fd6c9-9b4c-4814-9301-f22a28e4b1be"}]}],"extension":[{"url":"http://hl7.org/fhir/us/cqfmeasures/StructureDefinition/cqfm-inputParameters","valueReference":{"reference":"#27395712-8c5c-473f-8c38-96d792514c29-parameters"}},{"url":"http://hl7.org/fhir/us/cqfmeasures/StructureDefinition/cqfm-testCaseDescription","valueMarkdown":"Patient with a diagnosis of HIV years prior to the MP and a qualifying encounter during the measurement period "}],"modifierExtension":[{"url":"http://hl7.org/fhir/us/cqfmeasures/StructureDefinition/cqfm-isTestCase","valueBoolean":true}],"status":"complete","type":"individual","measure":"https://madie.cms.gov/Measure/HIVViralSuppressionFHIR","period":{"start":"2025-01-01","end":"2025-12-31"},"group":[{"population":[{"code":{"coding":[{"system":"http://terminology.hl7.org/CodeSystem/measure-population","code":"initial-population","display":"Initial Population"}]},"count":1},{"code":{"coding":[{"system":"http://terminology.hl7.org/CodeSystem/measure-population","code":"denominator","display":"Denominator"}]},"count":1},{"code":{"coding":[{"system":"http://terminology.hl7.org/CodeSystem/measure-population","code":"numerator","display":"Numerator"}]},"count":0}]}]},"request":{"method":"PUT","url":"MeasureReport/4e6b8b59-bbed-4547-8170-9b8ebd525dc1"}}]}