{
  "resourceType": "Bundle",
  "id": "6067461f98086b57ea5ad0c4",
  "type": "transaction",
  "entry": [ {
    "fullUrl": "https://madie.cms.gov/Patient/0cdece74-a647-4e47-abce-0a8adc41a9df",
    "resource": {
      "resourceType": "Patient",
      "id": "0cdece74-a647-4e47-abce-0a8adc41a9df",
      "meta": {
        "profile": [ "http://hl7.org/fhir/us/qicore/StructureDefinition/qicore-patient" ]
      },
      "extension": [ {
        "url": "http://hl7.org/fhir/us/core/StructureDefinition/us-core-race",
        "extension": [ {
          "url": "ombCategory",
          "valueCoding": {
            "system": "urn:oid:2.16.840.1.113883.6.238",
            "code": "1002-5",
            "display": "American Indian or Alaska Native"
          }
        }, {
          "url": "text",
          "valueString": "American Indian or Alaska Native"
        } ]
      }, {
        "url": "http://hl7.org/fhir/us/core/StructureDefinition/us-core-ethnicity",
        "extension": [ {
          "url": "ombCategory",
          "valueCoding": {
            "system": "urn:oid:2.16.840.1.113883.6.238",
            "code": "2186-5",
            "display": "Not Hispanic or Latino"
          }
        }, {
          "url": "text",
          "valueString": "Not Hispanic or Latino"
        } ]
      } ],
      "identifier": [ {
        "type": {
          "coding": [ {
            "system": "http://terminology.hl7.org/CodeSystem/v2-0203",
            "code": "MR"
          } ]
        },
        "system": "https://bonnie-fhir.healthit.gov/",
        "value": "6067461f98086b57ea5ad0c4"
      } ],
      "active": true,
      "name": [ {
        "use": "usual",
        "family": "IPFail",
        "given": [ "Age17" ]
      } ],
      "gender": "male",
      "birthDate": "2007-12-31"
    },
    "request": {
      "method": "POST",
      "url": "Patient/0cdece74-a647-4e47-abce-0a8adc41a9df"
    }
  }, {
    "fullUrl": "https://madie.cms.gov/Encounter/5c954de8b848462de0ae7709",
    "resource": {
      "resourceType": "Encounter",
      "id": "5c954de8b848462de0ae7709",
      "meta": {
        "profile": [ "http://hl7.org/fhir/us/qicore/StructureDefinition/qicore-encounter" ]
      },
      "status": "finished",
      "class": {
        "system": "http://terminology.hl7.org/CodeSystem/v3-ActCode",
        "code": "AMB"
      },
      "type": [ {
        "coding": [ {
          "system": "http://www.ama-assn.org/go/cpt",
          "version": "2024",
          "code": "99213"
        } ]
      } ],
      "subject": {
        "reference": "Patient/0cdece74-a647-4e47-abce-0a8adc41a9df"
      },
      "period": {
        "start": "2025-04-19T14:40:00+00:00",
        "end": "2025-04-19T17:00:00+00:00"
      },
      "length": {
        "value": 0,
        "unit": "days"
      }
    },
    "request": {
      "method": "POST",
      "url": "Encounter/5c954de8b848462de0ae7709"
    }
  }, {
    "fullUrl": "https://madie.cms.gov/Encounter/5c954de8b848462de0ae770a",
    "resource": {
      "resourceType": "Encounter",
      "id": "5c954de8b848462de0ae770a",
      "meta": {
        "profile": [ "http://hl7.org/fhir/us/qicore/StructureDefinition/qicore-encounter" ]
      },
      "status": "finished",
      "class": {
        "system": "http://terminology.hl7.org/CodeSystem/v3-ActCode",
        "code": "AMB"
      },
      "type": [ {
        "coding": [ {
          "system": "http://www.ama-assn.org/go/cpt",
          "version": "2024",
          "code": "99212"
        } ]
      } ],
      "subject": {
        "reference": "Patient/0cdece74-a647-4e47-abce-0a8adc41a9df"
      },
      "period": {
        "start": "2025-07-03T11:50:00+00:00",
        "end": "2025-07-03T11:50:00+00:00"
      },
      "length": {
        "value": 0,
        "unit": "days"
      }
    },
    "request": {
      "method": "POST",
      "url": "Encounter/5c954de8b848462de0ae770a"
    }
  }, {
    "fullUrl": "https://madie.cms.gov/Condition/461313513517813513",
    "resource": {
      "resourceType": "Condition",
      "id": "461313513517813513",
      "meta": {
        "profile": [ "http://hl7.org/fhir/us/qicore/StructureDefinition/qicore-condition" ]
      },
      "clinicalStatus": {
        "coding": [ {
          "system": "http://terminology.hl7.org/CodeSystem/condition-clinical",
          "code": "active",
          "display": "Active"
        } ]
      },
      "verificationStatus": {
        "coding": [ {
          "system": "http://terminology.hl7.org/CodeSystem/condition-ver-status",
          "code": "confirmed",
          "display": "Confirmed"
        } ]
      },
      "category": [ {
        "coding": [ {
          "system": "http://terminology.hl7.org/CodeSystem/condition-category",
          "code": "problem-list-item",
          "display": "problem list item"
        } ]
      } ],
      "code": {
        "coding": [ {
          "system": "http://snomed.info/sct",
          "version": "http://snomed.info/sct/731000124108/version/20240301",
          "code": "10091002",
          "display": "High output heart failure (disorder)"
        } ]
      },
      "subject": {
        "reference": "Patient/0cdece74-a647-4e47-abce-0a8adc41a9df"
      },
      "onsetPeriod": {
        "start": "2025-04-18T08:00:00.000+00:00"
      }
    },
    "request": {
      "method": "POST",
      "url": "Condition/461313513517813513"
    }
  }, {
    "fullUrl": "https://madie.cms.gov/MeasureReport/1238c232-fca4-411f-944d-ab2e945e1bef",
    "resource": {
      "resourceType": "MeasureReport",
      "id": "1238c232-fca4-411f-944d-ab2e945e1bef",
      "meta": {
        "profile": [ "http://hl7.org/fhir/us/cqfmeasures/StructureDefinition/test-case-cqfm" ]
      },
      "contained": [ {
        "resourceType": "Parameters",
        "id": "a8db470a-54c8-41c3-bfe3-cdf7b4eef768-parameters",
        "parameter": [ {
          "name": "subject",
          "valueString": "0cdece74-a647-4e47-abce-0a8adc41a9df"
        } ]
      } ],
      "extension": [ {
        "url": "http://hl7.org/fhir/us/cqfmeasures/StructureDefinition/cqfm-inputParameters",
        "valueReference": {
          "reference": "#a8db470a-54c8-41c3-bfe3-cdf7b4eef768-parameters"
        }
      }, {
        "url": "http://hl7.org/fhir/us/cqfmeasures/StructureDefinition/cqfm-testCaseDescription",
        "valueMarkdown": "Patient age is 17 with 2 Encounters during MP. Patient not included in initial population because <18 at beginning of measurement period. "
      } ],
      "modifierExtension": [ {
        "url": "http://hl7.org/fhir/us/cqfmeasures/StructureDefinition/cqfm-isTestCase",
        "valueBoolean": true
      } ],
      "status": "complete",
      "type": "individual",
      "measure": "https://madie.cms.gov/Measure/HFBetaBlockerTherapyforLVSDFHIR",
      "period": {
        "start": "2025-01-01",
        "end": "2025-12-31"
      },
      "group": [ {
        "population": [ {
          "code": {
            "coding": [ {
              "system": "http://terminology.hl7.org/CodeSystem/measure-population",
              "code": "initial-population",
              "display": "Initial Population"
            } ]
          },
          "count": 0
        }, {
          "code": {
            "coding": [ {
              "system": "http://terminology.hl7.org/CodeSystem/measure-population",
              "code": "denominator",
              "display": "Denominator"
            } ]
          },
          "count": 0
        }, {
          "code": {
            "coding": [ {
              "system": "http://terminology.hl7.org/CodeSystem/measure-population",
              "code": "denominator-exclusion",
              "display": "Denominator Exclusion"
            } ]
          },
          "count": 0
        }, {
          "code": {
            "coding": [ {
              "system": "http://terminology.hl7.org/CodeSystem/measure-population",
              "code": "numerator",
              "display": "Numerator"
            } ]
          },
          "count": 0
        }, {
          "code": {
            "coding": [ {
              "system": "http://terminology.hl7.org/CodeSystem/measure-population",
              "code": "denominator-exception",
              "display": "Denominator Exception"
            } ]
          },
          "count": 0
        } ]
      } ],
      "evaluatedResource": [ {
        "reference": "https://madie.cms.gov/Patient/0cdece74-a647-4e47-abce-0a8adc41a9df"
      }, {
        "reference": "https://madie.cms.gov/Encounter/5c954de8b848462de0ae7709"
      }, {
        "reference": "https://madie.cms.gov/Encounter/5c954de8b848462de0ae770a"
      }, {
        "reference": "https://madie.cms.gov/Condition/461313513517813513"
      } ]
    },
    "request": {
      "method": "POST",
      "url": "MeasureReport/1238c232-fca4-411f-944d-ab2e945e1bef"
    }
  } ]
}