{"resourceType":"Bundle","id":"tests-f2eb723f-5430-4ba7-9730-105de60b3c84-bundle","type":"transaction","entry":[{"fullUrl":"https://madie.cms.gov/Patient/f2eb723f-5430-4ba7-9730-105de60b3c84","resource":{"resourceType":"Patient","id":"f2eb723f-5430-4ba7-9730-105de60b3c84","meta":{"profile":["http://hl7.org/fhir/us/qicore/StructureDefinition/qicore-patient"]},"extension":[{"url":"http://hl7.org/fhir/us/core/StructureDefinition/us-core-race","extension":[{"url":"ombCategory","valueCoding":{"system":"urn:oid:2.16.840.1.113883.6.238","code":"2028-9","display":"Asian","userSelected":true}},{"url":"text","valueString":"Asian"}]},{"url":"http://hl7.org/fhir/us/core/StructureDefinition/us-core-ethnicity","extension":[{"url":"ombCategory","valueCoding":{"system":"urn:oid:2.16.840.1.113883.6.238","code":"2135-2","display":"Hispanic or Latino","userSelected":true}},{"url":"text","valueString":"Hispanic or Latino"}]}],"identifier":[{"type":{"coding":[{"system":"http://terminology.hl7.org/CodeSystem/v2-0203","code":"MR"}]},"system":"http://hospital.smarthealthit.org","value":"999999995"}],"name":[{"family":"Bertha","given":["Betty"]}],"gender":"female","birthDate":"2007-01-01"},"request":{"method":"PUT","url":"Patient/f2eb723f-5430-4ba7-9730-105de60b3c84"}},{"fullUrl":"https://madie.cms.gov/Encounter/Encounter-34","resource":{"resourceType":"Encounter","id":"772de774-d42b-470d-a2f5-48237c6a6cc0","meta":{"profile":["http://hl7.org/fhir/us/qicore/StructureDefinition/qicore-encounter"]},"status":"finished","class":{"system":"http://terminology.hl7.org/CodeSystem/v3-ActCode","code":"AMB","display":"ambulatory"},"type":[{"coding":[{"system":"http://snomed.info/sct","code":"185463005","display":"Office Visit"}]}],"subject":{"reference":"Patient/f2eb723f-5430-4ba7-9730-105de60b3c84"},"period":{"start":"2025-01-01T01:00:00.000Z","end":"2025-01-01T01:15:00.000Z"}},"request":{"method":"PUT","url":"Encounter/772de774-d42b-470d-a2f5-48237c6a6cc0"}},{"fullUrl":"https://madie.cms.gov/Encounter/Encounter-35","resource":{"resourceType":"Encounter","id":"923b662a-fdc1-4b10-a6b5-d25fc42587a0","meta":{"profile":["http://hl7.org/fhir/us/qicore/StructureDefinition/qicore-encounter"]},"status":"finished","class":{"system":"http://terminology.hl7.org/CodeSystem/v3-ActCode","code":"AMB","display":"ambulatory"},"type":[{"coding":[{"system":"http://www.ama-assn.org/go/cpt","code":"98970","display":"Virtual Encounter"}]}],"subject":{"reference":"Patient/f2eb723f-5430-4ba7-9730-105de60b3c84"},"period":{"start":"2025-01-02T01:00:00.000Z","end":"2025-01-02T01:15:00.000Z"}},"request":{"method":"PUT","url":"Encounter/923b662a-fdc1-4b10-a6b5-d25fc42587a0"}},{"fullUrl":"https://madie.cms.gov/Condition/Condition-30","resource":{"resourceType":"Condition","id":"1e4ce6a1-8f7a-46cb-ae81-14a42b27dbe4","meta":{"profile":["http://hl7.org/fhir/us/qicore/StructureDefinition/qicore-condition"]},"clinicalStatus":{"coding":[{"system":"http://terminology.hl7.org/CodeSystem/condition-clinical","code":"active"}]},"category":[{"coding":[{"system":"http://terminology.hl7.org/CodeSystem/condition-category","code":"problem-list-item","display":"Problem List Item"}]}],"code":{"coding":[{"system":"http://snomed.info/sct","code":"10091002","display":"High output heart failure (disorder)"}]},"subject":{"reference":"Patient/f2eb723f-5430-4ba7-9730-105de60b3c84"},"onsetDateTime":"2024-12-31T23:59:00.000Z"},"request":{"method":"PUT","url":"Condition/1e4ce6a1-8f7a-46cb-ae81-14a42b27dbe4"}},{"fullUrl":"https://madie.cms.gov/Encounter/Encounter-36","resource":{"resourceType":"Encounter","id":"5930983a-0945-425a-a70c-bb293a8fe13c","meta":{"profile":["http://hl7.org/fhir/us/qicore/StructureDefinition/qicore-encounter"]},"status":"finished","class":{"system":"http://terminology.hl7.org/CodeSystem/v3-ActCode","code":"AMB","display":"ambulatory"},"type":[{"coding":[{"system":"http://snomed.info/sct","code":"32485007","display":"Hospital admission (procedure)"}]}],"subject":{"reference":"Patient/f2eb723f-5430-4ba7-9730-105de60b3c84"},"period":{"start":"2024-12-31T23:59:59.000Z","end":"2025-01-01T01:00:00.000Z"},"hospitalization":{"dischargeDisposition":{"coding":[{"system":"http://snomed.info/sct","code":"428361000124107","display":"Discharge to home for hospice care (procedure)"}]}}},"request":{"method":"PUT","url":"Encounter/5930983a-0945-425a-a70c-bb293a8fe13c"}},{"fullUrl":"https://madie.cms.gov/MeasureReport/89627d2f-cabc-4d2e-8aba-ba304ee68164","resource":{"resourceType":"MeasureReport","id":"89627d2f-cabc-4d2e-8aba-ba304ee68164","meta":{"profile":["http://hl7.org/fhir/us/cqfmeasures/StructureDefinition/test-case-cqfm"]},"contained":[{"resourceType":"Parameters","id":"9813fee8-4cce-45f9-8820-969c13c40939-parameters","parameter":[{"name":"subject","valueString":"f2eb723f-5430-4ba7-9730-105de60b3c84"}]}],"extension":[{"url":"http://hl7.org/fhir/us/cqfmeasures/StructureDefinition/cqfm-inputParameters","valueReference":{"reference":"#9813fee8-4cce-45f9-8820-969c13c40939-parameters"}},{"url":"http://hl7.org/fhir/us/cqfmeasures/StructureDefinition/cqfm-testCaseDescription","valueMarkdown":"Patient has a hospice discharge during the measurement period."}],"modifierExtension":[{"url":"http://hl7.org/fhir/us/cqfmeasures/StructureDefinition/cqfm-isTestCase","valueBoolean":true}],"status":"complete","type":"individual","measure":"https://madie.cms.gov/Measure/FunctionalStatusAssessmentsforHeartFailureFHIR","period":{"start":"2025-01-01","end":"2025-12-31"},"group":[{"population":[{"code":{"coding":[{"system":"http://terminology.hl7.org/CodeSystem/measure-population","code":"initial-population","display":"Initial Population"}]},"count":1},{"code":{"coding":[{"system":"http://terminology.hl7.org/CodeSystem/measure-population","code":"denominator","display":"Denominator"}]},"count":1},{"code":{"coding":[{"system":"http://terminology.hl7.org/CodeSystem/measure-population","code":"denominator-exclusion","display":"Denominator Exclusion"}]},"count":1},{"code":{"coding":[{"system":"http://terminology.hl7.org/CodeSystem/measure-population","code":"numerator","display":"Numerator"}]},"count":0}]}]},"request":{"method":"PUT","url":"MeasureReport/89627d2f-cabc-4d2e-8aba-ba304ee68164"}}]}