{"resourceType":"Bundle","id":"tests-0c9f039a-2055-4fc3-943c-79dadb0e5271-bundle","type":"transaction","entry":[{"fullUrl":"https://madie.cms.gov/Patient/0c9f039a-2055-4fc3-943c-79dadb0e5271","resource":{"resourceType":"Patient","id":"0c9f039a-2055-4fc3-943c-79dadb0e5271","meta":{"profile":["http://hl7.org/fhir/us/qicore/StructureDefinition/qicore-patient"]},"extension":[{"url":"http://hl7.org/fhir/us/core/StructureDefinition/us-core-race","extension":[{"url":"ombCategory","valueCoding":{"system":"urn:oid:2.16.840.1.113883.6.238","code":"2028-9","display":"Asian"}},{"url":"text","valueString":"Asian"}]},{"url":"http://hl7.org/fhir/us/core/StructureDefinition/us-core-ethnicity","extension":[{"url":"ombCategory","valueCoding":{"system":"urn:oid:2.16.840.1.113883.6.238","code":"2135-2","display":"Hispanic or Latino"}},{"url":"text","valueString":"Hispanic or Latino"}]}],"identifier":[{"system":"http://hospital.smarthealthit.org","value":"999999995"}],"name":[{"family":"Bertha","given":["Betty"]}],"gender":"female","birthDate":"2007-01-01"},"request":{"method":"PUT","url":"Patient/0c9f039a-2055-4fc3-943c-79dadb0e5271"}},{"fullUrl":"https://madie.cms.gov/Encounter/Encounter-24","resource":{"resourceType":"Encounter","id":"5710d86a-a463-4527-8f10-a68e5c2e83d9","meta":{"profile":["http://hl7.org/fhir/us/qicore/StructureDefinition/qicore-encounter"]},"status":"finished","class":{"system":"http://terminology.hl7.org/CodeSystem/v3-ActCode","code":"AMB","display":"ambulatory"},"type":[{"coding":[{"system":"http://snomed.info/sct","code":"185317003","display":"Telephone encounter (procedure)"}]}],"subject":{"reference":"Patient/0c9f039a-2055-4fc3-943c-79dadb0e5271"},"period":{"start":"2025-01-01T01:00:00.000Z","end":"2025-01-01T01:15:00.000Z"}},"request":{"method":"PUT","url":"Encounter/5710d86a-a463-4527-8f10-a68e5c2e83d9"}},{"fullUrl":"https://madie.cms.gov/Encounter/Encounter-25","resource":{"resourceType":"Encounter","id":"3d961263-6d04-4508-b5f0-b2435bc670a2","meta":{"profile":["http://hl7.org/fhir/us/qicore/StructureDefinition/qicore-encounter"]},"status":"finished","class":{"system":"http://terminology.hl7.org/CodeSystem/v3-ActCode","code":"AMB","display":"ambulatory"},"type":[{"coding":[{"system":"http://snomed.info/sct","code":"185317003","display":"Telephone encounter (procedure)"}]}],"subject":{"reference":"Patient/0c9f039a-2055-4fc3-943c-79dadb0e5271"},"period":{"start":"2025-01-02T01:00:00.000Z","end":"2025-01-02T01:15:00.000Z"}},"request":{"method":"PUT","url":"Encounter/3d961263-6d04-4508-b5f0-b2435bc670a2"}},{"fullUrl":"https://madie.cms.gov/Condition/Condition-12","resource":{"resourceType":"Condition","id":"04f0e135-7ac0-4743-bece-cf6cf4cbea64","meta":{"profile":["http://hl7.org/fhir/us/qicore/StructureDefinition/qicore-condition"]},"clinicalStatus":{"coding":[{"system":"http://terminology.hl7.org/CodeSystem/condition-clinical","code":"active"}]},"category":[{"coding":[{"system":"http://terminology.hl7.org/CodeSystem/condition-category","code":"problem-list-item","display":"Problem List Item"}]}],"code":{"coding":[{"system":"http://snomed.info/sct","code":"10091002","display":"High output heart failure (disorder)"}]},"subject":{"reference":"Patient/0c9f039a-2055-4fc3-943c-79dadb0e5271"},"onsetDateTime":"2024-12-31T23:59:00.000Z"},"request":{"method":"PUT","url":"Condition/04f0e135-7ac0-4743-bece-cf6cf4cbea64"}},{"fullUrl":"https://madie.cms.gov/Observation/Observation-34","resource":{"resourceType":"Observation","id":"d71c99ef-9d1c-47be-9bfb-5b958f93027c","meta":{"profile":["http://hl7.org/fhir/us/qicore/StructureDefinition/qicore-observation"]},"status":"final","category":[{"coding":[{"system":"http://terminology.hl7.org/CodeSystem/observation-category","code":"survey","display":"survey"}],"text":"survey"}],"code":{"coding":[{"system":"http://loinc.org","code":"72008-6","display":"VR-36 Mental component summary (MCS) score - orthogonal method T-score"}]},"subject":{"reference":"Patient/0c9f039a-2055-4fc3-943c-79dadb0e5271"},"effectivePeriod":{"start":"2025-01-01T23:00:00.000Z","end":"2025-01-01T23:59:00.000Z"},"valueInteger":4},"request":{"method":"PUT","url":"Observation/d71c99ef-9d1c-47be-9bfb-5b958f93027c"}},{"fullUrl":"https://madie.cms.gov/Observation/Observation-35","resource":{"resourceType":"Observation","id":"57345128-b705-458e-b561-ca31a6aad2b0","meta":{"profile":["http://hl7.org/fhir/us/qicore/StructureDefinition/qicore-observation"]},"status":"final","category":[{"coding":[{"system":"http://terminology.hl7.org/CodeSystem/observation-category","code":"survey","display":"survey"}],"text":"survey"}],"code":{"coding":[{"system":"http://loinc.org","code":"72008-6","display":"VR-36 Mental component summary (MCS) score - orthogonal method T-score"}]},"subject":{"reference":"Patient/0c9f039a-2055-4fc3-943c-79dadb0e5271"},"effectivePeriod":{"start":"2025-01-31T23:00:00.000Z","end":"2025-01-31T23:59:00.000Z"},"valueInteger":4},"request":{"method":"PUT","url":"Observation/57345128-b705-458e-b561-ca31a6aad2b0"}},{"fullUrl":"https://madie.cms.gov/Observation/Observation-36","resource":{"resourceType":"Observation","id":"026b329e-d945-4086-81c1-bb84d513ed65","meta":{"profile":["http://hl7.org/fhir/us/qicore/StructureDefinition/qicore-observation"]},"status":"final","category":[{"coding":[{"system":"http://terminology.hl7.org/CodeSystem/observation-category","code":"survey","display":"survey"}],"text":"survey"}],"code":{"coding":[{"system":"http://loinc.org","code":"72007-8","display":"VR-36 Physical component summary (PCS) score - orthogonal method T-score"}]},"subject":{"reference":"Patient/0c9f039a-2055-4fc3-943c-79dadb0e5271"},"effectivePeriod":{"start":"2025-01-01T23:00:00.000Z","end":"2025-01-01T23:59:00.000Z"},"valueInteger":4},"request":{"method":"PUT","url":"Observation/026b329e-d945-4086-81c1-bb84d513ed65"}},{"fullUrl":"https://madie.cms.gov/Observation/Observation-37","resource":{"resourceType":"Observation","id":"e3405c48-a082-4da3-9a8a-05eefd76c045","meta":{"profile":["http://hl7.org/fhir/us/qicore/StructureDefinition/qicore-observation"]},"status":"final","category":[{"coding":[{"system":"http://terminology.hl7.org/CodeSystem/observation-category","code":"survey","display":"survey"}],"text":"survey"}],"code":{"coding":[{"system":"http://loinc.org","code":"72007-8","display":"VR-36 Physical component summary (PCS) score - orthogonal method T-score"}]},"subject":{"reference":"Patient/0c9f039a-2055-4fc3-943c-79dadb0e5271"},"effectivePeriod":{"start":"2025-01-31T23:00:00.000Z","end":"2025-01-31T23:59:00.000Z"},"valueInteger":4},"request":{"method":"PUT","url":"Observation/e3405c48-a082-4da3-9a8a-05eefd76c045"}},{"fullUrl":"https://madie.cms.gov/MeasureReport/41d44ae3-2497-4ae6-8728-10be47876e3c","resource":{"resourceType":"MeasureReport","id":"41d44ae3-2497-4ae6-8728-10be47876e3c","meta":{"profile":["http://hl7.org/fhir/us/cqfmeasures/StructureDefinition/test-case-cqfm"]},"contained":[{"resourceType":"Parameters","id":"0e8d9d85-00c9-428b-8651-fd877dfc1d44-parameters","parameter":[{"name":"subject","valueString":"0c9f039a-2055-4fc3-943c-79dadb0e5271"}]}],"extension":[{"url":"http://hl7.org/fhir/us/cqfmeasures/StructureDefinition/cqfm-inputParameters","valueReference":{"reference":"#0e8d9d85-00c9-428b-8651-fd877dfc1d44-parameters"}},{"url":"http://hl7.org/fhir/us/cqfmeasures/StructureDefinition/cqfm-testCaseDescription","valueMarkdown":"Patient has all VR36 Orthogonal Assessments with results during the correct timeframe."}],"modifierExtension":[{"url":"http://hl7.org/fhir/us/cqfmeasures/StructureDefinition/cqfm-isTestCase","valueBoolean":true}],"status":"complete","type":"individual","measure":"https://madie.cms.gov/Measure/FunctionalStatusAssessmentsforHeartFailureFHIR","period":{"start":"2025-01-01","end":"2025-12-31"},"group":[{"population":[{"code":{"coding":[{"system":"http://terminology.hl7.org/CodeSystem/measure-population","code":"initial-population","display":"Initial Population"}]},"count":1},{"code":{"coding":[{"system":"http://terminology.hl7.org/CodeSystem/measure-population","code":"denominator","display":"Denominator"}]},"count":1},{"code":{"coding":[{"system":"http://terminology.hl7.org/CodeSystem/measure-population","code":"denominator-exclusion","display":"Denominator Exclusion"}]},"count":0},{"code":{"coding":[{"system":"http://terminology.hl7.org/CodeSystem/measure-population","code":"numerator","display":"Numerator"}]},"count":1}]}]},"request":{"method":"PUT","url":"MeasureReport/41d44ae3-2497-4ae6-8728-10be47876e3c"}}]}