{"resourceType":"Bundle","id":"tests-1df58f4a-37fb-46e6-b20d-fc4a8b57d77e-bundle","type":"transaction","entry":[{"fullUrl":"https://madie.cms.gov/Patient/1df58f4a-37fb-46e6-b20d-fc4a8b57d77e","resource":{"resourceType":"Patient","id":"1df58f4a-37fb-46e6-b20d-fc4a8b57d77e","meta":{"profile":["http://hl7.org/fhir/us/qicore/StructureDefinition/qicore-patient"]},"extension":[{"url":"http://hl7.org/fhir/us/core/StructureDefinition/us-core-race","extension":[{"url":"ombCategory","valueCoding":{"system":"urn:oid:2.16.840.1.113883.6.238","code":"2028-9","display":"Asian"}},{"url":"text","valueString":"Asian"}]},{"url":"http://hl7.org/fhir/us/core/StructureDefinition/us-core-ethnicity","extension":[{"url":"ombCategory","valueCoding":{"system":"urn:oid:2.16.840.1.113883.6.238","code":"2135-2","display":"Hispanic or Latino"}},{"url":"text","valueString":"Hispanic or Latino"}]}],"identifier":[{"system":"http://hospital.smarthealthit.org","value":"999999995"}],"name":[{"family":"Bertha","given":["Betty"]}],"gender":"female","birthDate":"2007-01-01"},"request":{"method":"PUT","url":"Patient/1df58f4a-37fb-46e6-b20d-fc4a8b57d77e"}},{"fullUrl":"https://madie.cms.gov/Encounter/Encounter-47","resource":{"resourceType":"Encounter","id":"c4429de8-2b06-480d-a4ec-68c2b252ed39","meta":{"profile":["http://hl7.org/fhir/us/qicore/StructureDefinition/qicore-encounter"]},"status":"finished","class":{"system":"http://terminology.hl7.org/CodeSystem/v3-ActCode","code":"AMB","display":"ambulatory"},"type":[{"coding":[{"system":"http://snomed.info/sct","code":"185317003","display":"Telephone encounter (procedure)"}]}],"subject":{"reference":"Patient/1df58f4a-37fb-46e6-b20d-fc4a8b57d77e"},"period":{"start":"2025-01-01T01:00:00.000Z","end":"2025-01-01T01:15:00.000Z"}},"request":{"method":"PUT","url":"Encounter/c4429de8-2b06-480d-a4ec-68c2b252ed39"}},{"fullUrl":"https://madie.cms.gov/Encounter/Encounter-48","resource":{"resourceType":"Encounter","id":"4c4be99e-d2fb-4e2a-8691-3cba9d50d871","meta":{"profile":["http://hl7.org/fhir/us/qicore/StructureDefinition/qicore-encounter"]},"status":"finished","class":{"system":"http://terminology.hl7.org/CodeSystem/v3-ActCode","code":"AMB","display":"ambulatory"},"type":[{"coding":[{"system":"http://snomed.info/sct","code":"185317003","display":"Telephone encounter (procedure)"}]}],"subject":{"reference":"Patient/1df58f4a-37fb-46e6-b20d-fc4a8b57d77e"},"period":{"start":"2025-01-02T01:00:00.000Z","end":"2025-01-02T01:15:00.000Z"}},"request":{"method":"PUT","url":"Encounter/4c4be99e-d2fb-4e2a-8691-3cba9d50d871"}},{"fullUrl":"https://madie.cms.gov/Condition/Condition-21","resource":{"resourceType":"Condition","id":"be6ef45f-fe3c-4745-b6a4-a17ae5d1f8c2","meta":{"profile":["http://hl7.org/fhir/us/qicore/StructureDefinition/qicore-condition"]},"clinicalStatus":{"coding":[{"system":"http://terminology.hl7.org/CodeSystem/condition-clinical","code":"active"}]},"category":[{"coding":[{"system":"http://terminology.hl7.org/CodeSystem/condition-category","code":"problem-list-item","display":"Problem List Item"}]}],"code":{"coding":[{"system":"http://snomed.info/sct","code":"10091002","display":"High output heart failure (disorder)"}]},"subject":{"reference":"Patient/1df58f4a-37fb-46e6-b20d-fc4a8b57d77e"},"onsetDateTime":"2024-12-31T23:59:00.000Z"},"request":{"method":"PUT","url":"Condition/be6ef45f-fe3c-4745-b6a4-a17ae5d1f8c2"}},{"fullUrl":"https://madie.cms.gov/Observation/Observation-65","resource":{"resourceType":"Observation","id":"26f2c480-3e44-4659-afde-8bf646bc03ee","meta":{"profile":["http://hl7.org/fhir/us/qicore/StructureDefinition/qicore-observation"]},"status":"final","category":[{"coding":[{"system":"http://terminology.hl7.org/CodeSystem/observation-category","code":"survey","display":"survey"}],"text":"survey"}],"code":{"coding":[{"system":"http://loinc.org","code":"72189-4","display":"Quality of life score [KCCQ]"}]},"subject":{"reference":"Patient/1df58f4a-37fb-46e6-b20d-fc4a8b57d77e"},"effectivePeriod":{"start":"2025-01-01T23:00:00.000Z","end":"2025-01-01T23:59:00.000Z"},"valueInteger":4},"request":{"method":"PUT","url":"Observation/26f2c480-3e44-4659-afde-8bf646bc03ee"}},{"fullUrl":"https://madie.cms.gov/Observation/Observation-66","resource":{"resourceType":"Observation","id":"9a9bc8ba-7c51-493b-9781-4d1be1c52acf","meta":{"profile":["http://hl7.org/fhir/us/qicore/StructureDefinition/qicore-observation"]},"status":"final","category":[{"coding":[{"system":"http://terminology.hl7.org/CodeSystem/observation-category","code":"survey","display":"survey"}],"text":"survey"}],"code":{"coding":[{"system":"http://loinc.org","code":"72189-4","display":"Quality of life score [KCCQ]"}]},"subject":{"reference":"Patient/1df58f4a-37fb-46e6-b20d-fc4a8b57d77e"},"effectivePeriod":{"start":"2025-07-03T23:00:00.000Z","end":"2025-07-03T23:59:00.000Z"},"valueInteger":4},"request":{"method":"PUT","url":"Observation/9a9bc8ba-7c51-493b-9781-4d1be1c52acf"}},{"fullUrl":"https://madie.cms.gov/Observation/Observation-67","resource":{"resourceType":"Observation","id":"4c71bda3-e284-418d-9875-45c4b48fe129","meta":{"profile":["http://hl7.org/fhir/us/qicore/StructureDefinition/qicore-observation"]},"status":"final","category":[{"coding":[{"system":"http://terminology.hl7.org/CodeSystem/observation-category","code":"survey","display":"survey"}],"text":"survey"}],"code":{"coding":[{"system":"http://loinc.org","code":"72194-4","display":"Symptom stability score [KCCQ]"}]},"subject":{"reference":"Patient/1df58f4a-37fb-46e6-b20d-fc4a8b57d77e"},"effectivePeriod":{"start":"2025-01-01T23:00:00.000Z","end":"2025-01-01T23:59:00.000Z"},"valueInteger":4},"request":{"method":"PUT","url":"Observation/4c71bda3-e284-418d-9875-45c4b48fe129"}},{"fullUrl":"https://madie.cms.gov/Observation/Observation-68","resource":{"resourceType":"Observation","id":"ff73b27f-ffaa-457b-8d90-6c286479053f","meta":{"profile":["http://hl7.org/fhir/us/qicore/StructureDefinition/qicore-observation"]},"status":"final","category":[{"coding":[{"system":"http://terminology.hl7.org/CodeSystem/observation-category","code":"survey","display":"survey"}],"text":"survey"}],"code":{"coding":[{"system":"http://loinc.org","code":"72194-4","display":"Symptom stability score [KCCQ]"}]},"subject":{"reference":"Patient/1df58f4a-37fb-46e6-b20d-fc4a8b57d77e"},"effectivePeriod":{"start":"2025-06-30T23:00:00.000Z","end":"2025-06-30T23:59:00.000Z"},"valueInteger":4},"request":{"method":"PUT","url":"Observation/ff73b27f-ffaa-457b-8d90-6c286479053f"}},{"fullUrl":"https://madie.cms.gov/Observation/Observation-69","resource":{"resourceType":"Observation","id":"b5d839eb-f7a2-4f29-a296-446ea68f66ee","meta":{"profile":["http://hl7.org/fhir/us/qicore/StructureDefinition/qicore-observation"]},"status":"final","category":[{"coding":[{"system":"http://terminology.hl7.org/CodeSystem/observation-category","code":"survey","display":"survey"}],"text":"survey"}],"code":{"coding":[{"system":"http://loinc.org","code":"72190-2","display":"Self-efficacy score [KCCQ]"}]},"subject":{"reference":"Patient/1df58f4a-37fb-46e6-b20d-fc4a8b57d77e"},"effectivePeriod":{"start":"2025-01-01T23:00:00.000Z","end":"2025-01-01T23:59:00.000Z"},"valueInteger":4},"request":{"method":"PUT","url":"Observation/b5d839eb-f7a2-4f29-a296-446ea68f66ee"}},{"fullUrl":"https://madie.cms.gov/Observation/Observation-70","resource":{"resourceType":"Observation","id":"90a9f6f2-7e68-47fc-84eb-d0e31020fa2d","meta":{"profile":["http://hl7.org/fhir/us/qicore/StructureDefinition/qicore-observation"]},"status":"final","category":[{"coding":[{"system":"http://terminology.hl7.org/CodeSystem/observation-category","code":"survey","display":"survey"}],"text":"survey"}],"code":{"coding":[{"system":"http://loinc.org","code":"72190-2","display":"Self-efficacy score [KCCQ]"}]},"subject":{"reference":"Patient/1df58f4a-37fb-46e6-b20d-fc4a8b57d77e"},"effectivePeriod":{"start":"2025-06-30T23:00:00.000Z","end":"2025-06-30T23:59:00.000Z"},"valueInteger":4},"request":{"method":"PUT","url":"Observation/90a9f6f2-7e68-47fc-84eb-d0e31020fa2d"}},{"fullUrl":"https://madie.cms.gov/Observation/Observation-71","resource":{"resourceType":"Observation","id":"1be85489-13f3-4df8-ae1a-da9cb0c31c93","meta":{"profile":["http://hl7.org/fhir/us/qicore/StructureDefinition/qicore-observation"]},"status":"final","category":[{"coding":[{"system":"http://terminology.hl7.org/CodeSystem/observation-category","code":"survey","display":"survey"}],"text":"survey"}],"code":{"coding":[{"system":"http://loinc.org","code":"72191-0","display":"Total symptom score [KCCQ]"}]},"subject":{"reference":"Patient/1df58f4a-37fb-46e6-b20d-fc4a8b57d77e"},"effectivePeriod":{"start":"2025-01-01T23:00:00.000Z","end":"2025-01-01T23:59:00.000Z"},"valueInteger":4},"request":{"method":"PUT","url":"Observation/1be85489-13f3-4df8-ae1a-da9cb0c31c93"}},{"fullUrl":"https://madie.cms.gov/Observation/Observation-72","resource":{"resourceType":"Observation","id":"626f5f74-abb4-4d58-b01c-719823ced4f8","meta":{"profile":["http://hl7.org/fhir/us/qicore/StructureDefinition/qicore-observation"]},"status":"final","category":[{"coding":[{"system":"http://terminology.hl7.org/CodeSystem/observation-category","code":"survey","display":"survey"}],"text":"survey"}],"code":{"coding":[{"system":"http://loinc.org","code":"72191-0","display":"Total symptom score [KCCQ]"}]},"subject":{"reference":"Patient/1df58f4a-37fb-46e6-b20d-fc4a8b57d77e"},"effectivePeriod":{"start":"2025-06-30T23:00:00.000Z","end":"2025-06-30T23:59:00.000Z"},"valueInteger":4},"request":{"method":"PUT","url":"Observation/626f5f74-abb4-4d58-b01c-719823ced4f8"}},{"fullUrl":"https://madie.cms.gov/Observation/Observation-73","resource":{"resourceType":"Observation","id":"d8615a4f-f097-4abe-9f35-80b2b2b7f76c","meta":{"profile":["http://hl7.org/fhir/us/qicore/StructureDefinition/qicore-observation"]},"status":"final","category":[{"coding":[{"system":"http://terminology.hl7.org/CodeSystem/observation-category","code":"survey","display":"survey"}],"text":"survey"}],"code":{"coding":[{"system":"http://loinc.org","code":"72195-1","display":"Physical limitation score [KCCQ]"}]},"subject":{"reference":"Patient/1df58f4a-37fb-46e6-b20d-fc4a8b57d77e"},"effectivePeriod":{"start":"2025-01-01T23:00:00.000Z","end":"2025-01-01T23:59:00.000Z"},"valueInteger":4},"request":{"method":"PUT","url":"Observation/d8615a4f-f097-4abe-9f35-80b2b2b7f76c"}},{"fullUrl":"https://madie.cms.gov/Observation/Observation-74","resource":{"resourceType":"Observation","id":"e6465939-4d39-413b-bed5-3b709163ce8c","meta":{"profile":["http://hl7.org/fhir/us/qicore/StructureDefinition/qicore-observation"]},"status":"final","category":[{"coding":[{"system":"http://terminology.hl7.org/CodeSystem/observation-category","code":"survey","display":"survey"}],"text":"survey"}],"code":{"coding":[{"system":"http://loinc.org","code":"72195-1","display":"Physical limitation score [KCCQ]"}]},"subject":{"reference":"Patient/1df58f4a-37fb-46e6-b20d-fc4a8b57d77e"},"effectivePeriod":{"start":"2025-06-30T23:00:00.000Z","end":"2025-06-30T23:59:00.000Z"},"valueInteger":4},"request":{"method":"PUT","url":"Observation/e6465939-4d39-413b-bed5-3b709163ce8c"}},{"fullUrl":"https://madie.cms.gov/Observation/Observation-75","resource":{"resourceType":"Observation","id":"d01e4cb3-5b8b-4213-98bc-b217722e3ae8","meta":{"profile":["http://hl7.org/fhir/us/qicore/StructureDefinition/qicore-observation"]},"status":"final","category":[{"coding":[{"system":"http://terminology.hl7.org/CodeSystem/observation-category","code":"survey","display":"survey"}],"text":"survey"}],"code":{"coding":[{"system":"http://loinc.org","code":"72196-9","display":"Social limitation score [KCCQ]"}]},"subject":{"reference":"Patient/1df58f4a-37fb-46e6-b20d-fc4a8b57d77e"},"effectivePeriod":{"start":"2025-01-01T23:00:00.000Z","end":"2025-01-01T23:59:00.000Z"},"valueInteger":4},"request":{"method":"PUT","url":"Observation/d01e4cb3-5b8b-4213-98bc-b217722e3ae8"}},{"fullUrl":"https://madie.cms.gov/Observation/Observation-76","resource":{"resourceType":"Observation","id":"7d928182-4ae8-4dee-a461-0396c5f916dd","meta":{"profile":["http://hl7.org/fhir/us/qicore/StructureDefinition/qicore-observation"]},"status":"final","category":[{"coding":[{"system":"http://terminology.hl7.org/CodeSystem/observation-category","code":"survey","display":"survey"}],"text":"survey"}],"code":{"coding":[{"system":"http://loinc.org","code":"72196-9","display":"Social limitation score [KCCQ]"}]},"subject":{"reference":"Patient/1df58f4a-37fb-46e6-b20d-fc4a8b57d77e"},"effectivePeriod":{"start":"2025-06-30T23:00:00.000Z","end":"2025-06-30T23:59:00.000Z"},"valueInteger":4},"request":{"method":"PUT","url":"Observation/7d928182-4ae8-4dee-a461-0396c5f916dd"}},{"fullUrl":"https://madie.cms.gov/MeasureReport/7db0611d-1ec7-44fe-8d26-d263b3a62076","resource":{"resourceType":"MeasureReport","id":"7db0611d-1ec7-44fe-8d26-d263b3a62076","meta":{"profile":["http://hl7.org/fhir/us/cqfmeasures/StructureDefinition/test-case-cqfm"]},"contained":[{"resourceType":"Parameters","id":"4dfa22bb-3243-4239-a4b6-a8d6408a7ae7-parameters","parameter":[{"name":"subject","valueString":"1df58f4a-37fb-46e6-b20d-fc4a8b57d77e"}]}],"extension":[{"url":"http://hl7.org/fhir/us/cqfmeasures/StructureDefinition/cqfm-inputParameters","valueReference":{"reference":"#4dfa22bb-3243-4239-a4b6-a8d6408a7ae7-parameters"}},{"url":"http://hl7.org/fhir/us/cqfmeasures/StructureDefinition/cqfm-testCaseDescription","valueMarkdown":"Patient has one KCCQ Domain assessments that is 181 days after their initial FSA."}],"modifierExtension":[{"url":"http://hl7.org/fhir/us/cqfmeasures/StructureDefinition/cqfm-isTestCase","valueBoolean":true}],"status":"complete","type":"individual","measure":"https://madie.cms.gov/Measure/FunctionalStatusAssessmentsforHeartFailureFHIR","period":{"start":"2025-01-01","end":"2025-12-31"},"group":[{"population":[{"code":{"coding":[{"system":"http://terminology.hl7.org/CodeSystem/measure-population","code":"initial-population","display":"Initial Population"}]},"count":1},{"code":{"coding":[{"system":"http://terminology.hl7.org/CodeSystem/measure-population","code":"denominator","display":"Denominator"}]},"count":1},{"code":{"coding":[{"system":"http://terminology.hl7.org/CodeSystem/measure-population","code":"denominator-exclusion","display":"Denominator Exclusion"}]},"count":0},{"code":{"coding":[{"system":"http://terminology.hl7.org/CodeSystem/measure-population","code":"numerator","display":"Numerator"}]},"count":0}]}]},"request":{"method":"PUT","url":"MeasureReport/7db0611d-1ec7-44fe-8d26-d263b3a62076"}}]}