{"resourceType":"Bundle","id":"tests-a7bf6cfb-2548-4992-8c61-2c21468ff562-bundle","type":"transaction","entry":[{"fullUrl":"https://madie.cms.gov/Patient/a7bf6cfb-2548-4992-8c61-2c21468ff562","resource":{"resourceType":"Patient","id":"a7bf6cfb-2548-4992-8c61-2c21468ff562","meta":{"profile":["http://hl7.org/fhir/us/qicore/StructureDefinition/qicore-patient"]},"extension":[{"url":"http://hl7.org/fhir/us/core/StructureDefinition/us-core-race","extension":[{"url":"ombCategory","valueCoding":{"system":"urn:oid:2.16.840.1.113883.6.238","code":"2028-9","display":"Asian"}},{"url":"text","valueString":"Asian"}]},{"url":"http://hl7.org/fhir/us/core/StructureDefinition/us-core-ethnicity","extension":[{"url":"ombCategory","valueCoding":{"system":"urn:oid:2.16.840.1.113883.6.238","code":"2135-2","display":"Hispanic or Latino"}},{"url":"text","valueString":"Hispanic or Latino"}]}],"identifier":[{"system":"http://hospital.smarthealthit.org","value":"999999995"}],"name":[{"family":"Bertha","given":["Betty"]}],"gender":"female","birthDate":"2007-01-01"},"request":{"method":"PUT","url":"Patient/a7bf6cfb-2548-4992-8c61-2c21468ff562"}},{"fullUrl":"https://madie.cms.gov/Encounter/Encounter-38","resource":{"resourceType":"Encounter","id":"fc194fa1-b667-423d-8cb4-9791eb87e4cd","meta":{"profile":["http://hl7.org/fhir/us/qicore/StructureDefinition/qicore-encounter"]},"status":"finished","class":{"system":"http://terminology.hl7.org/CodeSystem/v3-ActCode","code":"AMB","display":"ambulatory"},"type":[{"coding":[{"system":"http://snomed.info/sct","code":"185317003","display":"Telephone encounter (procedure)"}]}],"subject":{"reference":"Patient/a7bf6cfb-2548-4992-8c61-2c21468ff562"},"period":{"start":"2025-01-01T01:00:00.000Z","end":"2025-01-01T01:15:00.000Z"}},"request":{"method":"PUT","url":"Encounter/fc194fa1-b667-423d-8cb4-9791eb87e4cd"}},{"fullUrl":"https://madie.cms.gov/Encounter/Encounter-40","resource":{"resourceType":"Encounter","id":"2bb99dce-f42b-4c47-9fae-2f8d5d2a62b4","meta":{"profile":["http://hl7.org/fhir/us/qicore/StructureDefinition/qicore-encounter"]},"status":"finished","class":{"system":"http://terminology.hl7.org/CodeSystem/v3-ActCode","code":"AMB","display":"ambulatory"},"type":[{"coding":[{"system":"http://snomed.info/sct","code":"185317003","display":"Telephone encounter (procedure)"}]}],"subject":{"reference":"Patient/a7bf6cfb-2548-4992-8c61-2c21468ff562"},"period":{"start":"2025-01-02T01:00:00.000Z","end":"2025-01-02T01:15:00.000Z"}},"request":{"method":"PUT","url":"Encounter/2bb99dce-f42b-4c47-9fae-2f8d5d2a62b4"}},{"fullUrl":"https://madie.cms.gov/Condition/Condition-19","resource":{"resourceType":"Condition","id":"e13b5150-4f66-47d7-9225-290d4027311c","meta":{"profile":["http://hl7.org/fhir/us/qicore/StructureDefinition/qicore-condition"]},"clinicalStatus":{"coding":[{"system":"http://terminology.hl7.org/CodeSystem/condition-clinical","code":"active"}]},"category":[{"coding":[{"system":"http://terminology.hl7.org/CodeSystem/condition-category","code":"problem-list-item","display":"Problem List Item"}]}],"code":{"coding":[{"system":"http://snomed.info/sct","code":"10091002","display":"High output heart failure (disorder)"}]},"subject":{"reference":"Patient/a7bf6cfb-2548-4992-8c61-2c21468ff562"},"onsetDateTime":"2024-12-31T23:59:00.000Z"},"request":{"method":"PUT","url":"Condition/e13b5150-4f66-47d7-9225-290d4027311c"}},{"fullUrl":"https://madie.cms.gov/Observation/Observation-57","resource":{"resourceType":"Observation","id":"1cf031ae-24ed-4775-89a7-50871ca5816c","meta":{"profile":["http://hl7.org/fhir/us/qicore/StructureDefinition/qicore-observation"]},"status":"final","category":[{"coding":[{"system":"http://terminology.hl7.org/CodeSystem/observation-category","code":"survey","display":"survey"}],"text":"survey"}],"code":{"coding":[{"system":"http://loinc.org","code":"86923-0","display":"Kansas City Cardiomyopathy Questionnaire - 12 item [KCCQ-12]"}]},"subject":{"reference":"Patient/a7bf6cfb-2548-4992-8c61-2c21468ff562"},"effectivePeriod":{"start":"2025-01-01T23:00:00.000Z","end":"2025-01-01T23:59:00.000Z"},"valueInteger":4},"request":{"method":"PUT","url":"Observation/1cf031ae-24ed-4775-89a7-50871ca5816c"}},{"fullUrl":"https://madie.cms.gov/Observation/Observation-58","resource":{"resourceType":"Observation","id":"4647f113-f011-4b50-a936-3bff69e2eccc","meta":{"profile":["http://hl7.org/fhir/us/qicore/StructureDefinition/qicore-observation"]},"status":"final","category":[{"coding":[{"system":"http://terminology.hl7.org/CodeSystem/observation-category","code":"survey","display":"survey"}],"text":"survey"}],"code":{"coding":[{"system":"http://loinc.org","code":"86923-0","display":"Kansas City Cardiomyopathy Questionnaire - 12 item [KCCQ-12]"}]},"subject":{"reference":"Patient/a7bf6cfb-2548-4992-8c61-2c21468ff562"},"effectivePeriod":{"start":"2025-01-30T23:00:00.000Z","end":"2025-01-30T23:59:00.000Z"},"valueInteger":4},"request":{"method":"PUT","url":"Observation/4647f113-f011-4b50-a936-3bff69e2eccc"}},{"fullUrl":"https://madie.cms.gov/Observation/Observation-59","resource":{"resourceType":"Observation","id":"881d53ce-e268-474d-9bdc-4601b0500247","meta":{"profile":["http://hl7.org/fhir/us/qicore/StructureDefinition/qicore-observation"]},"status":"final","category":[{"coding":[{"system":"http://terminology.hl7.org/CodeSystem/observation-category","code":"survey","display":"survey"}],"text":"survey"}],"code":{"coding":[{"system":"http://loinc.org","code":"86924-8","display":"Overall summary score [KCCQ-12]"}]},"subject":{"reference":"Patient/a7bf6cfb-2548-4992-8c61-2c21468ff562"},"effectivePeriod":{"start":"2025-01-01T23:00:00.000Z","end":"2025-01-01T23:59:00.000Z"},"valueInteger":4},"request":{"method":"PUT","url":"Observation/881d53ce-e268-474d-9bdc-4601b0500247"}},{"fullUrl":"https://madie.cms.gov/Observation/Observation-60","resource":{"resourceType":"Observation","id":"8cafb32c-36d1-49dd-820c-f627d8eaacf6","meta":{"profile":["http://hl7.org/fhir/us/qicore/StructureDefinition/qicore-observation"]},"status":"final","category":[{"coding":[{"system":"http://terminology.hl7.org/CodeSystem/observation-category","code":"survey","display":"survey"}],"text":"survey"}],"code":{"coding":[{"system":"http://loinc.org","code":"86924-8","display":"Overall summary score [KCCQ-12]"}]},"subject":{"reference":"Patient/a7bf6cfb-2548-4992-8c61-2c21468ff562"},"effectivePeriod":{"start":"2025-01-30T23:00:00.000Z","end":"2025-01-30T23:59:00.000Z"},"valueInteger":4},"request":{"method":"PUT","url":"Observation/8cafb32c-36d1-49dd-820c-f627d8eaacf6"}},{"fullUrl":"https://madie.cms.gov/MeasureReport/5b788750-d3a5-42ac-ba03-149de19a6a18","resource":{"resourceType":"MeasureReport","id":"5b788750-d3a5-42ac-ba03-149de19a6a18","meta":{"profile":["http://hl7.org/fhir/us/cqfmeasures/StructureDefinition/test-case-cqfm"]},"contained":[{"resourceType":"Parameters","id":"5c3fc73c-57bf-4ea9-96fa-ba9f07af1d1d-parameters","parameter":[{"name":"subject","valueString":"a7bf6cfb-2548-4992-8c61-2c21468ff562"}]}],"extension":[{"url":"http://hl7.org/fhir/us/cqfmeasures/StructureDefinition/cqfm-inputParameters","valueReference":{"reference":"#5c3fc73c-57bf-4ea9-96fa-ba9f07af1d1d-parameters"}},{"url":"http://hl7.org/fhir/us/cqfmeasures/StructureDefinition/cqfm-testCaseDescription","valueMarkdown":"Patient has all KCCQ12 with results but one follow up occurs 29 days after initial follow up. "}],"modifierExtension":[{"url":"http://hl7.org/fhir/us/cqfmeasures/StructureDefinition/cqfm-isTestCase","valueBoolean":true}],"status":"complete","type":"individual","measure":"https://madie.cms.gov/Measure/FunctionalStatusAssessmentsforHeartFailureFHIR","period":{"start":"2025-01-01","end":"2025-12-31"},"group":[{"population":[{"code":{"coding":[{"system":"http://terminology.hl7.org/CodeSystem/measure-population","code":"initial-population","display":"Initial Population"}]},"count":1},{"code":{"coding":[{"system":"http://terminology.hl7.org/CodeSystem/measure-population","code":"denominator","display":"Denominator"}]},"count":1},{"code":{"coding":[{"system":"http://terminology.hl7.org/CodeSystem/measure-population","code":"denominator-exclusion","display":"Denominator Exclusion"}]},"count":0},{"code":{"coding":[{"system":"http://terminology.hl7.org/CodeSystem/measure-population","code":"numerator","display":"Numerator"}]},"count":0}]}]},"request":{"method":"PUT","url":"MeasureReport/5b788750-d3a5-42ac-ba03-149de19a6a18"}}]}