{"resourceType":"Bundle","id":"tests-b13bed65-b8cd-4905-b3c7-81a9c11dffc2-bundle","type":"transaction","entry":[{"fullUrl":"https://madie.cms.gov/Patient/b13bed65-b8cd-4905-b3c7-81a9c11dffc2","resource":{"resourceType":"Patient","id":"b13bed65-b8cd-4905-b3c7-81a9c11dffc2","meta":{"profile":["http://hl7.org/fhir/us/qicore/StructureDefinition/qicore-patient"]},"text":{"status":"generated","div":"<div xmlns=\"http://www.w3.org/1999/xhtml\"><div class=\"hapiHeaderText\">ScreAtriRefAsseModDxCp2, , <b> </b></div><table class=\"hapiPropertyTable\"><tbody><tr><td>Identifier</td><td>ScreAtriRefAsseModDxCp2</td></tr><tr><td>Date of birth</td><td><span>14 May 1950</span></td></tr></tbody></table></div>"},"extension":[{"url":"http://hl7.org/fhir/us/core/StructureDefinition/us-core-race","extension":[{"url":"ombCategory","valueCoding":{"system":"urn:oid:2.16.840.1.113883.6.238","code":"2106-3","display":"White","userSelected":true}},{"url":"text","valueString":"White"}]},{"url":"http://hl7.org/fhir/us/core/StructureDefinition/us-core-ethnicity","extension":[{"url":"ombCategory","valueCoding":{"system":"urn:oid:2.16.840.1.113883.6.238","code":"2186-5","display":"Not Hispanic or Latino","userSelected":true}},{"url":"text","valueString":"Not Hispanic or Latino"}]}],"identifier":[{"type":{"coding":[{"system":"http://terminology.hl7.org/CodeSystem/v2-0203","code":"MR"}]},"system":"https://madie.cms.gov/","value":"ScreAtriRefAsseModDxCp2"}],"active":true,"name":[{"use":"usual","text":"ScreAtriRefAsseModDxCp2","family":"DENOMPass4","given":["ScreAtriRefAsseModDxCp2DENOMPass4"]}],"gender":"male","birthDate":"1950-05-14","address":[{"text":"ScreAtriRefAsseModDxCp2, Screened Not at risk Assessed Severely Malnourished Diagnosed Care Plan, ID=ScreAtriRefAsseModDxCp2, DOB: 14 May 1950"}]},"request":{"method":"PUT","url":"Patient/b13bed65-b8cd-4905-b3c7-81a9c11dffc2"}},{"fullUrl":"https://madie.cms.gov/Encounter/ScreAtriRefAsseModDxCp2-01","resource":{"resourceType":"Encounter","id":"143b065b-1531-457d-82b4-fb0ac9747553","meta":{"profile":["http://hl7.org/fhir/us/qicore/StructureDefinition/qicore-encounter"]},"status":"finished","class":{"system":"http://terminology.hl7.org/CodeSystem/v3-ActCode","code":"IMP","display":"inpatient encounter"},"type":[{"coding":[{"system":"http://snomed.info/sct","code":"183452005"}]}],"subject":{"reference":"Patient/b13bed65-b8cd-4905-b3c7-81a9c11dffc2"},"period":{"start":"2026-02-01T08:00:00.000Z","end":"2026-02-07T08:15:00.000Z"}},"request":{"method":"PUT","url":"Encounter/143b065b-1531-457d-82b4-fb0ac9747553"}},{"fullUrl":"https://madie.cms.gov/Condition/ScreAtriRefAsseModDxCp2-06","resource":{"resourceType":"Condition","id":"0068bed3-89f9-4f54-9c48-55267943e0f8","meta":{"profile":["http://hl7.org/fhir/us/qicore/StructureDefinition/qicore-condition"]},"clinicalStatus":{"coding":[{"system":"http://terminology.hl7.org/CodeSystem/condition-clinical","code":"active","display":"Active","userSelected":true}]},"verificationStatus":{"coding":[{"system":"http://terminology.hl7.org/CodeSystem/condition-ver-status","code":"confirmed","display":"Confirmed","userSelected":true}]},"category":[{"coding":[{"system":"http://terminology.hl7.org/CodeSystem/condition-category","code":"encounter-diagnosis","display":"Encounter Diagnosis","userSelected":true}]}],"code":{"coding":[{"system":"http://hl7.org/fhir/sid/icd-10-cm","code":"E43","display":"Unspecified severe protein-calorie malnutrition","userSelected":true}]},"subject":{"reference":"Patient/b13bed65-b8cd-4905-b3c7-81a9c11dffc2"},"onsetPeriod":{"start":"2026-02-01T08:00:00.000+00:00"},"recordedDate":"2026-02-01T11:00:00.000+00:00"},"request":{"method":"PUT","url":"Condition/0068bed3-89f9-4f54-9c48-55267943e0f8"}},{"fullUrl":"https://madie.cms.gov/Observation/ScreAtriRefAsseModDxCp2-18","resource":{"resourceType":"Observation","id":"4867be57-d044-4a64-a36f-817eb524572a","meta":{"profile":["http://hl7.org/fhir/us/qicore/StructureDefinition/qicore-observation"]},"status":"final","category":[{"coding":[{"system":"http://terminology.hl7.org/CodeSystem/observation-category","code":"survey","display":"Survey"}]}],"code":{"coding":[{"system":"http://loinc.org","code":"98968-1","display":"Initial screening NRS_2002","userSelected":true}]},"subject":{"reference":"Patient/b13bed65-b8cd-4905-b3c7-81a9c11dffc2"},"effectiveDateTime":"2026-02-01T09:00:00.000+00:00","valueCodeableConcept":{"coding":[{"system":"http://snomed.info/sct","code":"704358009","display":"At risk for nutritional deficit (finding)","userSelected":true}]}},"request":{"method":"PUT","url":"Observation/4867be57-d044-4a64-a36f-817eb524572a"}},{"fullUrl":"https://madie.cms.gov/Observation/ScreAtriRefAsseModDxCp2-19","resource":{"resourceType":"Observation","id":"98470ba7-fbf2-41c3-b5cc-de35e4549fba","meta":{"profile":["http://hl7.org/fhir/us/qicore/StructureDefinition/qicore-observation"]},"status":"final","category":[{"coding":[{"system":"http://terminology.hl7.org/CodeSystem/observation-category","code":"survey","display":"Survey"}]}],"code":{"coding":[{"system":"http://loinc.org","code":"75285-7","display":"Comparative nutrition assessment standards panel","userSelected":true}]},"subject":{"reference":"Patient/b13bed65-b8cd-4905-b3c7-81a9c11dffc2"},"effectiveDateTime":"2026-02-01T10:00:00.000+00:00","valueCodeableConcept":{"coding":[{"system":"http://snomed.info/sct","code":"102636009","display":"Chronic nutritional deficiency (finding)","userSelected":true}]}},"request":{"method":"PUT","url":"Observation/98470ba7-fbf2-41c3-b5cc-de35e4549fba"}},{"fullUrl":"https://madie.cms.gov/Procedure/ScreAtriRefAsseModDxCp2-12","resource":{"resourceType":"Procedure","id":"861285d1-3db4-4573-a241-5657b919cc00","meta":{"profile":["http://hl7.org/fhir/us/qicore/StructureDefinition/qicore-procedure"]},"extension":[{"url":"http://hl7.org/fhir/us/qicore/StructureDefinition/qicore-recorded","valueDateTime":"2026-02-01T11:30:00.000Z"}],"status":"completed","code":{"coding":[{"system":"http://snomed.info/sct","code":"306165000","display":"Referral to hospital-based dietetics service (procedure)"}],"text":"Referral to hospital-based dietetics service (procedure)"},"subject":{"reference":"Patient/b13bed65-b8cd-4905-b3c7-81a9c11dffc2"},"encounter":{"reference":"Encounter/ScreAtriRefAsseModDxCp2DENOMPass4"},"performedPeriod":{"start":"2026-02-01T11:30:00.000Z","end":"2026-02-07T08:15:00.000Z"}},"request":{"method":"PUT","url":"Procedure/861285d1-3db4-4573-a241-5657b919cc00"}},{"fullUrl":"https://madie.cms.gov/Procedure/ScreAtriRefAsseModDxCp2-08","resource":{"resourceType":"Procedure","id":"ec5570ce-a01b-4d3f-9887-1ade05e78b44","meta":{"profile":["http://hl7.org/fhir/us/qicore/StructureDefinition/qicore-procedure"]},"extension":[{"url":"http://hl7.org/fhir/us/qicore/StructureDefinition/qicore-recorded","valueDateTime":"2026-02-02T11:30:00.000Z"}],"status":"completed","code":{"coding":[{"system":"http://snomed.info/sct","code":"182922004","display":"Dietary regime (regime/therapy)"}],"text":"Dietary regime (regime/therapy)"},"subject":{"reference":"Patient/b13bed65-b8cd-4905-b3c7-81a9c11dffc2"},"encounter":{"reference":"Encounter/ScreAtriRefAsseModDxCp2DENOMPass4"},"performedPeriod":{"start":"2026-02-01T11:30:00.000Z","end":"2026-02-07T08:15:00.000Z"}},"request":{"method":"PUT","url":"Procedure/ec5570ce-a01b-4d3f-9887-1ade05e78b44"}},{"fullUrl":"https://madie.cms.gov/Coverage/ScreAtriRefAsseModDxCp2-61","resource":{"resourceType":"Coverage","id":"f6861139-edae-4a33-a711-87fd28e65161","meta":{"profile":["http://hl7.org/fhir/us/qicore/StructureDefinition/qicore-coverage"]},"status":"active","type":{"coding":[{"system":"https://nahdo.org/sopt","version":"9.2","code":"11","display":"Medicare Managed Care (Includes Medicare Advantage Plans)"}]},"beneficiary":{"reference":"Patient/b13bed65-b8cd-4905-b3c7-81a9c11dffc2"},"period":{"start":"2026-10-01T00:00:00+00:00"},"payor":[{"reference":"Organization/4b5a882f-1f43-485c-85c6-f5ad2337d5b1"}]},"request":{"method":"PUT","url":"Coverage/f6861139-edae-4a33-a711-87fd28e65161"}},{"fullUrl":"https://madie.cms.gov/Organization/ScreAtriRefAsseModDxCp2-98","resource":{"resourceType":"Organization","id":"4b5a882f-1f43-485c-85c6-f5ad2337d5b1","meta":{"profile":["http://hl7.org/fhir/us/qicore/StructureDefinition/qicore-organization"]},"identifier":[{"use":"temp","system":"urn:oid:2.16.840.1.113883.4.4","value":"21-3259825"}],"active":true,"type":[{"coding":[{"system":"http://terminology.hl7.org/CodeSystem/organization-type","code":"pay","display":"Payer"}]}],"name":"Blue Cross Blue Shield of Texas","telecom":[{"system":"phone","value":"(+1) 972-766-6900"}],"address":[{"use":"billing","type":"postal","line":["P.O. Box 660044"],"city":"Dallas","state":"TX","postalCode":"75266-0044","country":"USA"}]},"request":{"method":"PUT","url":"Organization/4b5a882f-1f43-485c-85c6-f5ad2337d5b1"}},{"fullUrl":"https://madie.cms.gov/MeasureReport/b3105494-4832-44ad-8074-912fe7b84b96","resource":{"resourceType":"MeasureReport","id":"b3105494-4832-44ad-8074-912fe7b84b96","meta":{"profile":["http://hl7.org/fhir/us/cqfmeasures/StructureDefinition/test-case-cqfm"]},"contained":[{"resourceType":"Parameters","id":"bdb86d92-c6f9-4e5d-bdac-ef3aadb77fb0-parameters","parameter":[{"name":"subject","valueString":"b13bed65-b8cd-4905-b3c7-81a9c11dffc2"}]}],"extension":[{"url":"http://hl7.org/fhir/us/cqfmeasures/StructureDefinition/cqfm-inputParameters","valueReference":{"reference":"#bdb86d92-c6f9-4e5d-bdac-ef3aadb77fb0-parameters"}},{"url":"http://hl7.org/fhir/us/cqfmeasures/StructureDefinition/cqfm-testCaseDescription","valueMarkdown":"Screened, At Risk, Referral, Assessed, Moderate Malnutrition, Diagnosis, Nutrition Care Plan"}],"modifierExtension":[{"url":"http://hl7.org/fhir/us/cqfmeasures/StructureDefinition/cqfm-isTestCase","valueBoolean":true}],"status":"complete","type":"individual","measure":"https://madie.cms.gov/Measure/GlobalMalnutritionCompositeFHIR","period":{"start":"2026-01-01","end":"2026-12-31"},"group":[{"population":[{"code":{"coding":[{"system":"http://terminology.hl7.org/CodeSystem/measure-population","code":"initial-population","display":"Initial Population"}]},"count":1},{"code":{"coding":[{"system":"http://terminology.hl7.org/CodeSystem/measure-population","code":"measure-population","display":"Measure Population"}]},"count":1},{"code":{"coding":[{"system":"http://terminology.hl7.org/CodeSystem/measure-population","code":"measure-population-observation","display":"Measure Population Observation"}]},"count":1}]},{"population":[{"code":{"coding":[{"system":"http://terminology.hl7.org/CodeSystem/measure-population","code":"initial-population","display":"Initial Population"}]},"count":1},{"code":{"coding":[{"system":"http://terminology.hl7.org/CodeSystem/measure-population","code":"measure-population","display":"Measure Population"}]},"count":1},{"code":{"coding":[{"system":"http://terminology.hl7.org/CodeSystem/measure-population","code":"measure-population-observation","display":"Measure Population Observation"}]},"count":1}]},{"population":[{"code":{"coding":[{"system":"http://terminology.hl7.org/CodeSystem/measure-population","code":"initial-population","display":"Initial Population"}]},"count":1},{"code":{"coding":[{"system":"http://terminology.hl7.org/CodeSystem/measure-population","code":"measure-population","display":"Measure Population"}]},"count":1},{"code":{"coding":[{"system":"http://terminology.hl7.org/CodeSystem/measure-population","code":"measure-population-observation","display":"Measure Population Observation"}]},"count":1}]},{"population":[{"code":{"coding":[{"system":"http://terminology.hl7.org/CodeSystem/measure-population","code":"initial-population","display":"Initial Population"}]},"count":1},{"code":{"coding":[{"system":"http://terminology.hl7.org/CodeSystem/measure-population","code":"measure-population","display":"Measure Population"}]},"count":1},{"code":{"coding":[{"system":"http://terminology.hl7.org/CodeSystem/measure-population","code":"measure-population-observation","display":"Measure Population Observation"}]},"count":0}]},{"population":[{"code":{"coding":[{"system":"http://terminology.hl7.org/CodeSystem/measure-population","code":"initial-population","display":"Initial Population"}]},"count":1},{"code":{"coding":[{"system":"http://terminology.hl7.org/CodeSystem/measure-population","code":"measure-population","display":"Measure Population"}]},"count":1},{"code":{"coding":[{"system":"http://terminology.hl7.org/CodeSystem/measure-population","code":"measure-population-observation","display":"Measure Population Observation"}]},"count":3}]},{"population":[{"code":{"coding":[{"system":"http://terminology.hl7.org/CodeSystem/measure-population","code":"initial-population","display":"Initial Population"}]},"count":1},{"code":{"coding":[{"system":"http://terminology.hl7.org/CodeSystem/measure-population","code":"measure-population","display":"Measure Population"}]},"count":1},{"code":{"coding":[{"system":"http://terminology.hl7.org/CodeSystem/measure-population","code":"measure-population-observation","display":"Measure Population Observation"}]},"count":75}]}]},"request":{"method":"PUT","url":"MeasureReport/b3105494-4832-44ad-8074-912fe7b84b96"}}]}