{"resourceType":"Bundle","id":"tests-19d1fe56-f3d5-45cf-a3ad-71fe4f70574d-bundle","type":"transaction","entry":[{"fullUrl":"https://madie.cms.gov/Patient/19d1fe56-f3d5-45cf-a3ad-71fe4f70574d","resource":{"resourceType":"Patient","id":"19d1fe56-f3d5-45cf-a3ad-71fe4f70574d","meta":{"profile":["http://hl7.org/fhir/us/qicore/StructureDefinition/qicore-patient"]},"text":{"status":"generated","div":"<div xmlns=\"http://www.w3.org/1999/xhtml\"><div class=\"hapiHeaderText\">ScreAtriRefAsseModNodxCp2, , <b> </b></div><table class=\"hapiPropertyTable\"><tbody><tr><td>Identifier</td><td>ScreAtriRefAsseModNodxCp2</td></tr><tr><td>Date of birth</td><td><span>14 May 1950</span></td></tr></tbody></table></div>"},"extension":[{"url":"http://hl7.org/fhir/us/core/StructureDefinition/us-core-race","extension":[{"url":"ombCategory","valueCoding":{"system":"urn:oid:2.16.840.1.113883.6.238","code":"2106-3","display":"White","userSelected":true}},{"url":"text","valueString":"White"}]},{"url":"http://hl7.org/fhir/us/core/StructureDefinition/us-core-ethnicity","extension":[{"url":"ombCategory","valueCoding":{"system":"urn:oid:2.16.840.1.113883.6.238","code":"2186-5","display":"Not Hispanic or Latino","userSelected":true}},{"url":"text","valueString":"Not Hispanic or Latino"}]}],"identifier":[{"type":{"coding":[{"system":"http://terminology.hl7.org/CodeSystem/v2-0203","code":"MR"}]},"system":"https://madie.cms.gov/","value":"ScreAtriRefAsseModNodxCp2"}],"active":true,"name":[{"use":"usual","text":"ScreAtriRefAsseModNodxCp2","family":"OCCURPass4","given":["ScreAtriRefAsseModNodxCp2OCCURPass4"]}],"gender":"male","birthDate":"1950-05-14","address":[{"text":"ScreAtriRefAsseModNodxCp2, Screened Not at risk Assessed Severely Malnourished Diagnosed Care Plan, ID=ScreAtriRefAsseModNodxCp2, DOB: 14 May 1950"}]},"request":{"method":"PUT","url":"Patient/19d1fe56-f3d5-45cf-a3ad-71fe4f70574d"}},{"fullUrl":"https://madie.cms.gov/Encounter/ScreAtriRefAsseModNodxCp2-01","resource":{"resourceType":"Encounter","id":"ba568aac-f5dc-4d2b-b8ff-4692f0c74a26","meta":{"profile":["http://hl7.org/fhir/us/qicore/StructureDefinition/qicore-encounter"]},"status":"finished","class":{"system":"http://terminology.hl7.org/CodeSystem/v3-ActCode","code":"IMP","display":"inpatient encounter"},"type":[{"coding":[{"system":"http://snomed.info/sct","code":"183452005"}]}],"subject":{"reference":"Patient/19d1fe56-f3d5-45cf-a3ad-71fe4f70574d"},"period":{"start":"2026-02-01T08:00:00.000Z","end":"2026-02-07T08:15:00.000Z"}},"request":{"method":"PUT","url":"Encounter/ba568aac-f5dc-4d2b-b8ff-4692f0c74a26"}},{"fullUrl":"https://madie.cms.gov/Observation/ScreAtriRefAsseModNodxCp2-18","resource":{"resourceType":"Observation","id":"4d408d40-92ad-41f4-8ff0-528c015361f4","meta":{"profile":["http://hl7.org/fhir/us/qicore/StructureDefinition/qicore-observation"]},"status":"final","category":[{"coding":[{"system":"http://terminology.hl7.org/CodeSystem/observation-category","code":"survey","display":"Survey"}]}],"code":{"coding":[{"system":"http://loinc.org","code":"98967-3","display":"Nutritional Risk Screening 2002 panel","userSelected":true}]},"subject":{"reference":"Patient/19d1fe56-f3d5-45cf-a3ad-71fe4f70574d"},"effectiveDateTime":"2026-02-01T09:00:00.000+00:00","valueCodeableConcept":{"coding":[{"system":"http://snomed.info/sct","code":"129689002","display":"At risk for nutritional problem (finding)","userSelected":true}]}},"request":{"method":"PUT","url":"Observation/4d408d40-92ad-41f4-8ff0-528c015361f4"}},{"fullUrl":"https://madie.cms.gov/Observation/ScreAtriRefAsseModNodxCp2-19","resource":{"resourceType":"Observation","id":"a4179fa8-be78-4b81-bbd8-41803754556c","meta":{"profile":["http://hl7.org/fhir/us/qicore/StructureDefinition/qicore-observation"]},"status":"final","category":[{"coding":[{"system":"http://terminology.hl7.org/CodeSystem/observation-category","code":"survey","display":"Survey"}]}],"code":{"coding":[{"system":"http://loinc.org","code":"75304-6","display":"Nutrition standards observation panel","userSelected":true}]},"subject":{"reference":"Patient/19d1fe56-f3d5-45cf-a3ad-71fe4f70574d"},"effectiveDateTime":"2026-02-01T10:00:00.000+00:00","valueCodeableConcept":{"coding":[{"system":"http://snomed.info/sct","code":"448765001","display":"Unintentional weight loss (finding)","userSelected":true}]}},"request":{"method":"PUT","url":"Observation/a4179fa8-be78-4b81-bbd8-41803754556c"}},{"fullUrl":"https://madie.cms.gov/Procedure/ScreAtriRefAsseModNodxCp2-12","resource":{"resourceType":"Procedure","id":"290b18e7-caac-4c5c-808e-6ac95b93628a","meta":{"profile":["http://hl7.org/fhir/us/qicore/StructureDefinition/qicore-procedure"]},"extension":[{"url":"http://hl7.org/fhir/us/qicore/StructureDefinition/qicore-recorded","valueDateTime":"2025-02-01T11:30:00.000Z"}],"status":"completed","code":{"coding":[{"system":"http://snomed.info/sct","code":"306354000","display":"Referral to hospital-based dietitian (procedure)"}],"text":"Referral to hospital-based dietitian (procedure)"},"subject":{"reference":"Patient/19d1fe56-f3d5-45cf-a3ad-71fe4f70574d"},"encounter":{"reference":"Encounter/ScreAtriRefAsseModNodxCp2DENOMPass4"},"performedPeriod":{"start":"2026-02-01T11:30:00.000Z","end":"2026-02-07T08:15:00.000Z"}},"request":{"method":"PUT","url":"Procedure/290b18e7-caac-4c5c-808e-6ac95b93628a"}},{"fullUrl":"https://madie.cms.gov/Procedure/ScreAtriRefAsseModNodxCp2-08","resource":{"resourceType":"Procedure","id":"881d0c34-5ec8-4757-bbf3-6b3c06e1f158","meta":{"profile":["http://hl7.org/fhir/us/qicore/StructureDefinition/qicore-procedure"]},"extension":[{"url":"http://hl7.org/fhir/us/qicore/StructureDefinition/qicore-recorded","valueDateTime":"2025-02-02T11:30:00.000Z"}],"status":"completed","code":{"coding":[{"system":"http://snomed.info/sct","code":"410175003","display":"Dietary regime management (procedure)"}],"text":"Dietary regime management (procedure)"},"subject":{"reference":"Patient/19d1fe56-f3d5-45cf-a3ad-71fe4f70574d"},"encounter":{"reference":"Encounter/ScreAtriRefAsseModNodxCp2OCCURPass4"},"performedPeriod":{"start":"2026-02-01T11:30:00.000Z","end":"2026-02-07T08:15:00.000Z"}},"request":{"method":"PUT","url":"Procedure/881d0c34-5ec8-4757-bbf3-6b3c06e1f158"}},{"fullUrl":"https://madie.cms.gov/Coverage/ScreAtriRefAsseModNodxCp2-61","resource":{"resourceType":"Coverage","id":"e071a2dc-9a64-4f27-8515-e7edb745a4d4","meta":{"profile":["http://hl7.org/fhir/us/qicore/StructureDefinition/qicore-coverage"]},"status":"active","type":{"coding":[{"system":"https://nahdo.org/sopt","version":"9.2","code":"11","display":"Medicare Managed Care (Includes Medicare Advantage Plans)"}]},"beneficiary":{"reference":"Patient/19d1fe56-f3d5-45cf-a3ad-71fe4f70574d"},"period":{"start":"2024-10-01T00:00:00+00:00"},"payor":[{"reference":"Organization/4b5a882f-1f43-485c-85c6-f5ad2337d5b1"}]},"request":{"method":"PUT","url":"Coverage/e071a2dc-9a64-4f27-8515-e7edb745a4d4"}},{"fullUrl":"https://madie.cms.gov/Organization/ScreAtriRefAsseModNodxCp2-98","resource":{"resourceType":"Organization","id":"4b5a882f-1f43-485c-85c6-f5ad2337d5b1","meta":{"profile":["http://hl7.org/fhir/us/qicore/StructureDefinition/qicore-organization"]},"identifier":[{"use":"temp","system":"urn:oid:2.16.840.1.113883.4.4","value":"21-3259825"}],"active":true,"type":[{"coding":[{"system":"http://terminology.hl7.org/CodeSystem/organization-type","code":"pay","display":"Payer"}]}],"name":"Blue Cross Blue Shield of Texas","telecom":[{"system":"phone","value":"(+1) 972-766-6900"}],"address":[{"use":"billing","type":"postal","line":["P.O. Box 660044"],"city":"Dallas","state":"TX","postalCode":"75266-0044","country":"USA"}]},"request":{"method":"PUT","url":"Organization/4b5a882f-1f43-485c-85c6-f5ad2337d5b1"}},{"fullUrl":"https://madie.cms.gov/MeasureReport/1c911a5a-5c40-4df8-a008-4ca605284494","resource":{"resourceType":"MeasureReport","id":"1c911a5a-5c40-4df8-a008-4ca605284494","meta":{"profile":["http://hl7.org/fhir/us/cqfmeasures/StructureDefinition/test-case-cqfm"]},"contained":[{"resourceType":"Parameters","id":"0f3f61e3-86df-4e65-b863-36ca247d032d-parameters","parameter":[{"name":"subject","valueString":"19d1fe56-f3d5-45cf-a3ad-71fe4f70574d"}]}],"extension":[{"url":"http://hl7.org/fhir/us/cqfmeasures/StructureDefinition/cqfm-inputParameters","valueReference":{"reference":"#0f3f61e3-86df-4e65-b863-36ca247d032d-parameters"}},{"url":"http://hl7.org/fhir/us/cqfmeasures/StructureDefinition/cqfm-testCaseDescription","valueMarkdown":"Screened, At Risk, Referral, Assessed, Moderate Malnutrition, No Diagnosis, Nutrition Care Plan"}],"modifierExtension":[{"url":"http://hl7.org/fhir/us/cqfmeasures/StructureDefinition/cqfm-isTestCase","valueBoolean":true}],"status":"complete","type":"individual","measure":"https://madie.cms.gov/Measure/GlobalMalnutritionCompositeFHIR","period":{"start":"2026-01-01","end":"2026-12-31"},"group":[{"population":[{"code":{"coding":[{"system":"http://terminology.hl7.org/CodeSystem/measure-population","code":"initial-population","display":"Initial Population"}]},"count":1},{"code":{"coding":[{"system":"http://terminology.hl7.org/CodeSystem/measure-population","code":"measure-population","display":"Measure Population"}]},"count":1},{"code":{"coding":[{"system":"http://terminology.hl7.org/CodeSystem/measure-population","code":"measure-population-observation","display":"Measure Population Observation"}]},"count":1}]},{"population":[{"code":{"coding":[{"system":"http://terminology.hl7.org/CodeSystem/measure-population","code":"initial-population","display":"Initial Population"}]},"count":1},{"code":{"coding":[{"system":"http://terminology.hl7.org/CodeSystem/measure-population","code":"measure-population","display":"Measure Population"}]},"count":1},{"code":{"coding":[{"system":"http://terminology.hl7.org/CodeSystem/measure-population","code":"measure-population-observation","display":"Measure Population Observation"}]},"count":1}]},{"population":[{"code":{"coding":[{"system":"http://terminology.hl7.org/CodeSystem/measure-population","code":"initial-population","display":"Initial Population"}]},"count":1},{"code":{"coding":[{"system":"http://terminology.hl7.org/CodeSystem/measure-population","code":"measure-population","display":"Measure Population"}]},"count":1},{"code":{"coding":[{"system":"http://terminology.hl7.org/CodeSystem/measure-population","code":"measure-population-observation","display":"Measure Population Observation"}]},"count":0}]},{"population":[{"code":{"coding":[{"system":"http://terminology.hl7.org/CodeSystem/measure-population","code":"initial-population","display":"Initial Population"}]},"count":1},{"code":{"coding":[{"system":"http://terminology.hl7.org/CodeSystem/measure-population","code":"measure-population","display":"Measure Population"}]},"count":1},{"code":{"coding":[{"system":"http://terminology.hl7.org/CodeSystem/measure-population","code":"measure-population-observation","display":"Measure Population Observation"}]},"count":1}]},{"population":[{"code":{"coding":[{"system":"http://terminology.hl7.org/CodeSystem/measure-population","code":"initial-population","display":"Initial Population"}]},"count":1},{"code":{"coding":[{"system":"http://terminology.hl7.org/CodeSystem/measure-population","code":"measure-population","display":"Measure Population"}]},"count":1},{"code":{"coding":[{"system":"http://terminology.hl7.org/CodeSystem/measure-population","code":"measure-population-observation","display":"Measure Population Observation"}]},"count":3}]},{"population":[{"code":{"coding":[{"system":"http://terminology.hl7.org/CodeSystem/measure-population","code":"initial-population","display":"Initial Population"}]},"count":1},{"code":{"coding":[{"system":"http://terminology.hl7.org/CodeSystem/measure-population","code":"measure-population","display":"Measure Population"}]},"count":1},{"code":{"coding":[{"system":"http://terminology.hl7.org/CodeSystem/measure-population","code":"measure-population-observation","display":"Measure Population Observation"}]},"count":75}]}]},"request":{"method":"PUT","url":"MeasureReport/1c911a5a-5c40-4df8-a008-4ca605284494"}}]}