{"resourceType":"Bundle","id":"tests-7645d28b-089e-4126-b8e4-b02a73d6493f-bundle","type":"transaction","entry":[{"fullUrl":"https://madie.cms.gov/Patient/7645d28b-089e-4126-b8e4-b02a73d6493f","resource":{"resourceType":"Patient","id":"7645d28b-089e-4126-b8e4-b02a73d6493f","meta":{"profile":["http://hl7.org/fhir/us/qicore/StructureDefinition/qicore-patient"]},"text":{"status":"generated","div":"<div xmlns=\"http://www.w3.org/1999/xhtml\"><div class=\"hapiHeaderText\">YearOverlap, Screened Not at risk Assessed Severely Malnourished Diagnosed Care Plan, <b>mo1111d4p100 </b></div><table class=\"hapiPropertyTable\"><tbody><tr><td>Identifier</td><td>YearOverlap</td></tr><tr><td>Date of birth</td><td><span>14 May 1950</span></td></tr></tbody></table></div>"},"extension":[{"url":"http://hl7.org/fhir/us/core/StructureDefinition/us-core-race","extension":[{"url":"ombCategory","valueCoding":{"system":"urn:oid:2.16.840.1.113883.6.238","code":"2106-3","display":"White","userSelected":true}},{"url":"text","valueString":"White"}]},{"url":"http://hl7.org/fhir/us/core/StructureDefinition/us-core-ethnicity","extension":[{"url":"ombCategory","valueCoding":{"system":"urn:oid:2.16.840.1.113883.6.238","code":"2186-5","display":"Not Hispanic or Latino","userSelected":true}},{"url":"text","valueString":"Not Hispanic or Latino"}]}],"identifier":[{"type":{"coding":[{"system":"http://terminology.hl7.org/CodeSystem/v2-0203","code":"MR"}]},"system":"https://madie.cms.gov/","value":"YearOverlap"}],"active":true,"name":[{"use":"usual","text":"YearOverlap","family":"IPPFAIL","given":["YearOverlapIPPFAIL"]}],"gender":"female","birthDate":"1950-05-14","address":[{"text":"YearOverlap, Screened Not at risk Assessed Severely Malnourished Diagnosed Care Plan, ID=YearOverlap, DOB: 14 May 1950"}]},"request":{"method":"PUT","url":"Patient/7645d28b-089e-4126-b8e4-b02a73d6493f"}},{"fullUrl":"https://madie.cms.gov/Encounter/YearOverlap-01","resource":{"resourceType":"Encounter","id":"c280f5a2-d6b8-4fd0-a15e-8f9fd7106dc7","meta":{"profile":["http://hl7.org/fhir/us/qicore/StructureDefinition/qicore-encounter"]},"status":"finished","class":{"system":"http://terminology.hl7.org/CodeSystem/v3-ActCode","code":"IMP","display":"inpatient encounter"},"type":[{"coding":[{"system":"http://snomed.info/sct","code":"183452005"}]}],"subject":{"reference":"Patient/7645d28b-089e-4126-b8e4-b02a73d6493f"},"period":{"start":"2026-12-31T08:00:00.000Z","end":"2027-01-04T08:15:00.000Z"}},"request":{"method":"PUT","url":"Encounter/c280f5a2-d6b8-4fd0-a15e-8f9fd7106dc7"}},{"fullUrl":"https://madie.cms.gov/Condition/YearOverlap-06","resource":{"resourceType":"Condition","id":"8728febe-f367-4292-9732-387518563aeb","meta":{"profile":["http://hl7.org/fhir/us/qicore/StructureDefinition/qicore-condition"]},"clinicalStatus":{"coding":[{"system":"http://terminology.hl7.org/CodeSystem/condition-clinical","code":"active","display":"Active","userSelected":true}]},"verificationStatus":{"coding":[{"system":"http://terminology.hl7.org/CodeSystem/condition-ver-status","code":"confirmed","display":"Confirmed","userSelected":true}]},"category":[{"coding":[{"system":"http://terminology.hl7.org/CodeSystem/condition-category","code":"encounter-diagnosis","display":"Encounter Diagnosis","userSelected":true}]}],"code":{"coding":[{"system":"http://snomed.info/sct","code":"190606006","display":"Moderate protein energy malnutrition (disorder)","userSelected":true}]},"subject":{"reference":"Patient/7645d28b-089e-4126-b8e4-b02a73d6493f"},"onsetPeriod":{"start":"2026-12-31T08:00:00.000+00:00"},"recordedDate":"2027-01-04T11:00:00.000+00:00"},"request":{"method":"PUT","url":"Condition/8728febe-f367-4292-9732-387518563aeb"}},{"fullUrl":"https://madie.cms.gov/Observation/YearOverlap-18","resource":{"resourceType":"Observation","id":"7c3a1295-4543-46f6-aad9-3002cdc344b3","meta":{"profile":["http://hl7.org/fhir/us/qicore/StructureDefinition/qicore-observation"]},"status":"final","category":[{"coding":[{"system":"http://terminology.hl7.org/CodeSystem/observation-category","code":"survey","display":"Survey"}]}],"code":{"coding":[{"system":"http://loinc.org","code":"98967-3","display":"Nutritional Risk Screening 2002 panel","userSelected":true}]},"subject":{"reference":"Patient/7645d28b-089e-4126-b8e4-b02a73d6493f"},"effectiveDateTime":"2026-12-31T08:00:00.000+00:00","valueCodeableConcept":{"coding":[{"system":"http://snomed.info/sct","code":"129689002","display":"At risk for nutritional problem (finding)","userSelected":true}]}},"request":{"method":"PUT","url":"Observation/7c3a1295-4543-46f6-aad9-3002cdc344b3"}},{"fullUrl":"https://madie.cms.gov/Observation/YearOverlap-19","resource":{"resourceType":"Observation","id":"ac5d755b-8bf6-4805-9e5c-08193606e608","meta":{"profile":["http://hl7.org/fhir/us/qicore/StructureDefinition/qicore-observation"]},"status":"final","category":[{"coding":[{"system":"http://terminology.hl7.org/CodeSystem/observation-category","code":"survey","display":"Survey"}]}],"code":{"coding":[{"system":"http://loinc.org","code":"75282-4","display":"Nutrition assessment panel","userSelected":true}]},"subject":{"reference":"Patient/7645d28b-089e-4126-b8e4-b02a73d6493f"},"effectiveDateTime":"2026-12-31T10:00:00.000+00:00","valueCodeableConcept":{"coding":[{"system":"http://snomed.info/sct","code":"102635008","display":"Acute nutritional deficiency (finding)","userSelected":true}]}},"request":{"method":"PUT","url":"Observation/ac5d755b-8bf6-4805-9e5c-08193606e608"}},{"fullUrl":"https://madie.cms.gov/Procedure/YearOverlap-12","resource":{"resourceType":"Procedure","id":"8a40d179-e025-4e5d-b95b-75d223c69a55","meta":{"profile":["http://hl7.org/fhir/us/qicore/StructureDefinition/qicore-procedure"]},"extension":[{"url":"http://hl7.org/fhir/us/qicore/StructureDefinition/qicore-recorded","valueDateTime":"2026-12-31T11:30:00.000Z"}],"status":"completed","code":{"coding":[{"system":"http://snomed.info/sct","code":"306165000","display":"Referral to hospital-based dietetics service (procedure)"}],"text":"Referral to hospital-based dietetics service (procedure)"},"subject":{"reference":"Patient/7645d28b-089e-4126-b8e4-b02a73d6493f"},"encounter":{"reference":"Encounter/YearOverlapIPPFAIL"},"performedPeriod":{"start":"2026-12-31T11:30:00.000Z","end":"2027-01-04T08:15:00.000Z"}},"request":{"method":"PUT","url":"Procedure/8a40d179-e025-4e5d-b95b-75d223c69a55"}},{"fullUrl":"https://madie.cms.gov/Procedure/YearOverlap-08","resource":{"resourceType":"Procedure","id":"0030cf0c-2178-49f6-919f-8abf9ca5df58","meta":{"profile":["http://hl7.org/fhir/us/qicore/StructureDefinition/qicore-procedure"]},"extension":[{"url":"http://hl7.org/fhir/us/qicore/StructureDefinition/qicore-recorded","valueDateTime":"2026-12-31T11:30:00.000Z"}],"status":"completed","code":{"coding":[{"system":"http://snomed.info/sct","code":"410175003","display":"Dietary regime management (regime/therapy)"}],"text":"Dietary regime management (regime/therapy)"},"subject":{"reference":"Patient/7645d28b-089e-4126-b8e4-b02a73d6493f"},"encounter":{"reference":"Encounter/YearOverlapIPPFAIL"},"performedPeriod":{"start":"2026-12-31T11:30:00.000Z","end":"2027-01-04T08:15:00.000Z"}},"request":{"method":"PUT","url":"Procedure/0030cf0c-2178-49f6-919f-8abf9ca5df58"}},{"fullUrl":"https://madie.cms.gov/Coverage/YearOverlap-61","resource":{"resourceType":"Coverage","id":"4baac67f-9713-495b-b1c0-294729803a25","meta":{"profile":["http://hl7.org/fhir/us/qicore/StructureDefinition/qicore-coverage"]},"status":"active","type":{"coding":[{"system":"https://nahdo.org/sopt","version":"9.2","code":"11","display":"Medicare Managed Care (Includes Medicare Advantage Plans)"}]},"beneficiary":{"reference":"Patient/7645d28b-089e-4126-b8e4-b02a73d6493f"},"period":{"start":"2026-10-01T00:00:00+00:00"},"payor":[{"reference":"Organization/4b5a882f-1f43-485c-85c6-f5ad2337d5b1"}]},"request":{"method":"PUT","url":"Coverage/4baac67f-9713-495b-b1c0-294729803a25"}},{"fullUrl":"https://madie.cms.gov/Organization/YearOverlap-98","resource":{"resourceType":"Organization","id":"4b5a882f-1f43-485c-85c6-f5ad2337d5b1","meta":{"profile":["http://hl7.org/fhir/us/qicore/StructureDefinition/qicore-organization"]},"identifier":[{"use":"temp","system":"urn:oid:2.16.840.1.113883.4.4","value":"21-3259825"}],"active":true,"type":[{"coding":[{"system":"http://terminology.hl7.org/CodeSystem/organization-type","code":"pay","display":"Payer"}]}],"name":"Blue Cross Blue Shield of Texas","telecom":[{"system":"phone","value":"(+1) 972-766-6900"}],"address":[{"use":"billing","type":"postal","line":["P.O. Box 660044"],"city":"Dallas","state":"TX","postalCode":"75266-0044","country":"USA"}]},"request":{"method":"PUT","url":"Organization/4b5a882f-1f43-485c-85c6-f5ad2337d5b1"}},{"fullUrl":"https://madie.cms.gov/MeasureReport/9cd58384-7a1c-48b2-a1a4-91254ab89c07","resource":{"resourceType":"MeasureReport","id":"9cd58384-7a1c-48b2-a1a4-91254ab89c07","meta":{"profile":["http://hl7.org/fhir/us/cqfmeasures/StructureDefinition/test-case-cqfm"]},"contained":[{"resourceType":"Parameters","id":"9a13a5e4-9ef1-4f7a-9fc0-84f0b25f0015-parameters","parameter":[{"name":"subject","valueString":"7645d28b-089e-4126-b8e4-b02a73d6493f"}]}],"extension":[{"url":"http://hl7.org/fhir/us/cqfmeasures/StructureDefinition/cqfm-inputParameters","valueReference":{"reference":"#9a13a5e4-9ef1-4f7a-9fc0-84f0b25f0015-parameters"}},{"url":"http://hl7.org/fhir/us/cqfmeasures/StructureDefinition/cqfm-testCaseDescription","valueMarkdown":"Overlaps Year Boundary"}],"modifierExtension":[{"url":"http://hl7.org/fhir/us/cqfmeasures/StructureDefinition/cqfm-isTestCase","valueBoolean":true}],"status":"complete","type":"individual","measure":"https://madie.cms.gov/Measure/GlobalMalnutritionCompositeFHIR","period":{"start":"2026-01-01","end":"2026-12-31"},"group":[{"population":[{"code":{"coding":[{"system":"http://terminology.hl7.org/CodeSystem/measure-population","code":"initial-population","display":"Initial Population"}]},"count":0},{"code":{"coding":[{"system":"http://terminology.hl7.org/CodeSystem/measure-population","code":"measure-population","display":"Measure Population"}]},"count":0}]},{"population":[{"code":{"coding":[{"system":"http://terminology.hl7.org/CodeSystem/measure-population","code":"initial-population","display":"Initial Population"}]},"count":0},{"code":{"coding":[{"system":"http://terminology.hl7.org/CodeSystem/measure-population","code":"measure-population","display":"Measure Population"}]},"count":0}]},{"population":[{"code":{"coding":[{"system":"http://terminology.hl7.org/CodeSystem/measure-population","code":"initial-population","display":"Initial Population"}]},"count":0},{"code":{"coding":[{"system":"http://terminology.hl7.org/CodeSystem/measure-population","code":"measure-population","display":"Measure Population"}]},"count":0}]},{"population":[{"code":{"coding":[{"system":"http://terminology.hl7.org/CodeSystem/measure-population","code":"initial-population","display":"Initial Population"}]},"count":0},{"code":{"coding":[{"system":"http://terminology.hl7.org/CodeSystem/measure-population","code":"measure-population","display":"Measure Population"}]},"count":0}]},{"population":[{"code":{"coding":[{"system":"http://terminology.hl7.org/CodeSystem/measure-population","code":"initial-population","display":"Initial Population"}]},"count":0},{"code":{"coding":[{"system":"http://terminology.hl7.org/CodeSystem/measure-population","code":"measure-population","display":"Measure Population"}]},"count":0}]},{"population":[{"code":{"coding":[{"system":"http://terminology.hl7.org/CodeSystem/measure-population","code":"initial-population","display":"Initial Population"}]},"count":0},{"code":{"coding":[{"system":"http://terminology.hl7.org/CodeSystem/measure-population","code":"measure-population","display":"Measure Population"}]},"count":0}]}]},"request":{"method":"PUT","url":"MeasureReport/9cd58384-7a1c-48b2-a1a4-91254ab89c07"}}]}