{"resourceType":"Bundle","id":"tests-91c95de4-b745-4258-948d-5ce03a901e5e-bundle","type":"transaction","entry":[{"fullUrl":"https://madie.cms.gov/Patient/91c95de4-b745-4258-948d-5ce03a901e5e","resource":{"resourceType":"Patient","id":"91c95de4-b745-4258-948d-5ce03a901e5e","meta":{"profile":["http://hl7.org/fhir/us/qicore/StructureDefinition/qicore-patient"]},"text":{"status":"generated","div":"<div xmlns=\"http://www.w3.org/1999/xhtml\"><div class=\"hapiHeaderText\">ScreAtriNorefAsseModDxCp2, , <b> </b></div><table class=\"hapiPropertyTable\"><tbody><tr><td>Identifier</td><td>ScreAtriNorefAsseModDxCp2</td></tr><tr><td>Date of birth</td><td><span>14 May 1950</span></td></tr></tbody></table></div>"},"extension":[{"url":"http://hl7.org/fhir/us/core/StructureDefinition/us-core-race","extension":[{"url":"ombCategory","valueCoding":{"system":"urn:oid:2.16.840.1.113883.6.238","code":"2106-3","display":"White","userSelected":true}},{"url":"text","valueString":"White"}]},{"url":"http://hl7.org/fhir/us/core/StructureDefinition/us-core-ethnicity","extension":[{"url":"ombCategory","valueCoding":{"system":"urn:oid:2.16.840.1.113883.6.238","code":"2186-5","display":"Not Hispanic or Latino","userSelected":true}},{"url":"text","valueString":"Not Hispanic or Latino"}]}],"identifier":[{"type":{"coding":[{"system":"http://terminology.hl7.org/CodeSystem/v2-0203","code":"MR"}]},"system":"https://madie.cms.gov/","value":"ScreAtriNorefAsseModDxCp2"}],"active":true,"name":[{"use":"usual","text":"ScreAtriNorefAsseModDxCp2","family":"DENOMPass4","given":["ScreAtriNorefAsseModDxCp2DENOMPass4"]}],"gender":"male","birthDate":"1950-05-14","address":[{"text":"ScreAtriNorefAsseModDxCp2, Screened Not at risk Assessed Severely Malnourished Diagnosed Care Plan, ID=ScreAtriNorefAsseModDxCp2, DOB: 14 May 1950"}]},"request":{"method":"PUT","url":"Patient/91c95de4-b745-4258-948d-5ce03a901e5e"}},{"fullUrl":"https://madie.cms.gov/Encounter/ScreAtriNorefAsseModDxCp2-01","resource":{"resourceType":"Encounter","id":"3a52b7b3-a99a-40f5-af38-10c7af2f193b","meta":{"profile":["http://hl7.org/fhir/us/qicore/StructureDefinition/qicore-encounter"]},"status":"finished","class":{"system":"http://terminology.hl7.org/CodeSystem/v3-ActCode","code":"IMP","display":"inpatient encounter"},"type":[{"coding":[{"system":"http://snomed.info/sct","code":"183452005"}]}],"subject":{"reference":"Patient/91c95de4-b745-4258-948d-5ce03a901e5e"},"period":{"start":"2026-02-01T08:00:00.000Z","end":"2026-02-07T08:15:00.000Z"}},"request":{"method":"PUT","url":"Encounter/3a52b7b3-a99a-40f5-af38-10c7af2f193b"}},{"fullUrl":"https://madie.cms.gov/Condition/ScreAtriNorefAsseModDxCp2-06","resource":{"resourceType":"Condition","id":"9e4f55e1-85a9-4223-970f-697052d5e656","meta":{"profile":["http://hl7.org/fhir/us/qicore/StructureDefinition/qicore-condition"]},"clinicalStatus":{"coding":[{"system":"http://terminology.hl7.org/CodeSystem/condition-clinical","code":"active","display":"Active","userSelected":true}]},"verificationStatus":{"coding":[{"system":"http://terminology.hl7.org/CodeSystem/condition-ver-status","code":"confirmed","display":"Confirmed","userSelected":true}]},"category":[{"coding":[{"system":"http://terminology.hl7.org/CodeSystem/condition-category","code":"encounter-diagnosis","display":"Encounter Diagnosis","userSelected":true}]}],"code":{"coding":[{"system":"http://hl7.org/fhir/sid/icd-10-cm","code":"E44.0","display":"Moderate protein-calorie malnutrition","userSelected":true}]},"subject":{"reference":"Patient/91c95de4-b745-4258-948d-5ce03a901e5e"},"onsetPeriod":{"start":"2026-02-01T08:00:00.000+00:00"},"recordedDate":"2026-02-01T11:00:00.000+00:00"},"request":{"method":"PUT","url":"Condition/9e4f55e1-85a9-4223-970f-697052d5e656"}},{"fullUrl":"https://madie.cms.gov/Observation/ScreAtriNorefAsseModDxCp2-18","resource":{"resourceType":"Observation","id":"4673ca39-187d-4649-8b93-6c76aab0af44","meta":{"profile":["http://hl7.org/fhir/us/qicore/StructureDefinition/qicore-observation"]},"status":"final","category":[{"coding":[{"system":"http://terminology.hl7.org/CodeSystem/observation-category","code":"survey","display":"Survey"}]}],"code":{"coding":[{"system":"http://loinc.org","code":"98972-3","display":"Final screening NRS_2002","userSelected":true}]},"subject":{"reference":"Patient/91c95de4-b745-4258-948d-5ce03a901e5e"},"effectiveDateTime":"2026-02-01T09:00:00.000+00:00","valueCodeableConcept":{"coding":[{"system":"http://snomed.info/sct","code":"704361005","display":"At risk of deficient food intake (finding)","userSelected":true}]}},"request":{"method":"PUT","url":"Observation/4673ca39-187d-4649-8b93-6c76aab0af44"}},{"fullUrl":"https://madie.cms.gov/Observation/ScreAtriNorefAsseModDxCp2-19","resource":{"resourceType":"Observation","id":"eca90852-c6fa-4b18-9ae0-1c0e456b4409","meta":{"profile":["http://hl7.org/fhir/us/qicore/StructureDefinition/qicore-observation"]},"status":"final","category":[{"coding":[{"system":"http://terminology.hl7.org/CodeSystem/observation-category","code":"survey","display":"Survey"}]}],"code":{"coding":[{"system":"http://loinc.org","code":"75303-8","display":"Nutrition assessment narrative","userSelected":true}]},"subject":{"reference":"Patient/91c95de4-b745-4258-948d-5ce03a901e5e"},"effectiveDateTime":"2026-02-01T10:00:00.000+00:00","valueCodeableConcept":{"coding":[{"system":"http://snomed.info/sct","code":"248324001","display":"Well nourished (finding)","userSelected":true}]}},"request":{"method":"PUT","url":"Observation/eca90852-c6fa-4b18-9ae0-1c0e456b4409"}},{"fullUrl":"https://madie.cms.gov/Coverage/ScreAtriNorefAsseModDxCp2-61","resource":{"resourceType":"Coverage","id":"399d44ff-d6b2-4b61-823e-af38eebf3a60","meta":{"profile":["http://hl7.org/fhir/us/qicore/StructureDefinition/qicore-coverage"]},"status":"active","type":{"coding":[{"system":"https://nahdo.org/sopt","version":"9.2","code":"11","display":"Medicare Managed Care (Includes Medicare Advantage Plans)"}]},"beneficiary":{"reference":"Patient/91c95de4-b745-4258-948d-5ce03a901e5e"},"period":{"start":"2025-10-01T00:00:00+00:00"},"payor":[{"reference":"Organization/4b5a882f-1f43-485c-85c6-f5ad2337d5b1"}]},"request":{"method":"PUT","url":"Coverage/399d44ff-d6b2-4b61-823e-af38eebf3a60"}},{"fullUrl":"https://madie.cms.gov/Organization/ScreAtriNorefAsseModDxCp2-98","resource":{"resourceType":"Organization","id":"4b5a882f-1f43-485c-85c6-f5ad2337d5b1","meta":{"profile":["http://hl7.org/fhir/us/qicore/StructureDefinition/qicore-organization"]},"identifier":[{"use":"temp","system":"urn:oid:2.16.840.1.113883.4.4","value":"21-3259825"}],"active":true,"type":[{"coding":[{"system":"http://terminology.hl7.org/CodeSystem/organization-type","code":"pay","display":"Payer"}]}],"name":"Blue Cross Blue Shield of Texas","telecom":[{"system":"phone","value":"(+1) 972-766-6900"}],"address":[{"use":"billing","type":"postal","line":["P.O. Box 660044"],"city":"Dallas","state":"TX","postalCode":"75266-0044","country":"USA"}]},"request":{"method":"PUT","url":"Organization/4b5a882f-1f43-485c-85c6-f5ad2337d5b1"}},{"fullUrl":"https://madie.cms.gov/MeasureReport/8968c519-90f5-47b7-9f31-2ae7928cb818","resource":{"resourceType":"MeasureReport","id":"8968c519-90f5-47b7-9f31-2ae7928cb818","meta":{"profile":["http://hl7.org/fhir/us/cqfmeasures/StructureDefinition/test-case-cqfm"]},"contained":[{"resourceType":"Parameters","id":"84d27d40-54c4-47a9-85f0-86a0f16b5ec5-parameters","parameter":[{"name":"subject","valueString":"91c95de4-b745-4258-948d-5ce03a901e5e"}]}],"extension":[{"url":"http://hl7.org/fhir/us/cqfmeasures/StructureDefinition/cqfm-inputParameters","valueReference":{"reference":"#84d27d40-54c4-47a9-85f0-86a0f16b5ec5-parameters"}},{"url":"http://hl7.org/fhir/us/cqfmeasures/StructureDefinition/cqfm-testCaseDescription","valueMarkdown":"Screened, At Risk, No Referral, Assessed, Not/Mildly Malnourished, Diagnosis, No Nutrition Care Plan"}],"modifierExtension":[{"url":"http://hl7.org/fhir/us/cqfmeasures/StructureDefinition/cqfm-isTestCase","valueBoolean":true}],"status":"complete","type":"individual","measure":"https://madie.cms.gov/Measure/GlobalMalnutritionCompositeFHIR","period":{"start":"2026-01-01","end":"2026-12-31"},"group":[{"population":[{"code":{"coding":[{"system":"http://terminology.hl7.org/CodeSystem/measure-population","code":"initial-population","display":"Initial Population"}]},"count":1},{"code":{"coding":[{"system":"http://terminology.hl7.org/CodeSystem/measure-population","code":"measure-population","display":"Measure Population"}]},"count":1},{"code":{"coding":[{"system":"http://terminology.hl7.org/CodeSystem/measure-population","code":"measure-population-observation","display":"Measure Population Observation"}]},"count":1}]},{"population":[{"code":{"coding":[{"system":"http://terminology.hl7.org/CodeSystem/measure-population","code":"initial-population","display":"Initial Population"}]},"count":1},{"code":{"coding":[{"system":"http://terminology.hl7.org/CodeSystem/measure-population","code":"measure-population","display":"Measure Population"}]},"count":1},{"code":{"coding":[{"system":"http://terminology.hl7.org/CodeSystem/measure-population","code":"measure-population-observation","display":"Measure Population Observation"}]},"count":1}]},{"population":[{"code":{"coding":[{"system":"http://terminology.hl7.org/CodeSystem/measure-population","code":"initial-population","display":"Initial Population"}]},"count":1},{"code":{"coding":[{"system":"http://terminology.hl7.org/CodeSystem/measure-population","code":"measure-population","display":"Measure Population"}]},"count":1},{"code":{"coding":[{"system":"http://terminology.hl7.org/CodeSystem/measure-population","code":"measure-population-observation","display":"Measure Population Observation"}]},"count":0}]},{"population":[{"code":{"coding":[{"system":"http://terminology.hl7.org/CodeSystem/measure-population","code":"initial-population","display":"Initial Population"}]},"count":1},{"code":{"coding":[{"system":"http://terminology.hl7.org/CodeSystem/measure-population","code":"measure-population","display":"Measure Population"}]},"count":1},{"code":{"coding":[{"system":"http://terminology.hl7.org/CodeSystem/measure-population","code":"measure-population-observation","display":"Measure Population Observation"}]},"count":0}]},{"population":[{"code":{"coding":[{"system":"http://terminology.hl7.org/CodeSystem/measure-population","code":"initial-population","display":"Initial Population"}]},"count":1},{"code":{"coding":[{"system":"http://terminology.hl7.org/CodeSystem/measure-population","code":"measure-population","display":"Measure Population"}]},"count":1},{"code":{"coding":[{"system":"http://terminology.hl7.org/CodeSystem/measure-population","code":"measure-population-observation","display":"Measure Population Observation"}]},"count":2}]},{"population":[{"code":{"coding":[{"system":"http://terminology.hl7.org/CodeSystem/measure-population","code":"initial-population","display":"Initial Population"}]},"count":1},{"code":{"coding":[{"system":"http://terminology.hl7.org/CodeSystem/measure-population","code":"measure-population","display":"Measure Population"}]},"count":1},{"code":{"coding":[{"system":"http://terminology.hl7.org/CodeSystem/measure-population","code":"measure-population-observation","display":"Measure Population Observation"}]},"count":100}]}]},"request":{"method":"PUT","url":"MeasureReport/8968c519-90f5-47b7-9f31-2ae7928cb818"}}]}