{"resourceType":"Bundle","id":"tests-95c5116d-15f0-4367-b467-dca152f6b43c-bundle","type":"transaction","entry":[{"fullUrl":"https://madie.cms.gov/Patient/95c5116d-15f0-4367-b467-dca152f6b43c","resource":{"resourceType":"Patient","id":"95c5116d-15f0-4367-b467-dca152f6b43c","meta":{"profile":["http://hl7.org/fhir/us/qicore/StructureDefinition/qicore-patient"]},"text":{"status":"generated","div":"<div xmlns=\"http://www.w3.org/1999/xhtml\"><div class=\"hapiHeaderText\">2Encountersat100752, , <b> </b></div><table class=\"hapiPropertyTable\"><tbody><tr><td>Identifier</td><td>2Encountersat100752</td></tr><tr><td>Date of birth</td><td><span>14 May 1950</span></td></tr></tbody></table></div>"},"extension":[{"url":"http://hl7.org/fhir/us/core/StructureDefinition/us-core-race","extension":[{"url":"ombCategory","valueCoding":{"system":"urn:oid:2.16.840.1.113883.6.238","code":"2106-3","display":"White","userSelected":true}},{"url":"text","valueString":"White"}]},{"url":"http://hl7.org/fhir/us/core/StructureDefinition/us-core-ethnicity","extension":[{"url":"ombCategory","valueCoding":{"system":"urn:oid:2.16.840.1.113883.6.238","code":"2186-5","display":"Not Hispanic or Latino","userSelected":true}},{"url":"text","valueString":"Not Hispanic or Latino"}]}],"identifier":[{"type":{"coding":[{"system":"http://terminology.hl7.org/CodeSystem/v2-0203","code":"MR"}]},"system":"https://madie.cms.gov/","value":"2Encountersat100752"}],"active":true,"name":[{"use":"usual","text":"2Encountersat100752","family":"DENOMPass44","given":["2Encountersat100752DENOMPass44"]}],"gender":"male","birthDate":"1950-05-14","address":[{"text":"2Encountersat100752, Screened Not at risk Assessed Severely Malnourished Diagnosed Care Plan, ID=2Encountersat100752, DOB: 14 May 1950"}]},"request":{"method":"PUT","url":"Patient/95c5116d-15f0-4367-b467-dca152f6b43c"}},{"fullUrl":"https://madie.cms.gov/Encounter/2Encountersat100752-01","resource":{"resourceType":"Encounter","id":"01a2b668-6364-4abd-ab41-9ecbaca81652","meta":{"profile":["http://hl7.org/fhir/us/qicore/StructureDefinition/qicore-encounter"]},"status":"finished","class":{"system":"http://terminology.hl7.org/CodeSystem/v3-ActCode","code":"IMP","display":"inpatient encounter"},"type":[{"coding":[{"system":"http://snomed.info/sct","code":"183452005"}]}],"subject":{"reference":"Patient/95c5116d-15f0-4367-b467-dca152f6b43c"},"period":{"start":"2026-02-01T08:00:00.000Z","end":"2026-02-07T08:15:00.000Z"}},"request":{"method":"PUT","url":"Encounter/01a2b668-6364-4abd-ab41-9ecbaca81652"}},{"fullUrl":"https://madie.cms.gov/Condition/2Encountersat100752-06","resource":{"resourceType":"Condition","id":"635bb437-aee3-4836-be54-a1308f041417","meta":{"profile":["http://hl7.org/fhir/us/qicore/StructureDefinition/qicore-condition"]},"clinicalStatus":{"coding":[{"system":"http://terminology.hl7.org/CodeSystem/condition-clinical","code":"active","display":"Active","userSelected":true}]},"verificationStatus":{"coding":[{"system":"http://terminology.hl7.org/CodeSystem/condition-ver-status","code":"confirmed","display":"Confirmed","userSelected":true}]},"category":[{"coding":[{"system":"http://terminology.hl7.org/CodeSystem/condition-category","code":"encounter-diagnosis","display":"Encounter Diagnosis","userSelected":true}]}],"code":{"coding":[{"system":"http://snomed.info/sct","code":"272588001","display":"Malnutrition (calorie) (disorder)","userSelected":true}]},"subject":{"reference":"Patient/95c5116d-15f0-4367-b467-dca152f6b43c"},"onsetPeriod":{"start":"2026-02-01T08:00:00.000+00:00","end":"2026-02-06T08:00:00.000+00:00"},"recordedDate":"2026-02-01T11:00:00.000+00:00"},"request":{"method":"PUT","url":"Condition/635bb437-aee3-4836-be54-a1308f041417"}},{"fullUrl":"https://madie.cms.gov/Observation/2Encountersat100752-18","resource":{"resourceType":"Observation","id":"fb5a4abe-0885-45ef-b785-d229e0438eb4","meta":{"profile":["http://hl7.org/fhir/us/qicore/StructureDefinition/qicore-observation"]},"status":"final","category":[{"coding":[{"system":"http://terminology.hl7.org/CodeSystem/observation-category","code":"survey","display":"Survey"}]}],"code":{"coding":[{"system":"http://loinc.org","code":"98968-1","display":"Initial Screening NRS_2002","userSelected":true}]},"subject":{"reference":"Patient/95c5116d-15f0-4367-b467-dca152f6b43c"},"effectiveDateTime":"2026-02-01T09:00:00.000+00:00","valueCodeableConcept":{"coding":[{"system":"http://loinc.org","code":"LA33699-2","display":"Not at risk for malnutrition","userSelected":true}]}},"request":{"method":"PUT","url":"Observation/fb5a4abe-0885-45ef-b785-d229e0438eb4"}},{"fullUrl":"https://madie.cms.gov/Observation/2Encountersat100752-19","resource":{"resourceType":"Observation","id":"4d37d277-6c9a-43b8-b14d-74a09d8f4dbd","meta":{"profile":["http://hl7.org/fhir/us/qicore/StructureDefinition/qicore-observation"]},"status":"final","category":[{"coding":[{"system":"http://terminology.hl7.org/CodeSystem/observation-category","code":"survey","display":"Survey"}]}],"code":{"coding":[{"system":"http://loinc.org","code":"75285-7","display":"Comparative nutrition assessment standards panel","userSelected":true}]},"subject":{"reference":"Patient/95c5116d-15f0-4367-b467-dca152f6b43c"},"effectiveDateTime":"2026-02-01T10:00:00.000+00:00","valueCodeableConcept":{"coding":[{"system":"http://snomed.info/sct","code":"272588001","display":"Malnutrition (calorie) (disorder)","userSelected":true}]}},"request":{"method":"PUT","url":"Observation/4d37d277-6c9a-43b8-b14d-74a09d8f4dbd"}},{"fullUrl":"https://madie.cms.gov/Procedure/2Encountersat100752-12","resource":{"resourceType":"Procedure","id":"b242c498-ee3a-4a92-8051-efd1536f3080","meta":{"profile":["http://hl7.org/fhir/us/qicore/StructureDefinition/qicore-procedure"]},"extension":[{"url":"http://hl7.org/fhir/us/qicore/StructureDefinition/qicore-recorded","valueDateTime":"2025-02-01T11:30:00.000Z"}],"status":"completed","code":{"coding":[{"system":"http://snomed.info/sct","code":"306354000","display":"Referral to hospital-based dietitian (procedure)"}],"text":"Referral to hospital-based dietitian (procedure)"},"subject":{"reference":"Patient/95c5116d-15f0-4367-b467-dca152f6b43c"},"encounter":{"reference":"Encounter/2Encountersat100752DENOMPass44"},"performedPeriod":{"start":"2026-02-01T11:30:00.000Z","end":"2026-02-07T08:15:00.000Z"}},"request":{"method":"PUT","url":"Procedure/b242c498-ee3a-4a92-8051-efd1536f3080"}},{"fullUrl":"https://madie.cms.gov/Procedure/2Encountersat100752-08","resource":{"resourceType":"Procedure","id":"0ffebe4c-887e-4f7a-966d-06b1ba42ee39","meta":{"profile":["http://hl7.org/fhir/us/qicore/StructureDefinition/qicore-procedure"]},"extension":[{"url":"http://hl7.org/fhir/us/qicore/StructureDefinition/qicore-recorded","valueDateTime":"2025-02-02T11:30:00.000Z"}],"status":"completed","code":{"coding":[{"system":"http://snomed.info/sct","code":"386372009","display":"Nutrition management (regime/therapy)"}],"text":"Nutrition management (regime/therapy)"},"subject":{"reference":"Patient/95c5116d-15f0-4367-b467-dca152f6b43c"},"encounter":{"reference":"Encounter/2Encountersat100752DENOMPass44"},"performedPeriod":{"start":"2026-02-01T11:30:00.000Z","end":"2026-02-07T08:15:00.000Z"}},"request":{"method":"PUT","url":"Procedure/0ffebe4c-887e-4f7a-966d-06b1ba42ee39"}},{"fullUrl":"https://madie.cms.gov/Coverage/2Encountersat100752-61","resource":{"resourceType":"Coverage","id":"839a1c5d-3c16-4373-9562-df96ad6686c3","meta":{"profile":["http://hl7.org/fhir/us/qicore/StructureDefinition/qicore-coverage"]},"status":"active","type":{"coding":[{"system":"https://nahdo.org/sopt","version":"9.2","code":"11","display":"Medicare Managed Care (Includes Medicare Advantage Plans)"}]},"beneficiary":{"reference":"Patient/95c5116d-15f0-4367-b467-dca152f6b43c"},"period":{"start":"2024-10-01T00:00:00+00:00"},"payor":[{"reference":"Organization/4b5a882f-1f43-485c-85c6-f5ad2337d5b1"}]},"request":{"method":"PUT","url":"Coverage/839a1c5d-3c16-4373-9562-df96ad6686c3"}},{"fullUrl":"https://madie.cms.gov/Encounter/2Encountersat100752-20","resource":{"resourceType":"Encounter","id":"5b9aeb1c-935e-4417-9125-702a9a8b91ee","meta":{"profile":["http://hl7.org/fhir/us/qicore/StructureDefinition/qicore-encounter"]},"status":"finished","class":{"system":"http://terminology.hl7.org/CodeSystem/v3-ActCode","code":"IMP","display":"inpatient encounter"},"type":[{"coding":[{"system":"http://snomed.info/sct","code":"183452005"}]}],"subject":{"reference":"Patient/95c5116d-15f0-4367-b467-dca152f6b43c"},"period":{"start":"2026-03-01T08:00:00.000Z","end":"2026-03-07T08:15:00.000Z"}},"request":{"method":"PUT","url":"Encounter/5b9aeb1c-935e-4417-9125-702a9a8b91ee"}},{"fullUrl":"https://madie.cms.gov/Observation/2Encountersat100752-23","resource":{"resourceType":"Observation","id":"725df347-5f7a-43bf-8b34-45188746e116","meta":{"profile":["http://hl7.org/fhir/us/qicore/StructureDefinition/qicore-observation"]},"status":"final","category":[{"coding":[{"system":"http://terminology.hl7.org/CodeSystem/observation-category","code":"survey","display":"Survey"}]}],"code":{"coding":[{"system":"http://loinc.org","code":"75285-7","display":"Comparative nutrition assessment standards panel","userSelected":true}]},"subject":{"reference":"Patient/95c5116d-15f0-4367-b467-dca152f6b43c"},"effectiveDateTime":"2026-03-01T10:00:00.000+00:00","valueCodeableConcept":{"coding":[{"system":"http://snomed.info/sct","code":"272588001","display":"Malnutrition (calorie) (disorder)","userSelected":true}]}},"request":{"method":"PUT","url":"Observation/725df347-5f7a-43bf-8b34-45188746e116"}},{"fullUrl":"https://madie.cms.gov/Procedure/2Encountersat100752-24","resource":{"resourceType":"Procedure","id":"acccd14b-5516-470c-ad6c-a1a682486036","meta":{"profile":["http://hl7.org/fhir/us/qicore/StructureDefinition/qicore-procedure"]},"extension":[{"url":"http://hl7.org/fhir/us/qicore/StructureDefinition/qicore-recorded","valueDateTime":"2025-03-01T11:30:00.000Z"}],"status":"completed","code":{"coding":[{"system":"http://snomed.info/sct","code":"306354000","display":"Referral to hospital-based dietitian (procedure)"}],"text":"Referral to hospital-based dietitian (procedure)"},"subject":{"reference":"Patient/95c5116d-15f0-4367-b467-dca152f6b43c"},"encounter":{"reference":"Encounter/2Encountersat100752DENOMPass44"},"performedPeriod":{"start":"2026-03-01T11:30:00.000Z","end":"2026-03-07T08:15:00.000Z"}},"request":{"method":"PUT","url":"Procedure/acccd14b-5516-470c-ad6c-a1a682486036"}},{"fullUrl":"https://madie.cms.gov/Procedure/2Encountersat100752-30","resource":{"resourceType":"Procedure","id":"dc3f961c-8ee8-450c-a44f-1a666033f77a","meta":{"profile":["http://hl7.org/fhir/us/qicore/StructureDefinition/qicore-procedure"]},"extension":[{"url":"http://hl7.org/fhir/us/qicore/StructureDefinition/qicore-recorded","valueDateTime":"2026-02-02T11:30:00.000Z"}],"status":"completed","code":{"coding":[{"system":"http://snomed.info/sct","code":"386372009","display":"Nutrition management (regime/therapy)"}],"text":"Nutrition management (regime/therapy)"},"subject":{"reference":"Patient/95c5116d-15f0-4367-b467-dca152f6b43c"},"encounter":{"reference":"Encounter/2Encountersat100752DENOMPass44"},"performedPeriod":{"start":"2026-03-01T11:30:00.000Z","end":"2026-03-07T08:15:00.000Z"}},"request":{"method":"PUT","url":"Procedure/dc3f961c-8ee8-450c-a44f-1a666033f77a"}},{"fullUrl":"https://madie.cms.gov/Coverage/2Encountersat100752-32","resource":{"resourceType":"Coverage","id":"be9bf151-08d3-4545-9c22-97c77eac03d0","meta":{"profile":["http://hl7.org/fhir/us/qicore/StructureDefinition/qicore-coverage"]},"status":"active","type":{"coding":[{"system":"https://nahdo.org/sopt","version":"9.2","code":"11","display":"Medicare Managed Care (Includes Medicare Advantage Plans)"}]},"beneficiary":{"reference":"Patient/95c5116d-15f0-4367-b467-dca152f6b43c"},"period":{"start":"2024-10-01T00:00:00+00:00"},"payor":[{"reference":"Organization/4b5a882f-1f43-485c-85c6-f5ad2337d5b1"}]},"request":{"method":"PUT","url":"Coverage/be9bf151-08d3-4545-9c22-97c77eac03d0"}},{"fullUrl":"https://madie.cms.gov/Organization/2Encountersat100752-98","resource":{"resourceType":"Organization","id":"4b5a882f-1f43-485c-85c6-f5ad2337d5b1","meta":{"profile":["http://hl7.org/fhir/us/qicore/StructureDefinition/qicore-organization"]},"identifier":[{"use":"temp","system":"urn:oid:2.16.840.1.113883.4.4","value":"21-3259825"}],"active":true,"type":[{"coding":[{"system":"http://terminology.hl7.org/CodeSystem/organization-type","code":"pay","display":"Payer"}]}],"name":"Blue Cross Blue Shield of Texas","telecom":[{"system":"phone","value":"(+1) 972-766-6900"}],"address":[{"use":"billing","type":"postal","line":["P.O. Box 660044"],"city":"Dallas","state":"TX","postalCode":"75266-0044","country":"USA"}]},"request":{"method":"PUT","url":"Organization/4b5a882f-1f43-485c-85c6-f5ad2337d5b1"}},{"fullUrl":"https://madie.cms.gov/MeasureReport/814ddf37-0edf-42e8-bb93-628837c00355","resource":{"resourceType":"MeasureReport","id":"814ddf37-0edf-42e8-bb93-628837c00355","meta":{"profile":["http://hl7.org/fhir/us/cqfmeasures/StructureDefinition/test-case-cqfm"]},"contained":[{"resourceType":"Parameters","id":"b2ea5f33-ead3-48ed-9228-19eba7212bbd-parameters","parameter":[{"name":"subject","valueString":"95c5116d-15f0-4367-b467-dca152f6b43c"}]}],"extension":[{"url":"http://hl7.org/fhir/us/cqfmeasures/StructureDefinition/cqfm-inputParameters","valueReference":{"reference":"#b2ea5f33-ead3-48ed-9228-19eba7212bbd-parameters"}},{"url":"http://hl7.org/fhir/us/cqfmeasures/StructureDefinition/cqfm-testCaseDescription","valueMarkdown":"Multiple Encounters"}],"modifierExtension":[{"url":"http://hl7.org/fhir/us/cqfmeasures/StructureDefinition/cqfm-isTestCase","valueBoolean":true}],"status":"complete","type":"individual","measure":"https://madie.cms.gov/Measure/GlobalMalnutritionCompositeFHIR","period":{"start":"2026-01-01","end":"2026-12-31"},"group":[{"population":[{"code":{"coding":[{"system":"http://terminology.hl7.org/CodeSystem/measure-population","code":"initial-population","display":"Initial Population"}]},"count":2},{"code":{"coding":[{"system":"http://terminology.hl7.org/CodeSystem/measure-population","code":"measure-population","display":"Measure Population"}]},"count":2},{"code":{"coding":[{"system":"http://terminology.hl7.org/CodeSystem/measure-population","code":"measure-population-observation","display":"Measure Population Observation"}]},"count":1},{"code":{"coding":[{"system":"http://terminology.hl7.org/CodeSystem/measure-population","code":"measure-population-observation","display":"Measure Population Observation"}]},"count":1}]},{"population":[{"code":{"coding":[{"system":"http://terminology.hl7.org/CodeSystem/measure-population","code":"initial-population","display":"Initial Population"}]},"count":2},{"code":{"coding":[{"system":"http://terminology.hl7.org/CodeSystem/measure-population","code":"measure-population","display":"Measure Population"}]},"count":2},{"code":{"coding":[{"system":"http://terminology.hl7.org/CodeSystem/measure-population","code":"measure-population-observation","display":"Measure Population Observation"}]},"count":1},{"code":{"coding":[{"system":"http://terminology.hl7.org/CodeSystem/measure-population","code":"measure-population-observation","display":"Measure Population Observation"}]},"count":1}]},{"population":[{"code":{"coding":[{"system":"http://terminology.hl7.org/CodeSystem/measure-population","code":"initial-population","display":"Initial Population"}]},"count":2},{"code":{"coding":[{"system":"http://terminology.hl7.org/CodeSystem/measure-population","code":"measure-population","display":"Measure Population"}]},"count":2},{"code":{"coding":[{"system":"http://terminology.hl7.org/CodeSystem/measure-population","code":"measure-population-observation","display":"Measure Population Observation"}]},"count":1},{"code":{"coding":[{"system":"http://terminology.hl7.org/CodeSystem/measure-population","code":"measure-population-observation","display":"Measure Population Observation"}]},"count":1}]},{"population":[{"code":{"coding":[{"system":"http://terminology.hl7.org/CodeSystem/measure-population","code":"initial-population","display":"Initial Population"}]},"count":2},{"code":{"coding":[{"system":"http://terminology.hl7.org/CodeSystem/measure-population","code":"measure-population","display":"Measure Population"}]},"count":2},{"code":{"coding":[{"system":"http://terminology.hl7.org/CodeSystem/measure-population","code":"measure-population-observation","display":"Measure Population Observation"}]},"count":1},{"code":{"coding":[{"system":"http://terminology.hl7.org/CodeSystem/measure-population","code":"measure-population-observation","display":"Measure Population Observation"}]},"count":1}]},{"population":[{"code":{"coding":[{"system":"http://terminology.hl7.org/CodeSystem/measure-population","code":"initial-population","display":"Initial Population"}]},"count":2},{"code":{"coding":[{"system":"http://terminology.hl7.org/CodeSystem/measure-population","code":"measure-population","display":"Measure Population"}]},"count":2},{"code":{"coding":[{"system":"http://terminology.hl7.org/CodeSystem/measure-population","code":"measure-population-observation","display":"Measure Population Observation"}]},"count":4},{"code":{"coding":[{"system":"http://terminology.hl7.org/CodeSystem/measure-population","code":"measure-population-observation","display":"Measure Population Observation"}]},"count":4}]},{"population":[{"code":{"coding":[{"system":"http://terminology.hl7.org/CodeSystem/measure-population","code":"initial-population","display":"Initial Population"}]},"count":2},{"code":{"coding":[{"system":"http://terminology.hl7.org/CodeSystem/measure-population","code":"measure-population","display":"Measure Population"}]},"count":2},{"code":{"coding":[{"system":"http://terminology.hl7.org/CodeSystem/measure-population","code":"measure-population-observation","display":"Measure Population Observation"}]},"count":100},{"code":{"coding":[{"system":"http://terminology.hl7.org/CodeSystem/measure-population","code":"measure-population-observation","display":"Measure Population Observation"}]},"count":100}]}]},"request":{"method":"PUT","url":"MeasureReport/814ddf37-0edf-42e8-bb93-628837c00355"}}]}