{"resourceType":"Bundle","id":"tests-b1b79c28-6fb7-4900-8332-1378089486dd-bundle","type":"transaction","entry":[{"fullUrl":"https://madie.cms.gov/Patient/b1b79c28-6fb7-4900-8332-1378089486dd","resource":{"resourceType":"Patient","id":"b1b79c28-6fb7-4900-8332-1378089486dd","meta":{"profile":["http://hl7.org/fhir/us/qicore/StructureDefinition/qicore-patient"]},"text":{"status":"generated","div":"<div xmlns=\"http://www.w3.org/1999/xhtml\"><div class=\"hapiHeaderText\">MultiScreAtriskNorefAsseModDxCp, , <b> </b></div><table class=\"hapiPropertyTable\"><tbody><tr><td>Identifier</td><td>MultiScreAtriskNorefAsseModDxCp</td></tr><tr><td>Date of birth</td><td><span>14 May 1950</span></td></tr></tbody></table></div>"},"extension":[{"url":"http://hl7.org/fhir/us/core/StructureDefinition/us-core-race","extension":[{"url":"ombCategory","valueCoding":{"system":"urn:oid:2.16.840.1.113883.6.238","code":"2106-3","display":"White","userSelected":true}},{"url":"text","valueString":"White"}]},{"url":"http://hl7.org/fhir/us/core/StructureDefinition/us-core-ethnicity","extension":[{"url":"ombCategory","valueCoding":{"system":"urn:oid:2.16.840.1.113883.6.238","code":"2186-5","display":"Not Hispanic or Latino","userSelected":true}},{"url":"text","valueString":"Not Hispanic or Latino"}]}],"identifier":[{"type":{"coding":[{"system":"http://terminology.hl7.org/CodeSystem/v2-0203","code":"MR"}]},"system":"https://madie.cms.gov/","value":"MultiScreAtriskNorefAsseModDxCp"}],"active":true,"name":[{"use":"usual","text":"MultiScreAtriskNorefAsseModDxCp","family":"denompass444","given":["MultiScreAtriskNorefAsseModDxCpdenompass444"]}],"gender":"male","birthDate":"1954-01-01","address":[{"text":"MultiScreAtriskNorefAsseModDxCp, Screened Not at risk Assessed Severely Malnourished Diagnosed Care Plan, ID=MultiScreAtriskNorefAsseModDxCp, DOB: 14 May 1950"}]},"request":{"method":"PUT","url":"Patient/b1b79c28-6fb7-4900-8332-1378089486dd"}},{"fullUrl":"https://madie.cms.gov/Encounter/MultiScreAtriskNorefAsseModDxCp-01","resource":{"resourceType":"Encounter","id":"6901c068-cbee-4990-921c-792629f2b6d0","meta":{"profile":["http://hl7.org/fhir/us/qicore/StructureDefinition/qicore-encounter"]},"status":"finished","class":{"system":"http://terminology.hl7.org/CodeSystem/v3-ActCode","code":"IMP","display":"inpatient encounter"},"type":[{"coding":[{"system":"http://snomed.info/sct","code":"183452005"}]}],"subject":{"reference":"Patient/b1b79c28-6fb7-4900-8332-1378089486dd"},"period":{"start":"2026-02-01T08:00:00.000Z","end":"2026-02-07T08:15:00.000Z"}},"request":{"method":"PUT","url":"Encounter/6901c068-cbee-4990-921c-792629f2b6d0"}},{"fullUrl":"https://madie.cms.gov/Condition/MultiScreAtriskNorefAsseModDxCp-06","resource":{"resourceType":"Condition","id":"98e9a28b-186e-4d62-8111-06303179c2ad","meta":{"profile":["http://hl7.org/fhir/us/qicore/StructureDefinition/qicore-condition"]},"clinicalStatus":{"coding":[{"system":"http://terminology.hl7.org/CodeSystem/condition-clinical","code":"active","display":"Active","userSelected":true}]},"verificationStatus":{"coding":[{"system":"http://terminology.hl7.org/CodeSystem/condition-ver-status","code":"confirmed","display":"Confirmed","userSelected":true}]},"category":[{"coding":[{"system":"http://terminology.hl7.org/CodeSystem/condition-category","code":"encounter-diagnosis","display":"Encounter Diagnosis","userSelected":true}]}],"code":{"coding":[{"system":"http://snomed.info/sct","code":"190606006","display":"Malnutrition (calorie) (disorder)","userSelected":true}]},"subject":{"reference":"Patient/b1b79c28-6fb7-4900-8332-1378089486dd"},"onsetPeriod":{"start":"2026-02-01T08:00:00.000+00:00"},"recordedDate":"2026-02-01T11:00:00.000+00:00"},"request":{"method":"PUT","url":"Condition/98e9a28b-186e-4d62-8111-06303179c2ad"}},{"fullUrl":"https://madie.cms.gov/Observation/MultiScreAtriskNorefAsseModDxCp-18","resource":{"resourceType":"Observation","id":"9f82dc67-6055-4c5d-a777-da6c10a3f735","meta":{"profile":["http://hl7.org/fhir/us/qicore/StructureDefinition/qicore-observation"]},"status":"final","category":[{"coding":[{"system":"http://terminology.hl7.org/CodeSystem/observation-category","code":"survey","display":"Survey"}]}],"code":{"coding":[{"system":"http://loinc.org","code":"98967-3","display":"Initial Screening NRS_2002","userSelected":true}]},"subject":{"reference":"Patient/b1b79c28-6fb7-4900-8332-1378089486dd"},"effectiveDateTime":"2026-02-01T09:00:00.000+00:00","valueCodeableConcept":{"coding":[{"system":"http://snomed.info/sct","code":"129689002","display":"Normal diet (finding)","userSelected":true}]}},"request":{"method":"PUT","url":"Observation/9f82dc67-6055-4c5d-a777-da6c10a3f735"}},{"fullUrl":"https://madie.cms.gov/Observation/MultiScreAtriskNorefAsseModDxCp-19","resource":{"resourceType":"Observation","id":"f8f4c1cf-7839-4ed0-8456-3a6497e0b46b","meta":{"profile":["http://hl7.org/fhir/us/qicore/StructureDefinition/qicore-observation"]},"status":"final","category":[{"coding":[{"system":"http://terminology.hl7.org/CodeSystem/observation-category","code":"survey","display":"Survey"}]}],"code":{"coding":[{"system":"http://loinc.org","code":"75282-4","display":"Comparative nutrition assessment standards panel","userSelected":true}]},"subject":{"reference":"Patient/b1b79c28-6fb7-4900-8332-1378089486dd"},"effectiveDateTime":"2026-02-01T10:00:00.000+00:00","valueCodeableConcept":{"coding":[{"system":"http://snomed.info/sct","code":"102636009","display":"Malnutrition (calorie) (disorder)","userSelected":true}]}},"request":{"method":"PUT","url":"Observation/f8f4c1cf-7839-4ed0-8456-3a6497e0b46b"}},{"fullUrl":"https://madie.cms.gov/Procedure/MultiScreAtriskNorefAsseModDxCp-12","resource":{"resourceType":"Procedure","id":"006f91b4-1581-45e7-ac62-ec16c2b74837","meta":{"profile":["http://hl7.org/fhir/us/qicore/StructureDefinition/qicore-procedure"]},"extension":[{"url":"http://hl7.org/fhir/us/qicore/StructureDefinition/qicore-recorded","valueDateTime":"2026-02-01T11:30:00.000Z"}],"status":"completed","code":{"coding":[{"system":"http://snomed.info/sct","code":"306354000","display":"Referral to hospital-based dietitian (procedure)"}],"text":"Referral to hospital-based dietitian (procedure)"},"subject":{"reference":"Patient/b1b79c28-6fb7-4900-8332-1378089486dd"},"encounter":{"reference":"Encounter/MultiScreAtriskNorefAsseModDxCpdenompass444"},"performedPeriod":{"start":"2026-02-01T11:30:00.000Z","end":"2026-02-07T08:15:00.000Z"}},"request":{"method":"PUT","url":"Procedure/006f91b4-1581-45e7-ac62-ec16c2b74837"}},{"fullUrl":"https://madie.cms.gov/Procedure/MultiScreAtriskNorefAsseModDxCp-08","resource":{"resourceType":"Procedure","id":"ef20d209-a85a-46bd-9120-2ae157d31ae5","meta":{"profile":["http://hl7.org/fhir/us/qicore/StructureDefinition/qicore-procedure"]},"extension":[{"url":"http://hl7.org/fhir/us/qicore/StructureDefinition/qicore-recorded","valueDateTime":"2026-02-02T11:30:00.000Z"}],"status":"completed","code":{"coding":[{"system":"http://snomed.info/sct","code":"386372009","display":"Nutrition management (regime/therapy)"}],"text":"Nutrition management (regime/therapy)"},"subject":{"reference":"Patient/b1b79c28-6fb7-4900-8332-1378089486dd"},"encounter":{"reference":"Encounter/MultiScreAtriskNorefAsseModDxCpdenompass444"},"performedPeriod":{"start":"2026-02-01T11:30:00.000Z","end":"2026-02-07T08:15:00.000Z"}},"request":{"method":"PUT","url":"Procedure/ef20d209-a85a-46bd-9120-2ae157d31ae5"}},{"fullUrl":"https://madie.cms.gov/Coverage/MultiScreAtriskNorefAsseModDxCp-61","resource":{"resourceType":"Coverage","id":"4a4298e5-9243-454a-adfc-7faa85b441d9","meta":{"profile":["http://hl7.org/fhir/us/qicore/StructureDefinition/qicore-coverage"]},"status":"active","type":{"coding":[{"system":"https://nahdo.org/sopt","version":"9.2","code":"11","display":"Medicare Managed Care (Includes Medicare Advantage Plans)"}]},"beneficiary":{"reference":"Patient/b1b79c28-6fb7-4900-8332-1378089486dd"},"period":{"start":"2026-10-01T00:00:00+00:00"},"payor":[{"reference":"Organization/4b5a882f-1f43-485c-85c6-f5ad2337d5b1"}]},"request":{"method":"PUT","url":"Coverage/4a4298e5-9243-454a-adfc-7faa85b441d9"}},{"fullUrl":"https://madie.cms.gov/Encounter/MultiScreAtriskNorefAsseModDxCp-20","resource":{"resourceType":"Encounter","id":"86a818e7-de69-46ef-8fa3-97dcbdfa581e","meta":{"profile":["http://hl7.org/fhir/us/qicore/StructureDefinition/qicore-encounter"]},"status":"finished","class":{"system":"http://terminology.hl7.org/CodeSystem/v3-ActCode","code":"IMP","display":"inpatient encounter"},"type":[{"coding":[{"system":"http://snomed.info/sct","code":"183452005"}]}],"subject":{"reference":"Patient/b1b79c28-6fb7-4900-8332-1378089486dd"},"period":{"start":"2026-03-01T08:00:00.000Z","end":"2026-03-07T08:15:00.000Z"}},"request":{"method":"PUT","url":"Encounter/86a818e7-de69-46ef-8fa3-97dcbdfa581e"}},{"fullUrl":"https://madie.cms.gov/Condition/MultiScreAtriskNorefAsseModDxCp-21","resource":{"resourceType":"Condition","id":"0e1dbbc0-5749-47e4-bd0e-3c1183616fdb","meta":{"profile":["http://hl7.org/fhir/us/qicore/StructureDefinition/qicore-condition"]},"clinicalStatus":{"coding":[{"system":"http://terminology.hl7.org/CodeSystem/condition-clinical","code":"active","display":"Active","userSelected":true}]},"verificationStatus":{"coding":[{"system":"http://terminology.hl7.org/CodeSystem/condition-ver-status","code":"confirmed","display":"Confirmed","userSelected":true}]},"category":[{"coding":[{"system":"http://terminology.hl7.org/CodeSystem/condition-category","code":"encounter-diagnosis","display":"Encounter Diagnosis","userSelected":true}]}],"code":{"coding":[{"system":"http://snomed.info/sct","code":"272588001","display":"Malnutrition (calorie) (disorder)","userSelected":true}]},"subject":{"reference":"Patient/b1b79c28-6fb7-4900-8332-1378089486dd"},"onsetPeriod":{"start":"2026-03-01T08:00:00.000+00:00"},"recordedDate":"2026-03-01T11:00:00.000+00:00"},"request":{"method":"PUT","url":"Condition/0e1dbbc0-5749-47e4-bd0e-3c1183616fdb"}},{"fullUrl":"https://madie.cms.gov/Observation/MultiScreAtriskNorefAsseModDxCp-22","resource":{"resourceType":"Observation","id":"8ed1e373-bd91-4950-bf99-2a74031fc65b","meta":{"profile":["http://hl7.org/fhir/us/qicore/StructureDefinition/qicore-observation"]},"status":"final","category":[{"coding":[{"system":"http://terminology.hl7.org/CodeSystem/observation-category","code":"survey","display":"Survey"}]}],"code":{"coding":[{"system":"http://loinc.org","code":"98968-1","display":"Initial Screening NRS_2002","userSelected":true}]},"subject":{"reference":"Patient/b1b79c28-6fb7-4900-8332-1378089486dd"},"effectiveDateTime":"2026-03-01T09:00:00.000+00:00","valueCodeableConcept":{"coding":[{"system":"http://snomed.info/sct","code":"36823005","display":"Normal diet (finding)","userSelected":true}]}},"request":{"method":"PUT","url":"Observation/8ed1e373-bd91-4950-bf99-2a74031fc65b"}},{"fullUrl":"https://madie.cms.gov/Observation/MultiScreAtriskNorefAsseModDxCp-23","resource":{"resourceType":"Observation","id":"66f6e639-d96b-4cb7-af7f-ebbf8bf86eb4","meta":{"profile":["http://hl7.org/fhir/us/qicore/StructureDefinition/qicore-observation"]},"status":"final","category":[{"coding":[{"system":"http://terminology.hl7.org/CodeSystem/observation-category","code":"survey","display":"Survey"}]}],"code":{"coding":[{"system":"http://loinc.org","code":"75285-7","display":"Comparative nutrition assessment standards panel","userSelected":true}]},"subject":{"reference":"Patient/b1b79c28-6fb7-4900-8332-1378089486dd"},"effectiveDateTime":"2026-03-01T10:00:00.000+00:00","valueCodeableConcept":{"coding":[{"system":"http://snomed.info/sct","code":"272588001","display":"Malnutrition (calorie) (disorder)","userSelected":true}]}},"request":{"method":"PUT","url":"Observation/66f6e639-d96b-4cb7-af7f-ebbf8bf86eb4"}},{"fullUrl":"https://madie.cms.gov/Procedure/MultiScreAtriskNorefAsseModDxCp-24","resource":{"resourceType":"Procedure","id":"e96e914e-b0ac-486b-96f6-8519b96649ee","meta":{"profile":["http://hl7.org/fhir/us/qicore/StructureDefinition/qicore-procedure"]},"extension":[{"url":"http://hl7.org/fhir/us/qicore/StructureDefinition/qicore-recorded","valueDateTime":"2026-03-01T11:30:00.000Z"}],"status":"completed","code":{"coding":[{"system":"http://snomed.info/sct","code":"306354000","display":"Referral to hospital-based dietitian (procedure)"}],"text":"Referral to hospital-based dietitian (procedure)"},"subject":{"reference":"Patient/b1b79c28-6fb7-4900-8332-1378089486dd"},"encounter":{"reference":"Encounter/MultiScreAtriskNorefAsseModDxCpdenompass444"},"performedPeriod":{"start":"2026-03-01T11:30:00.000Z","end":"2026-03-07T08:15:00.000Z"}},"request":{"method":"PUT","url":"Procedure/e96e914e-b0ac-486b-96f6-8519b96649ee"}},{"fullUrl":"https://madie.cms.gov/Procedure/MultiScreAtriskNorefAsseModDxCp-25","resource":{"resourceType":"Procedure","id":"0d578461-053a-4a02-8cbc-5898ce144226","meta":{"profile":["http://hl7.org/fhir/us/qicore/StructureDefinition/qicore-procedure"]},"extension":[{"url":"http://hl7.org/fhir/us/qicore/StructureDefinition/qicore-recorded","valueDateTime":"2026-03-02T11:30:00.000Z"}],"status":"completed","code":{"coding":[{"system":"http://snomed.info/sct","code":"386372009","display":"Nutrition management (regime/therapy)"}],"text":"Nutrition management (regime/therapy)"},"subject":{"reference":"Patient/b1b79c28-6fb7-4900-8332-1378089486dd"},"encounter":{"reference":"Encounter/MultiScreAtriskNorefAsseModDxCpdenompass444"},"performedPeriod":{"start":"2026-03-01T11:30:00.000Z","end":"2026-03-07T08:15:00.000Z"}},"request":{"method":"PUT","url":"Procedure/0d578461-053a-4a02-8cbc-5898ce144226"}},{"fullUrl":"https://madie.cms.gov/Encounter/MultiScreAtriskNorefAsseModDxCp-26","resource":{"resourceType":"Encounter","id":"066d17c0-5e5a-4dd5-a222-142258cbf280","meta":{"profile":["http://hl7.org/fhir/us/qicore/StructureDefinition/qicore-encounter"]},"status":"finished","class":{"system":"http://terminology.hl7.org/CodeSystem/v3-ActCode","code":"IMP","display":"inpatient encounter"},"type":[{"coding":[{"system":"http://snomed.info/sct","code":"183452005"}]}],"subject":{"reference":"Patient/b1b79c28-6fb7-4900-8332-1378089486dd"},"period":{"start":"2026-04-01T08:00:00.000Z","end":"2026-04-07T08:15:00.000Z"}},"request":{"method":"PUT","url":"Encounter/066d17c0-5e5a-4dd5-a222-142258cbf280"}},{"fullUrl":"https://madie.cms.gov/Condition/MultiScreAtriskNorefAsseModDxCp-27","resource":{"resourceType":"Condition","id":"202bba74-3d44-4599-a146-5f00c9fc89df","meta":{"profile":["http://hl7.org/fhir/us/qicore/StructureDefinition/qicore-condition"]},"clinicalStatus":{"coding":[{"system":"http://terminology.hl7.org/CodeSystem/condition-clinical","code":"active","display":"Active","userSelected":true}]},"verificationStatus":{"coding":[{"system":"http://terminology.hl7.org/CodeSystem/condition-ver-status","code":"confirmed","display":"Confirmed","userSelected":true}]},"category":[{"coding":[{"system":"http://terminology.hl7.org/CodeSystem/condition-category","code":"encounter-diagnosis","display":"Encounter Diagnosis","userSelected":true}]}],"code":{"coding":[{"system":"http://snomed.info/sct","code":"272588001","display":"Malnutrition (calorie) (disorder)","userSelected":true}]},"subject":{"reference":"Patient/b1b79c28-6fb7-4900-8332-1378089486dd"},"onsetPeriod":{"start":"2026-04-01T08:00:00.000+00:00"},"recordedDate":"2026-04-01T11:00:00.000+00:00"},"request":{"method":"PUT","url":"Condition/202bba74-3d44-4599-a146-5f00c9fc89df"}},{"fullUrl":"https://madie.cms.gov/Observation/MultiScreAtriskNorefAsseModDxCp-28","resource":{"resourceType":"Observation","id":"46543c8f-a98d-4bb4-a5cc-8fbaf2d57585","meta":{"profile":["http://hl7.org/fhir/us/qicore/StructureDefinition/qicore-observation"]},"status":"final","category":[{"coding":[{"system":"http://terminology.hl7.org/CodeSystem/observation-category","code":"survey","display":"Survey"}]}],"code":{"coding":[{"system":"http://loinc.org","code":"98968-1","display":"Initial Screening NRS_2002","userSelected":true}]},"subject":{"reference":"Patient/b1b79c28-6fb7-4900-8332-1378089486dd"},"effectiveDateTime":"2026-02-01T09:00:00.000+00:00","valueCodeableConcept":{"coding":[{"system":"http://snomed.info/sct","code":"36823005","display":"Normal diet (finding)","userSelected":true}]}},"request":{"method":"PUT","url":"Observation/46543c8f-a98d-4bb4-a5cc-8fbaf2d57585"}},{"fullUrl":"https://madie.cms.gov/Observation/MultiScreAtriskNorefAsseModDxCp-29","resource":{"resourceType":"Observation","id":"8d230b03-b9c3-4e48-9635-e7789a35ff03","meta":{"profile":["http://hl7.org/fhir/us/qicore/StructureDefinition/qicore-observation"]},"status":"final","category":[{"coding":[{"system":"http://terminology.hl7.org/CodeSystem/observation-category","code":"survey","display":"Survey"}]}],"code":{"coding":[{"system":"http://loinc.org","code":"75285-7","display":"Comparative nutrition assessment standards panel","userSelected":true}]},"subject":{"reference":"Patient/b1b79c28-6fb7-4900-8332-1378089486dd"},"effectiveDateTime":"2026-04-01T10:00:00.000+00:00","valueCodeableConcept":{"coding":[{"system":"http://snomed.info/sct","code":"272588001","display":"Malnutrition (calorie) (disorder)","userSelected":true}]}},"request":{"method":"PUT","url":"Observation/8d230b03-b9c3-4e48-9635-e7789a35ff03"}},{"fullUrl":"https://madie.cms.gov/Procedure/MultiScreAtriskNorefAsseModDxCp-30","resource":{"resourceType":"Procedure","id":"c9661652-309d-4f6d-8b62-0f02b4ec238e","meta":{"profile":["http://hl7.org/fhir/us/qicore/StructureDefinition/qicore-procedure"]},"extension":[{"url":"http://hl7.org/fhir/us/qicore/StructureDefinition/qicore-recorded","valueDateTime":"2026-04-01T11:30:00.000Z"}],"status":"completed","code":{"coding":[{"system":"http://snomed.info/sct","code":"306354000","display":"Referral to hospital-based dietitian (procedure)"}],"text":"Referral to hospital-based dietitian (procedure)"},"subject":{"reference":"Patient/b1b79c28-6fb7-4900-8332-1378089486dd"},"encounter":{"reference":"Encounter/MultiScreAtriskNorefAsseModDxCpdenompass444"},"performedPeriod":{"start":"2026-04-01T11:30:00.000Z","end":"2026-04-07T08:15:00.000Z"}},"request":{"method":"PUT","url":"Procedure/c9661652-309d-4f6d-8b62-0f02b4ec238e"}},{"fullUrl":"https://madie.cms.gov/Procedure/MultiScreAtriskNorefAsseModDxCp-31","resource":{"resourceType":"Procedure","id":"ec8814de-ebbd-4683-87d9-3a55269a5b0b","meta":{"profile":["http://hl7.org/fhir/us/qicore/StructureDefinition/qicore-procedure"]},"extension":[{"url":"http://hl7.org/fhir/us/qicore/StructureDefinition/qicore-recorded","valueDateTime":"2026-04-02T11:30:00.000Z"}],"status":"completed","code":{"coding":[{"system":"http://snomed.info/sct","code":"386372009","display":"Nutrition management (regime/therapy)"}],"text":"Nutrition management (regime/therapy)"},"subject":{"reference":"Patient/b1b79c28-6fb7-4900-8332-1378089486dd"},"encounter":{"reference":"Encounter/MultiScreAtriskNorefAsseModDxCpdenompass444"},"performedPeriod":{"start":"2026-04-01T11:30:00.000Z","end":"2026-04-07T08:15:00.000Z"}},"request":{"method":"PUT","url":"Procedure/ec8814de-ebbd-4683-87d9-3a55269a5b0b"}},{"fullUrl":"https://madie.cms.gov/Coverage/MultiScreAtriskNorefAsseModDxCp-32","resource":{"resourceType":"Coverage","id":"0dbab8a5-e729-49c6-8a2b-82822b1c29bb","meta":{"profile":["http://hl7.org/fhir/us/qicore/StructureDefinition/qicore-coverage"]},"status":"active","type":{"coding":[{"system":"https://nahdo.org/sopt","version":"9.2","code":"11","display":"Medicare Managed Care (Includes Medicare Advantage Plans)"}]},"beneficiary":{"reference":"Patient/b1b79c28-6fb7-4900-8332-1378089486dd"},"period":{"start":"2026-10-01T00:00:00+00:00"},"payor":[{"reference":"Organization/4b5a882f-1f43-485c-85c6-f5ad2337d5b1"}]},"request":{"method":"PUT","url":"Coverage/0dbab8a5-e729-49c6-8a2b-82822b1c29bb"}},{"fullUrl":"https://madie.cms.gov/Organization/MultiScreAtriskNorefAsseModDxCp-98","resource":{"resourceType":"Organization","id":"4b5a882f-1f43-485c-85c6-f5ad2337d5b1","meta":{"profile":["http://hl7.org/fhir/us/qicore/StructureDefinition/qicore-organization"]},"identifier":[{"use":"temp","system":"urn:oid:2.16.840.1.113883.4.4","value":"21-3259825"}],"active":true,"type":[{"coding":[{"system":"http://terminology.hl7.org/CodeSystem/organization-type","code":"pay","display":"Payer"}]}],"name":"Blue Cross Blue Shield of Texas","telecom":[{"system":"phone","value":"(+1) 972-766-6900"}],"address":[{"use":"billing","type":"postal","line":["P.O. Box 660044"],"city":"Dallas","state":"TX","postalCode":"75266-0044","country":"USA"}]},"request":{"method":"PUT","url":"Organization/4b5a882f-1f43-485c-85c6-f5ad2337d5b1"}},{"fullUrl":"https://madie.cms.gov/MeasureReport/bc010d40-9a7a-4c60-83de-103c67c8e754","resource":{"resourceType":"MeasureReport","id":"bc010d40-9a7a-4c60-83de-103c67c8e754","meta":{"profile":["http://hl7.org/fhir/us/cqfmeasures/StructureDefinition/test-case-cqfm"]},"contained":[{"resourceType":"Parameters","id":"2effcb68-309c-481f-b75c-cafb3c31251b-parameters","parameter":[{"name":"subject","valueString":"b1b79c28-6fb7-4900-8332-1378089486dd"}]}],"extension":[{"url":"http://hl7.org/fhir/us/cqfmeasures/StructureDefinition/cqfm-inputParameters","valueReference":{"reference":"#2effcb68-309c-481f-b75c-cafb3c31251b-parameters"}},{"url":"http://hl7.org/fhir/us/cqfmeasures/StructureDefinition/cqfm-testCaseDescription","valueMarkdown":"3 Encounters, all components met in each"}],"modifierExtension":[{"url":"http://hl7.org/fhir/us/cqfmeasures/StructureDefinition/cqfm-isTestCase","valueBoolean":true}],"status":"complete","type":"individual","measure":"https://madie.cms.gov/Measure/GlobalMalnutritionCompositeFHIR","period":{"start":"2026-01-01","end":"2026-12-31"},"group":[{"population":[{"code":{"coding":[{"system":"http://terminology.hl7.org/CodeSystem/measure-population","code":"initial-population","display":"Initial Population"}]},"count":3},{"code":{"coding":[{"system":"http://terminology.hl7.org/CodeSystem/measure-population","code":"measure-population","display":"Measure Population"}]},"count":3},{"code":{"coding":[{"system":"http://terminology.hl7.org/CodeSystem/measure-population","code":"measure-population-observation","display":"Measure Population Observation"}]},"count":1},{"code":{"coding":[{"system":"http://terminology.hl7.org/CodeSystem/measure-population","code":"measure-population-observation","display":"Measure Population Observation"}]},"count":1},{"code":{"coding":[{"system":"http://terminology.hl7.org/CodeSystem/measure-population","code":"measure-population-observation","display":"Measure Population Observation"}]},"count":1}]},{"population":[{"code":{"coding":[{"system":"http://terminology.hl7.org/CodeSystem/measure-population","code":"initial-population","display":"Initial Population"}]},"count":3},{"code":{"coding":[{"system":"http://terminology.hl7.org/CodeSystem/measure-population","code":"measure-population","display":"Measure Population"}]},"count":3},{"code":{"coding":[{"system":"http://terminology.hl7.org/CodeSystem/measure-population","code":"measure-population-observation","display":"Measure Population Observation"}]},"count":1},{"code":{"coding":[{"system":"http://terminology.hl7.org/CodeSystem/measure-population","code":"measure-population-observation","display":"Measure Population Observation"}]},"count":1},{"code":{"coding":[{"system":"http://terminology.hl7.org/CodeSystem/measure-population","code":"measure-population-observation","display":"Measure Population Observation"}]},"count":1}]},{"population":[{"code":{"coding":[{"system":"http://terminology.hl7.org/CodeSystem/measure-population","code":"initial-population","display":"Initial Population"}]},"count":3},{"code":{"coding":[{"system":"http://terminology.hl7.org/CodeSystem/measure-population","code":"measure-population","display":"Measure Population"}]},"count":3},{"code":{"coding":[{"system":"http://terminology.hl7.org/CodeSystem/measure-population","code":"measure-population-observation","display":"Measure Population Observation"}]},"count":1},{"code":{"coding":[{"system":"http://terminology.hl7.org/CodeSystem/measure-population","code":"measure-population-observation","display":"Measure Population Observation"}]},"count":1},{"code":{"coding":[{"system":"http://terminology.hl7.org/CodeSystem/measure-population","code":"measure-population-observation","display":"Measure Population Observation"}]},"count":1}]},{"population":[{"code":{"coding":[{"system":"http://terminology.hl7.org/CodeSystem/measure-population","code":"initial-population","display":"Initial Population"}]},"count":3},{"code":{"coding":[{"system":"http://terminology.hl7.org/CodeSystem/measure-population","code":"measure-population","display":"Measure Population"}]},"count":3},{"code":{"coding":[{"system":"http://terminology.hl7.org/CodeSystem/measure-population","code":"measure-population-observation","display":"Measure Population Observation"}]},"count":1},{"code":{"coding":[{"system":"http://terminology.hl7.org/CodeSystem/measure-population","code":"measure-population-observation","display":"Measure Population Observation"}]},"count":1},{"code":{"coding":[{"system":"http://terminology.hl7.org/CodeSystem/measure-population","code":"measure-population-observation","display":"Measure Population Observation"}]},"count":1}]},{"population":[{"code":{"coding":[{"system":"http://terminology.hl7.org/CodeSystem/measure-population","code":"initial-population","display":"Initial Population"}]},"count":3},{"code":{"coding":[{"system":"http://terminology.hl7.org/CodeSystem/measure-population","code":"measure-population","display":"Measure Population"}]},"count":3},{"code":{"coding":[{"system":"http://terminology.hl7.org/CodeSystem/measure-population","code":"measure-population-observation","display":"Measure Population Observation"}]},"count":4},{"code":{"coding":[{"system":"http://terminology.hl7.org/CodeSystem/measure-population","code":"measure-population-observation","display":"Measure Population Observation"}]},"count":4},{"code":{"coding":[{"system":"http://terminology.hl7.org/CodeSystem/measure-population","code":"measure-population-observation","display":"Measure Population Observation"}]},"count":4}]},{"population":[{"code":{"coding":[{"system":"http://terminology.hl7.org/CodeSystem/measure-population","code":"initial-population","display":"Initial Population"}]},"count":3},{"code":{"coding":[{"system":"http://terminology.hl7.org/CodeSystem/measure-population","code":"measure-population","display":"Measure Population"}]},"count":3},{"code":{"coding":[{"system":"http://terminology.hl7.org/CodeSystem/measure-population","code":"measure-population-observation","display":"Measure Population Observation"}]},"count":100},{"code":{"coding":[{"system":"http://terminology.hl7.org/CodeSystem/measure-population","code":"measure-population-observation","display":"Measure Population Observation"}]},"count":100},{"code":{"coding":[{"system":"http://terminology.hl7.org/CodeSystem/measure-population","code":"measure-population-observation","display":"Measure Population Observation"}]},"count":100}]}]},"request":{"method":"PUT","url":"MeasureReport/bc010d40-9a7a-4c60-83de-103c67c8e754"}}]}