{"resourceType":"Bundle","id":"tests-7cedf97f-741c-4c37-9ae9-40e0b8c64576-bundle","type":"transaction","entry":[{"fullUrl":"https://madie.cms.gov/Patient/7cedf97f-741c-4c37-9ae9-40e0b8c64576","resource":{"resourceType":"Patient","id":"7cedf97f-741c-4c37-9ae9-40e0b8c64576","meta":{"profile":["http://hl7.org/fhir/us/qicore/StructureDefinition/qicore-patient"]},"text":{"status":"generated","div":"<div xmlns=\"http://www.w3.org/1999/xhtml\"><div class=\"hapiHeaderText\">PainAssess6DaysB4RadTx<b>NUMERPassPop2</b></div><table class=\"hapiPropertyTable\"><tbody><tr><td>Identifier</td><td>e71f20f74cac252e764ff3e7f28f908aff2729f7da5e71eb2d3419b296c3bd12</td></tr><tr><td>Date of birth</td><td><span>25 April 1975</span></td></tr></tbody></table></div>"},"extension":[{"url":"http://hl7.org/fhir/us/core/StructureDefinition/us-core-race","extension":[{"url":"ombCategory","valueCoding":{"system":"urn:oid:2.16.840.1.113883.6.238","code":"1002-5","display":"American Indian or Alaska Native","userSelected":true}},{"url":"text","valueString":"American Indian or Alaska Native"}]},{"url":"http://hl7.org/fhir/us/core/StructureDefinition/us-core-ethnicity","extension":[{"url":"ombCategory","valueCoding":{"system":"urn:oid:2.16.840.1.113883.6.238","code":"2135-2","display":"Hispanic or Latino","userSelected":true}},{"url":"text","valueString":"Hispanic or Latino"}]}],"identifier":[{"type":{"coding":[{"system":"http://terminology.hl7.org/CodeSystem/v2-0203","code":"MR"}]},"system":"https://bonnie-fhir.healthit.gov/","value":"62c880ec0111a60120dc2211"}],"active":true,"name":[{"use":"usual","family":"NUMERPassPop2","given":["PainAssess6DaysB4RadTx"]}],"gender":"male","birthDate":"1975-04-25"},"request":{"method":"PUT","url":"Patient/7cedf97f-741c-4c37-9ae9-40e0b8c64576"}},{"fullUrl":"https://madie.cms.gov/Observation/5ca52609b8484613a555a942","resource":{"resourceType":"Observation","id":"e6a69e5f-f345-499a-ab86-19e97f8d3339","meta":{"profile":["http://hl7.org/fhir/us/qicore/StructureDefinition/qicore-observation"]},"status":"final","category":[{"coding":[{"system":"http://terminology.hl7.org/CodeSystem/observation-category","code":"survey","display":"Survey"}],"text":"Survey"}],"code":{"coding":[{"system":"http://loinc.org","code":"38208-5","display":"Pain severity - Reported"}],"text":"Pain severity - Reported"},"subject":{"reference":"Patient/7cedf97f-741c-4c37-9ae9-40e0b8c64576"},"effectiveDateTime":"2025-04-30T12:45:00.000+00:00","valueInteger":9},"request":{"method":"PUT","url":"Observation/e6a69e5f-f345-499a-ab86-19e97f8d3339"}},{"fullUrl":"https://madie.cms.gov/Condition/5ca52609b8484613a555a93f","resource":{"resourceType":"Condition","id":"ac6a0120-092c-4f58-9e5c-d137d8d1cb27","meta":{"profile":["http://hl7.org/fhir/us/qicore/StructureDefinition/qicore-condition"]},"clinicalStatus":{"coding":[{"system":"http://terminology.hl7.org/CodeSystem/condition-clinical","code":"active","display":"active","userSelected":true}]},"verificationStatus":{"coding":[{"system":"http://terminology.hl7.org/CodeSystem/condition-ver-status","code":"confirmed","display":"Confirmed"}]},"category":[{"coding":[{"system":"http://terminology.hl7.org/CodeSystem/condition-category","code":"problem-list-item","display":"Problem List Item"}]}],"code":{"coding":[{"system":"http://hl7.org/fhir/sid/icd-10-cm","code":"C00.3"}]},"subject":{"reference":"Patient/7cedf97f-741c-4c37-9ae9-40e0b8c64576"},"onsetDateTime":"2021-05-06T13:30:00.000Z"},"request":{"method":"PUT","url":"Condition/ac6a0120-092c-4f58-9e5c-d137d8d1cb27"}},{"fullUrl":"https://madie.cms.gov/Coverage/60099aca1c76ba64612b0688","resource":{"resourceType":"Coverage","id":"15452dac-5343-404a-b38b-e0b4a05713b3","meta":{"profile":["http://hl7.org/fhir/us/qicore/StructureDefinition/qicore-coverage"]},"status":"active","beneficiary":{"reference":"Patient/7cedf97f-741c-4c37-9ae9-40e0b8c64576"},"period":{"start":"1975-04-25T08:00:00.000Z"},"payor":[{"reference":"Organization/4b5a882f-1f43-485c-85c6-f5ad2337d5b1"}]},"request":{"method":"PUT","url":"Coverage/15452dac-5343-404a-b38b-e0b4a05713b3"}},{"fullUrl":"https://madie.cms.gov/Encounter/radiation-treatment-management-5-treatments-7c15","resource":{"resourceType":"Encounter","id":"cec3adc6-c808-41b3-baae-cd1ac4af2cfd","meta":{"profile":["http://hl7.org/fhir/us/qicore/StructureDefinition/qicore-encounter"]},"status":"finished","class":{"system":"http://terminology.hl7.org/CodeSystem/v3-ActCode","code":"AMB","display":"ambulatory","userSelected":true},"type":[{"coding":[{"system":"http://www.ama-assn.org/go/cpt","code":"77427","display":"Radiation treatment management, 5 treatments","userSelected":true}]}],"subject":{"reference":"Patient/7cedf97f-741c-4c37-9ae9-40e0b8c64576"},"period":{"start":"2025-05-06T08:00:00.000+00:00","end":"2025-05-06T08:15:00.000+00:00"}},"request":{"method":"PUT","url":"Encounter/cec3adc6-c808-41b3-baae-cd1ac4af2cfd"}},{"fullUrl":"https://madie.cms.gov/Organization/123456","resource":{"resourceType":"Organization","id":"4b5a882f-1f43-485c-85c6-f5ad2337d5b1","meta":{"profile":["http://hl7.org/fhir/us/qicore/StructureDefinition/qicore-organization"]},"identifier":[{"use":"temp","system":"urn:oid:2.16.840.1.113883.4.4","value":"21-3259825"}],"active":true,"type":[{"coding":[{"system":"http://terminology.hl7.org/CodeSystem/organization-type","code":"pay","display":"Payer"}]}],"name":"Blue Cross Blue Shield of Texas","telecom":[{"system":"phone","value":"(+1) 972-766-6900"}],"address":[{"use":"billing","type":"postal","line":["P.O. Box 660044"],"city":"Dallas","state":"TX","postalCode":"75266-0044","country":"USA"}]},"request":{"method":"PUT","url":"Organization/4b5a882f-1f43-485c-85c6-f5ad2337d5b1"}},{"fullUrl":"https://madie.cms.gov/Practitioner/practitioner-123456","resource":{"resourceType":"Practitioner","id":"ceebcd46-7d25-47e2-9cc0-ad7b6750d293","meta":{"profile":["http://hl7.org/fhir/us/qicore/StructureDefinition/qicore-practitioner"]},"identifier":[{"system":"http://hl7.org/fhir/sid/us-npi","value":"123456"}],"name":[{"family":"Evil","prefix":["Dr"]}]},"request":{"method":"PUT","url":"Practitioner/ceebcd46-7d25-47e2-9cc0-ad7b6750d293"}},{"fullUrl":"https://madie.cms.gov/MeasureReport/cb28f711-80a0-4513-9d97-0223be4fd112","resource":{"resourceType":"MeasureReport","id":"cb28f711-80a0-4513-9d97-0223be4fd112","meta":{"profile":["http://hl7.org/fhir/us/cqfmeasures/StructureDefinition/test-case-cqfm"]},"contained":[{"resourceType":"Parameters","id":"873891ba-c8d8-4f22-b7a1-da3fc2d2415e-parameters","parameter":[{"name":"subject","valueString":"7cedf97f-741c-4c37-9ae9-40e0b8c64576"}]}],"extension":[{"url":"http://hl7.org/fhir/us/cqfmeasures/StructureDefinition/cqfm-inputParameters","valueReference":{"reference":"#873891ba-c8d8-4f22-b7a1-da3fc2d2415e-parameters"}},{"url":"http://hl7.org/fhir/us/cqfmeasures/StructureDefinition/cqfm-testCaseDescription","valueMarkdown":"Patient with cancer diagnosis that overlaps radiation treatment management during measurement period. Pain intensity assessment was performed 6 days before radiation treatment management.\n"}],"modifierExtension":[{"url":"http://hl7.org/fhir/us/cqfmeasures/StructureDefinition/cqfm-isTestCase","valueBoolean":true}],"status":"complete","type":"individual","measure":"https://madie.cms.gov/Measure/OncologyPainIntensityQuantifiedFHIR","period":{"start":"2025-01-01","end":"2025-12-31"},"group":[{"population":[{"code":{"coding":[{"system":"http://terminology.hl7.org/CodeSystem/measure-population","code":"initial-population","display":"Initial Population"}]},"count":0},{"code":{"coding":[{"system":"http://terminology.hl7.org/CodeSystem/measure-population","code":"denominator","display":"Denominator"}]},"count":0},{"code":{"coding":[{"system":"http://terminology.hl7.org/CodeSystem/measure-population","code":"numerator","display":"Numerator"}]},"count":0}]},{"population":[{"code":{"coding":[{"system":"http://terminology.hl7.org/CodeSystem/measure-population","code":"initial-population","display":"Initial Population"}]},"count":1},{"code":{"coding":[{"system":"http://terminology.hl7.org/CodeSystem/measure-population","code":"denominator","display":"Denominator"}]},"count":1},{"code":{"coding":[{"system":"http://terminology.hl7.org/CodeSystem/measure-population","code":"numerator","display":"Numerator"}]},"count":1}]}]},"request":{"method":"PUT","url":"MeasureReport/cb28f711-80a0-4513-9d97-0223be4fd112"}}]}