{"resourceType":"Bundle","id":"tests-08690d2a-e82c-473f-a8c2-9fd5dc6747de-bundle","type":"transaction","entry":[{"fullUrl":"https://madie.cms.gov/Patient/08690d2a-e82c-473f-a8c2-9fd5dc6747de","resource":{"resourceType":"Patient","id":"08690d2a-e82c-473f-a8c2-9fd5dc6747de","meta":{"profile":["http://hl7.org/fhir/us/qicore/StructureDefinition/qicore-patient"]},"text":{"status":"generated","div":"<div xmlns=\"http://www.w3.org/1999/xhtml\"><div class=\"hapiHeaderText\">RadTxPriorMP<b>IPPFailPop2</b></div><table class=\"hapiPropertyTable\"><tbody><tr><td>Identifier</td><td>b33c60649a2b978e9742d8438641a97c</td></tr><tr><td>Date of birth</td><td><span>20 November 1947</span></td></tr></tbody></table></div>"},"extension":[{"url":"http://hl7.org/fhir/us/core/StructureDefinition/us-core-race","extension":[{"url":"ombCategory","valueCoding":{"system":"urn:oid:2.16.840.1.113883.6.238","code":"1002-5","display":"American Indian or Alaska Native","userSelected":true}},{"url":"text","valueString":"American Indian or Alaska Native"}]},{"url":"http://hl7.org/fhir/us/core/StructureDefinition/us-core-ethnicity","extension":[{"url":"ombCategory","valueCoding":{"system":"urn:oid:2.16.840.1.113883.6.238","code":"2135-2","display":"Hispanic or Latino","userSelected":true}},{"url":"text","valueString":"Hispanic or Latino"}]}],"identifier":[{"type":{"coding":[{"system":"http://terminology.hl7.org/CodeSystem/v2-0203","code":"MR"}]},"system":"https://bonnie-fhir.healthit.gov/","value":"62c880ec0111a60120dc21fe"}],"active":true,"name":[{"use":"usual","family":"IPPFailPop2","given":["RadTxPriorMP"]}],"gender":"male","birthDate":"1947-11-20"},"request":{"method":"PUT","url":"Patient/08690d2a-e82c-473f-a8c2-9fd5dc6747de"}},{"fullUrl":"https://madie.cms.gov/Condition/5ca52608b8484613a555a92f","resource":{"resourceType":"Condition","id":"69e711f5-26f6-4158-94c3-680b047f8b3b","meta":{"profile":["http://hl7.org/fhir/us/qicore/StructureDefinition/qicore-condition"]},"clinicalStatus":{"coding":[{"system":"http://terminology.hl7.org/CodeSystem/condition-clinical","code":"remission","display":"remission","userSelected":true}]},"verificationStatus":{"coding":[{"system":"http://terminology.hl7.org/CodeSystem/condition-ver-status","code":"confirmed","display":"Confirmed"}]},"category":[{"coding":[{"system":"http://terminology.hl7.org/CodeSystem/condition-category","code":"problem-list-item","display":"Problem List Item"}]}],"code":{"coding":[{"system":"http://hl7.org/fhir/sid/icd-10-cm","code":"C50.929"}]},"subject":{"reference":"Patient/08690d2a-e82c-473f-a8c2-9fd5dc6747de"},"onsetDateTime":"2023-12-29T14:00:00.000Z","abatementDateTime":"2025-10-31T12:30:00.000Z"},"request":{"method":"PUT","url":"Condition/69e711f5-26f6-4158-94c3-680b047f8b3b"}},{"fullUrl":"https://madie.cms.gov/Coverage/60099ac61c76ba64612b0631","resource":{"resourceType":"Coverage","id":"4596a5af-be84-4c49-bed1-46916b320e54","meta":{"profile":["http://hl7.org/fhir/us/qicore/StructureDefinition/qicore-coverage"]},"status":"active","beneficiary":{"reference":"Patient/08690d2a-e82c-473f-a8c2-9fd5dc6747de"},"period":{"start":"1947-11-20T08:00:00.000Z"},"payor":[{"reference":"Organization/4b5a882f-1f43-485c-85c6-f5ad2337d5b1"}]},"request":{"method":"PUT","url":"Coverage/4596a5af-be84-4c49-bed1-46916b320e54"}},{"fullUrl":"https://madie.cms.gov/Encounter/5ca52608b8484613a555a931","resource":{"resourceType":"Encounter","id":"f1fc76ad-ef5c-45af-aaa9-144c917f8a82","meta":{"profile":["http://hl7.org/fhir/us/qicore/StructureDefinition/qicore-encounter"]},"status":"finished","class":{"system":"http://terminology.hl7.org/CodeSystem/v3-ActCode","code":"AMB","display":"ambulatory","userSelected":true},"type":[{"coding":[{"system":"http://www.ama-assn.org/go/cpt","code":"77431"}]}],"subject":{"reference":"Patient/08690d2a-e82c-473f-a8c2-9fd5dc6747de"},"period":{"start":"2023-12-29T14:00:00.000Z","end":"2023-12-29T14:00:00.000Z"}},"request":{"method":"PUT","url":"Encounter/f1fc76ad-ef5c-45af-aaa9-144c917f8a82"}},{"fullUrl":"https://madie.cms.gov/Organization/123456","resource":{"resourceType":"Organization","id":"4b5a882f-1f43-485c-85c6-f5ad2337d5b1","meta":{"profile":["http://hl7.org/fhir/us/qicore/StructureDefinition/qicore-organization"]},"identifier":[{"use":"temp","system":"urn:oid:2.16.840.1.113883.4.4","value":"21-3259825"}],"active":true,"type":[{"coding":[{"system":"http://terminology.hl7.org/CodeSystem/organization-type","code":"pay","display":"Payer"}]}],"name":"Blue Cross Blue Shield of Texas","telecom":[{"system":"phone","value":"(+1) 972-766-6900"}],"address":[{"use":"billing","type":"postal","line":["P.O. Box 660044"],"city":"Dallas","state":"TX","postalCode":"75266-0044","country":"USA"}]},"request":{"method":"PUT","url":"Organization/4b5a882f-1f43-485c-85c6-f5ad2337d5b1"}},{"fullUrl":"https://madie.cms.gov/Practitioner/practitioner-123456","resource":{"resourceType":"Practitioner","id":"2978a452-870d-43e9-ae5e-e5d90473813b","meta":{"profile":["http://hl7.org/fhir/us/qicore/StructureDefinition/qicore-practitioner"]},"identifier":[{"system":"http://hl7.org/fhir/sid/us-npi","value":"123456"}],"name":[{"family":"Evil","prefix":["Dr"]}]},"request":{"method":"PUT","url":"Practitioner/2978a452-870d-43e9-ae5e-e5d90473813b"}},{"fullUrl":"https://madie.cms.gov/MeasureReport/5d42c2cb-2173-4df6-9e86-601532b61d63","resource":{"resourceType":"MeasureReport","id":"5d42c2cb-2173-4df6-9e86-601532b61d63","meta":{"profile":["http://hl7.org/fhir/us/cqfmeasures/StructureDefinition/test-case-cqfm"]},"contained":[{"resourceType":"Parameters","id":"ed7198ed-b80e-4641-88e9-ec336f0792cf-parameters","parameter":[{"name":"subject","valueString":"08690d2a-e82c-473f-a8c2-9fd5dc6747de"}]}],"extension":[{"url":"http://hl7.org/fhir/us/cqfmeasures/StructureDefinition/cqfm-inputParameters","valueReference":{"reference":"#ed7198ed-b80e-4641-88e9-ec336f0792cf-parameters"}},{"url":"http://hl7.org/fhir/us/cqfmeasures/StructureDefinition/cqfm-testCaseDescription","valueMarkdown":"Patient with cancer diagnosis that overlaps radiation treatment management, but radiation treatment management occurs before the measurement period.\n"}],"modifierExtension":[{"url":"http://hl7.org/fhir/us/cqfmeasures/StructureDefinition/cqfm-isTestCase","valueBoolean":true}],"status":"complete","type":"individual","measure":"https://madie.cms.gov/Measure/OncologyPainIntensityQuantifiedFHIR","period":{"start":"2025-01-01","end":"2025-12-31"},"group":[{"population":[{"code":{"coding":[{"system":"http://terminology.hl7.org/CodeSystem/measure-population","code":"initial-population","display":"Initial Population"}]},"count":0},{"code":{"coding":[{"system":"http://terminology.hl7.org/CodeSystem/measure-population","code":"denominator","display":"Denominator"}]},"count":0},{"code":{"coding":[{"system":"http://terminology.hl7.org/CodeSystem/measure-population","code":"numerator","display":"Numerator"}]},"count":0}]},{"population":[{"code":{"coding":[{"system":"http://terminology.hl7.org/CodeSystem/measure-population","code":"initial-population","display":"Initial Population"}]},"count":0},{"code":{"coding":[{"system":"http://terminology.hl7.org/CodeSystem/measure-population","code":"denominator","display":"Denominator"}]},"count":0},{"code":{"coding":[{"system":"http://terminology.hl7.org/CodeSystem/measure-population","code":"numerator","display":"Numerator"}]},"count":0}]}]},"request":{"method":"PUT","url":"MeasureReport/5d42c2cb-2173-4df6-9e86-601532b61d63"}}]}