{"resourceType":"Bundle","id":"tests-91ebcd41-a1a5-45e0-95fd-e2a2799f4459-bundle","type":"transaction","entry":[{"fullUrl":"https://madie.cms.gov/Patient/91ebcd41-a1a5-45e0-95fd-e2a2799f4459","resource":{"resourceType":"Patient","id":"91ebcd41-a1a5-45e0-95fd-e2a2799f4459","meta":{"profile":["http://hl7.org/fhir/us/qicore/StructureDefinition/qicore-patient"]},"text":{"status":"generated","div":"<div xmlns=\"http://www.w3.org/1999/xhtml\"><div class=\"hapiHeaderText\">EncPriorMP<b>IPPFailPop1</b></div><table class=\"hapiPropertyTable\"><tbody><tr><td>Identifier</td><td>3a32515f77a3f69506b686cae30ab46d</td></tr><tr><td>Date of birth</td><td><span>13 April 1921</span></td></tr></tbody></table></div>"},"extension":[{"url":"http://hl7.org/fhir/us/core/StructureDefinition/us-core-race","extension":[{"url":"ombCategory","valueCoding":{"system":"urn:oid:2.16.840.1.113883.6.238","code":"1002-5","display":"American Indian or Alaska Native","userSelected":true}},{"url":"text","valueString":"American Indian or Alaska Native"}]},{"url":"http://hl7.org/fhir/us/core/StructureDefinition/us-core-ethnicity","extension":[{"url":"ombCategory","valueCoding":{"system":"urn:oid:2.16.840.1.113883.6.238","code":"2135-2","display":"Hispanic or Latino","userSelected":true}},{"url":"text","valueString":"Hispanic or Latino"}]}],"identifier":[{"type":{"coding":[{"system":"http://terminology.hl7.org/CodeSystem/v2-0203","code":"MR"}]},"system":"https://bonnie-fhir.healthit.gov/","value":"62c880ec0111a60120dc220a"}],"active":true,"name":[{"use":"usual","family":"IPPFailPop1","given":["EncPriorMP"]}],"gender":"male","birthDate":"1921-04-13"},"request":{"method":"PUT","url":"Patient/91ebcd41-a1a5-45e0-95fd-e2a2799f4459"}},{"fullUrl":"https://madie.cms.gov/Condition/5ca52603b8484613a555a8e6","resource":{"resourceType":"Condition","id":"c060d963-9744-41fc-9a7c-246421261bc4","meta":{"profile":["http://hl7.org/fhir/us/qicore/StructureDefinition/qicore-condition"]},"clinicalStatus":{"coding":[{"system":"http://terminology.hl7.org/CodeSystem/condition-clinical","code":"active","display":"active","userSelected":true}]},"verificationStatus":{"coding":[{"system":"http://terminology.hl7.org/CodeSystem/condition-ver-status","code":"confirmed","display":"Confirmed"}]},"category":[{"coding":[{"system":"http://terminology.hl7.org/CodeSystem/condition-category","code":"problem-list-item","display":"Problem List Item"}]}],"code":{"coding":[{"system":"http://hl7.org/fhir/sid/icd-10-cm","code":"C44.229"}]},"subject":{"reference":"Patient/91ebcd41-a1a5-45e0-95fd-e2a2799f4459"},"onsetDateTime":"2020-01-14T10:50:00.000Z"},"request":{"method":"PUT","url":"Condition/c060d963-9744-41fc-9a7c-246421261bc4"}},{"fullUrl":"https://madie.cms.gov/Encounter/5ca52603b8484613a555a8e7","resource":{"resourceType":"Encounter","id":"0a630041-d2b8-4295-95a0-d9cb93c24694","meta":{"profile":["http://hl7.org/fhir/us/qicore/StructureDefinition/qicore-encounter"]},"status":"finished","class":{"system":"http://terminology.hl7.org/CodeSystem/v3-ActCode","code":"AMB","display":"ambulatory","userSelected":true},"type":[{"coding":[{"system":"http://snomed.info/sct","code":"185463005"}]}],"subject":{"reference":"Patient/91ebcd41-a1a5-45e0-95fd-e2a2799f4459"},"period":{"start":"2023-12-29T10:50:00.000Z","end":"2023-12-29T10:50:00.000Z"}},"request":{"method":"PUT","url":"Encounter/0a630041-d2b8-4295-95a0-d9cb93c24694"}},{"fullUrl":"https://madie.cms.gov/Coverage/60099ac51c76ba64612b0619","resource":{"resourceType":"Coverage","id":"68e7fd39-90a7-4a16-a578-1d9403881b6b","meta":{"profile":["http://hl7.org/fhir/us/qicore/StructureDefinition/qicore-coverage"]},"status":"active","beneficiary":{"reference":"Patient/91ebcd41-a1a5-45e0-95fd-e2a2799f4459"},"period":{"start":"1921-04-13T08:00:00.000Z"},"payor":[{"reference":"Organization/4b5a882f-1f43-485c-85c6-f5ad2337d5b1"}]},"request":{"method":"PUT","url":"Coverage/68e7fd39-90a7-4a16-a578-1d9403881b6b"}},{"fullUrl":"https://madie.cms.gov/Procedure/5ca52603b8484613a555a8e8","resource":{"resourceType":"Procedure","id":"cc44031b-365c-4f2f-9640-c733cb04524d","meta":{"profile":["http://hl7.org/fhir/us/qicore/StructureDefinition/qicore-procedure"]},"extension":[{"url":"http://hl7.org/fhir/us/qicore/StructureDefinition/qicore-recorded","valueDateTime":"2023-12-27T10:35:00.000Z"}],"status":"completed","code":{"coding":[{"system":"http://www.ama-assn.org/go/cpt","code":"96405"}]},"subject":{"reference":"Patient/91ebcd41-a1a5-45e0-95fd-e2a2799f4459"},"performedPeriod":{"start":"2023-12-27T10:30:00.000Z","end":"2023-12-27T10:30:00.000Z"}},"request":{"method":"PUT","url":"Procedure/cc44031b-365c-4f2f-9640-c733cb04524d"}},{"fullUrl":"https://madie.cms.gov/Procedure/5ca52603b8484613a555a8e9","resource":{"resourceType":"Procedure","id":"35f971af-19c0-4acb-8645-ebcb25e8d1c0","meta":{"profile":["http://hl7.org/fhir/us/qicore/StructureDefinition/qicore-procedure"]},"extension":[{"url":"http://hl7.org/fhir/us/qicore/StructureDefinition/qicore-recorded","valueDateTime":"2025-01-15T12:50:00.000Z"}],"status":"completed","code":{"coding":[{"system":"http://www.ama-assn.org/go/cpt","code":"96405"}]},"subject":{"reference":"Patient/91ebcd41-a1a5-45e0-95fd-e2a2799f4459"},"performedPeriod":{"start":"2025-01-15T12:45:00.000Z","end":"2025-01-15T12:45:00.000Z"}},"request":{"method":"PUT","url":"Procedure/35f971af-19c0-4acb-8645-ebcb25e8d1c0"}},{"fullUrl":"https://madie.cms.gov/Organization/123456","resource":{"resourceType":"Organization","id":"4b5a882f-1f43-485c-85c6-f5ad2337d5b1","meta":{"profile":["http://hl7.org/fhir/us/qicore/StructureDefinition/qicore-organization"]},"identifier":[{"use":"temp","system":"urn:oid:2.16.840.1.113883.4.4","value":"21-3259825"}],"active":true,"type":[{"coding":[{"system":"http://terminology.hl7.org/CodeSystem/organization-type","code":"pay","display":"Payer"}]}],"name":"Blue Cross Blue Shield of Texas","telecom":[{"system":"phone","value":"(+1) 972-766-6900"}],"address":[{"use":"billing","type":"postal","line":["P.O. Box 660044"],"city":"Dallas","state":"TX","postalCode":"75266-0044","country":"USA"}]},"request":{"method":"PUT","url":"Organization/4b5a882f-1f43-485c-85c6-f5ad2337d5b1"}},{"fullUrl":"https://madie.cms.gov/Practitioner/practitioner-123456","resource":{"resourceType":"Practitioner","id":"6f104cd0-0cca-4363-92e0-f61023addd26","meta":{"profile":["http://hl7.org/fhir/us/qicore/StructureDefinition/qicore-practitioner"]},"identifier":[{"system":"http://hl7.org/fhir/sid/us-npi","value":"123456"}],"name":[{"family":"Evil","prefix":["Dr"]}]},"request":{"method":"PUT","url":"Practitioner/6f104cd0-0cca-4363-92e0-f61023addd26"}},{"fullUrl":"https://madie.cms.gov/MeasureReport/cead8c39-7e8a-4009-86e6-730eee5e182e","resource":{"resourceType":"MeasureReport","id":"cead8c39-7e8a-4009-86e6-730eee5e182e","meta":{"profile":["http://hl7.org/fhir/us/cqfmeasures/StructureDefinition/test-case-cqfm"]},"contained":[{"resourceType":"Parameters","id":"34631cf5-40de-48bc-b034-816c170e837e-parameters","parameter":[{"name":"subject","valueString":"91ebcd41-a1a5-45e0-95fd-e2a2799f4459"}]}],"extension":[{"url":"http://hl7.org/fhir/us/cqfmeasures/StructureDefinition/cqfm-inputParameters","valueReference":{"reference":"#34631cf5-40de-48bc-b034-816c170e837e-parameters"}},{"url":"http://hl7.org/fhir/us/cqfmeasures/StructureDefinition/cqfm-testCaseDescription","valueMarkdown":"Patient with cancer diagnosis that overlaps the office visit. Office visit occurs prior to the measurement period. \n"}],"modifierExtension":[{"url":"http://hl7.org/fhir/us/cqfmeasures/StructureDefinition/cqfm-isTestCase","valueBoolean":true}],"status":"complete","type":"individual","measure":"https://madie.cms.gov/Measure/OncologyPainIntensityQuantifiedFHIR","period":{"start":"2025-01-01","end":"2025-12-31"},"group":[{"population":[{"code":{"coding":[{"system":"http://terminology.hl7.org/CodeSystem/measure-population","code":"initial-population","display":"Initial Population"}]},"count":0},{"code":{"coding":[{"system":"http://terminology.hl7.org/CodeSystem/measure-population","code":"denominator","display":"Denominator"}]},"count":0},{"code":{"coding":[{"system":"http://terminology.hl7.org/CodeSystem/measure-population","code":"numerator","display":"Numerator"}]},"count":0}]},{"population":[{"code":{"coding":[{"system":"http://terminology.hl7.org/CodeSystem/measure-population","code":"initial-population","display":"Initial Population"}]},"count":0},{"code":{"coding":[{"system":"http://terminology.hl7.org/CodeSystem/measure-population","code":"denominator","display":"Denominator"}]},"count":0},{"code":{"coding":[{"system":"http://terminology.hl7.org/CodeSystem/measure-population","code":"numerator","display":"Numerator"}]},"count":0}]}]},"request":{"method":"PUT","url":"MeasureReport/cead8c39-7e8a-4009-86e6-730eee5e182e"}}]}