{"resourceType":"Bundle","id":"tests-bed82a8e-cb87-42ec-8663-17d35c34c060-bundle","type":"transaction","entry":[{"fullUrl":"https://madie.cms.gov/Patient/bed82a8e-cb87-42ec-8663-17d35c34c060","resource":{"resourceType":"Patient","id":"bed82a8e-cb87-42ec-8663-17d35c34c060","meta":{"profile":["http://hl7.org/fhir/us/qicore/StructureDefinition/qicore-patient"]},"text":{"status":"generated","div":"<div xmlns=\"http://www.w3.org/1999/xhtml\"><div class=\"hapiHeaderText\">PainAssessAfterEnc<b>NUMERFAILPOP1</b></div><table class=\"hapiPropertyTable\"><tbody><tr><td>Identifier</td><td>021b14b0936a8732908566e4a90bf2ab</td></tr><tr><td>Date of birth</td><td><span>11 March 1946</span></td></tr></tbody></table></div>"},"extension":[{"url":"http://hl7.org/fhir/us/core/StructureDefinition/us-core-race","extension":[{"url":"ombCategory","valueCoding":{"system":"urn:oid:2.16.840.1.113883.6.238","code":"1002-5","display":"American Indian or Alaska Native","userSelected":true}},{"url":"text","valueString":"American Indian or Alaska Native"}]},{"url":"http://hl7.org/fhir/us/core/StructureDefinition/us-core-ethnicity","extension":[{"url":"ombCategory","valueCoding":{"system":"urn:oid:2.16.840.1.113883.6.238","code":"2135-2","display":"Hispanic or Latino","userSelected":true}},{"url":"text","valueString":"Hispanic or Latino"}]}],"identifier":[{"type":{"coding":[{"system":"http://terminology.hl7.org/CodeSystem/v2-0203","code":"MR"}]},"system":"https://bonnie-fhir.healthit.gov/","value":"62c880ed0111a60120dc2222"}],"active":true,"name":[{"use":"usual","family":"NUMERFailPop1","given":["PainAssessAfterEnc"]}],"gender":"male","birthDate":"1946-03-11"},"request":{"method":"PUT","url":"Patient/bed82a8e-cb87-42ec-8663-17d35c34c060"}},{"fullUrl":"https://madie.cms.gov/Observation/5e41c535a9c22a0000b329a0","resource":{"resourceType":"Observation","id":"4215780c-b98e-4a92-99d3-63166a550f40","meta":{"profile":["http://hl7.org/fhir/us/qicore/StructureDefinition/qicore-observation"]},"status":"final","category":[{"coding":[{"system":"http://terminology.hl7.org/CodeSystem/observation-category","code":"survey","display":"Survey"}],"text":"Survey"}],"code":{"coding":[{"system":"http://loinc.org","code":"38208-5","display":"Pain severity - Reported"}],"text":"Pain severity - Reported"},"subject":{"reference":"Patient/bed82a8e-cb87-42ec-8663-17d35c34c060"},"effectiveDateTime":"2025-04-10T08:00:00.000Z","valueInteger":7},"request":{"method":"PUT","url":"Observation/4215780c-b98e-4a92-99d3-63166a550f40"}},{"fullUrl":"https://madie.cms.gov/Condition/5ca52604b8484613a555a8f7","resource":{"resourceType":"Condition","id":"41ee59cf-5469-438f-8c38-f8ec68aa5fa0","meta":{"profile":["http://hl7.org/fhir/us/qicore/StructureDefinition/qicore-condition"]},"clinicalStatus":{"coding":[{"system":"http://terminology.hl7.org/CodeSystem/condition-clinical","code":"active","display":"active","userSelected":true}]},"verificationStatus":{"coding":[{"system":"http://terminology.hl7.org/CodeSystem/condition-ver-status","code":"confirmed","display":"Confirmed"}]},"category":[{"coding":[{"system":"http://terminology.hl7.org/CodeSystem/condition-category","code":"problem-list-item","display":"Problem List Item"}]}],"code":{"coding":[{"system":"http://snomed.info/sct","code":"107691000119101"}]},"subject":{"reference":"Patient/bed82a8e-cb87-42ec-8663-17d35c34c060"},"onsetDateTime":"2025-02-17T14:50:00.000Z"},"request":{"method":"PUT","url":"Condition/41ee59cf-5469-438f-8c38-f8ec68aa5fa0"}},{"fullUrl":"https://madie.cms.gov/Encounter/5ca52604b8484613a555a8f8","resource":{"resourceType":"Encounter","id":"5b765fb7-d46a-4e90-b371-0e44ba912cec","meta":{"profile":["http://hl7.org/fhir/us/qicore/StructureDefinition/qicore-encounter"]},"status":"finished","class":{"system":"http://terminology.hl7.org/CodeSystem/v3-ActCode","code":"AMB","display":"ambulatory","userSelected":true},"type":[{"coding":[{"system":"http://www.ama-assn.org/go/cpt","code":"99213"}]}],"subject":{"reference":"Patient/bed82a8e-cb87-42ec-8663-17d35c34c060"},"period":{"start":"2025-03-02T09:00:00.000Z","end":"2025-03-02T09:00:00.000Z"}},"request":{"method":"PUT","url":"Encounter/5b765fb7-d46a-4e90-b371-0e44ba912cec"}},{"fullUrl":"https://madie.cms.gov/Coverage/60099ac71c76ba64612b064c","resource":{"resourceType":"Coverage","id":"ce6efb33-f4a4-40fa-a8b2-137b20860d49","meta":{"profile":["http://hl7.org/fhir/us/qicore/StructureDefinition/qicore-coverage"]},"status":"active","beneficiary":{"reference":"Patient/bed82a8e-cb87-42ec-8663-17d35c34c060"},"period":{"start":"1946-03-11T08:00:00.000Z"},"payor":[{"reference":"Organization/4b5a882f-1f43-485c-85c6-f5ad2337d5b1"}]},"request":{"method":"PUT","url":"Coverage/ce6efb33-f4a4-40fa-a8b2-137b20860d49"}},{"fullUrl":"https://madie.cms.gov/Procedure/5ca52604b8484613a555a8f9","resource":{"resourceType":"Procedure","id":"e4e3f7cb-578b-4a39-a0d5-0cfffe6eb3bf","meta":{"profile":["http://hl7.org/fhir/us/qicore/StructureDefinition/qicore-procedure"]},"extension":[{"url":"http://hl7.org/fhir/us/qicore/StructureDefinition/qicore-recorded","valueDateTime":"2025-02-20T12:35:00.000Z"}],"status":"completed","code":{"coding":[{"system":"http://www.ama-assn.org/go/cpt","code":"96409"}]},"subject":{"reference":"Patient/bed82a8e-cb87-42ec-8663-17d35c34c060"},"performedPeriod":{"start":"2025-02-20T10:45:00.000Z","end":"2025-02-20T10:45:00.000Z"}},"request":{"method":"PUT","url":"Procedure/e4e3f7cb-578b-4a39-a0d5-0cfffe6eb3bf"}},{"fullUrl":"https://madie.cms.gov/Procedure/5ca52604b8484613a555a8fa","resource":{"resourceType":"Procedure","id":"13f9a6ea-a732-4fba-8f8b-5df993619e46","meta":{"profile":["http://hl7.org/fhir/us/qicore/StructureDefinition/qicore-procedure"]},"extension":[{"url":"http://hl7.org/fhir/us/qicore/StructureDefinition/qicore-recorded","valueDateTime":"2025-03-18T00:35:00.000Z"}],"status":"completed","code":{"coding":[{"system":"http://www.ama-assn.org/go/cpt","code":"96409"}]},"subject":{"reference":"Patient/bed82a8e-cb87-42ec-8663-17d35c34c060"},"performedPeriod":{"start":"2025-03-18T00:30:00.000Z","end":"2025-03-18T00:30:00.000Z"}},"request":{"method":"PUT","url":"Procedure/13f9a6ea-a732-4fba-8f8b-5df993619e46"}},{"fullUrl":"https://madie.cms.gov/Organization/123456","resource":{"resourceType":"Organization","id":"4b5a882f-1f43-485c-85c6-f5ad2337d5b1","meta":{"profile":["http://hl7.org/fhir/us/qicore/StructureDefinition/qicore-organization"]},"identifier":[{"use":"temp","system":"urn:oid:2.16.840.1.113883.4.4","value":"21-3259825"}],"active":true,"type":[{"coding":[{"system":"http://terminology.hl7.org/CodeSystem/organization-type","code":"pay","display":"Payer"}]}],"name":"Blue Cross Blue Shield of Texas","telecom":[{"system":"phone","value":"(+1) 972-766-6900"}],"address":[{"use":"billing","type":"postal","line":["P.O. Box 660044"],"city":"Dallas","state":"TX","postalCode":"75266-0044","country":"USA"}]},"request":{"method":"PUT","url":"Organization/4b5a882f-1f43-485c-85c6-f5ad2337d5b1"}},{"fullUrl":"https://madie.cms.gov/Practitioner/practitioner-123456","resource":{"resourceType":"Practitioner","id":"020d2dd0-9f20-4f44-a1bd-947850fa8a6d","meta":{"profile":["http://hl7.org/fhir/us/qicore/StructureDefinition/qicore-practitioner"]},"identifier":[{"system":"http://hl7.org/fhir/sid/us-npi","value":"123456"}],"name":[{"family":"Evil","prefix":["Dr"]}]},"request":{"method":"PUT","url":"Practitioner/020d2dd0-9f20-4f44-a1bd-947850fa8a6d"}},{"fullUrl":"https://madie.cms.gov/MeasureReport/dc625712-f6c4-437d-8286-bff613d014d1","resource":{"resourceType":"MeasureReport","id":"dc625712-f6c4-437d-8286-bff613d014d1","meta":{"profile":["http://hl7.org/fhir/us/cqfmeasures/StructureDefinition/test-case-cqfm"]},"contained":[{"resourceType":"Parameters","id":"bc5cc6bd-521d-4a0b-970a-ba9ce8e2da95-parameters","parameter":[{"name":"subject","valueString":"bed82a8e-cb87-42ec-8663-17d35c34c060"}]}],"extension":[{"url":"http://hl7.org/fhir/us/cqfmeasures/StructureDefinition/cqfm-inputParameters","valueReference":{"reference":"#bc5cc6bd-521d-4a0b-970a-ba9ce8e2da95-parameters"}},{"url":"http://hl7.org/fhir/us/cqfmeasures/StructureDefinition/cqfm-testCaseDescription","valueMarkdown":"Patient with cancer diagnosis overlaps the office visit during measurement period. Chemotherapy administered but pain intensity assessment was performed after the office visit.  \n"}],"modifierExtension":[{"url":"http://hl7.org/fhir/us/cqfmeasures/StructureDefinition/cqfm-isTestCase","valueBoolean":true}],"status":"complete","type":"individual","measure":"https://madie.cms.gov/Measure/OncologyPainIntensityQuantifiedFHIR","period":{"start":"2025-01-01","end":"2025-12-31"},"group":[{"population":[{"code":{"coding":[{"system":"http://terminology.hl7.org/CodeSystem/measure-population","code":"initial-population","display":"Initial Population"}]},"count":1},{"code":{"coding":[{"system":"http://terminology.hl7.org/CodeSystem/measure-population","code":"denominator","display":"Denominator"}]},"count":1},{"code":{"coding":[{"system":"http://terminology.hl7.org/CodeSystem/measure-population","code":"numerator","display":"Numerator"}]},"count":0}]},{"population":[{"code":{"coding":[{"system":"http://terminology.hl7.org/CodeSystem/measure-population","code":"initial-population","display":"Initial Population"}]},"count":0},{"code":{"coding":[{"system":"http://terminology.hl7.org/CodeSystem/measure-population","code":"denominator","display":"Denominator"}]},"count":0},{"code":{"coding":[{"system":"http://terminology.hl7.org/CodeSystem/measure-population","code":"numerator","display":"Numerator"}]},"count":0}]}]},"request":{"method":"PUT","url":"MeasureReport/dc625712-f6c4-437d-8286-bff613d014d1"}}]}