{"resourceType":"Bundle","id":"tests-08f5e385-dbd5-4405-98ab-673d7d582069-bundle","type":"transaction","entry":[{"fullUrl":"https://madie.cms.gov/Patient/08f5e385-dbd5-4405-98ab-673d7d582069","resource":{"resourceType":"Patient","id":"08f5e385-dbd5-4405-98ab-673d7d582069","meta":{"profile":["http://hl7.org/fhir/us/qicore/StructureDefinition/qicore-patient"]},"text":{"status":"generated","div":"<div xmlns=\"http://www.w3.org/1999/xhtml\"><div class=\"hapiHeaderText\">RadTxwithPainAssessMultEp<b>NUMERPassPop2</b></div><table class=\"hapiPropertyTable\"><tbody><tr><td>Identifier</td><td>e9c0a9906dc13ac52fb44513edfd07c01cf9a98a2e657fabc9d5dbf2de3b50bf</td></tr><tr><td>Date of birth</td><td><span>13 May 1932</span></td></tr></tbody></table></div>"},"extension":[{"url":"http://hl7.org/fhir/us/core/StructureDefinition/us-core-race","extension":[{"url":"ombCategory","valueCoding":{"system":"urn:oid:2.16.840.1.113883.6.238","code":"1002-5","display":"American Indian or Alaska Native","userSelected":true}},{"url":"text","valueString":"American Indian or Alaska Native"}]},{"url":"http://hl7.org/fhir/us/core/StructureDefinition/us-core-ethnicity","extension":[{"url":"ombCategory","valueCoding":{"system":"urn:oid:2.16.840.1.113883.6.238","code":"2135-2","display":"Hispanic or Latino","userSelected":true}},{"url":"text","valueString":"Hispanic or Latino"}]}],"identifier":[{"type":{"coding":[{"system":"http://terminology.hl7.org/CodeSystem/v2-0203","code":"MR"}]},"system":"https://bonnie-fhir.healthit.gov/","value":"62c880ec0111a60120dc220e"}],"active":true,"name":[{"use":"usual","family":"NUMERPassPop2","given":["RadTxwithPainAssessMultEp"]}],"gender":"female","birthDate":"1932-05-13"},"request":{"method":"PUT","url":"Patient/08f5e385-dbd5-4405-98ab-673d7d582069"}},{"fullUrl":"https://madie.cms.gov/Observation/5ca5260ab8484613a555a956","resource":{"resourceType":"Observation","id":"dee4eee7-b03b-4e39-9119-69fdcbe81add","meta":{"profile":["http://hl7.org/fhir/us/qicore/StructureDefinition/qicore-observation"]},"status":"final","category":[{"coding":[{"system":"http://terminology.hl7.org/CodeSystem/observation-category","code":"survey","display":"Survey"}],"text":"Survey"}],"code":{"coding":[{"system":"http://loinc.org","code":"38208-5"}]},"subject":{"reference":"Patient/08f5e385-dbd5-4405-98ab-673d7d582069"},"effectiveDateTime":"2025-03-05T09:00:00.000+00:00","valueInteger":5},"request":{"method":"PUT","url":"Observation/dee4eee7-b03b-4e39-9119-69fdcbe81add"}},{"fullUrl":"https://madie.cms.gov/Observation/5ca5260ab8484613a555a958","resource":{"resourceType":"Observation","id":"07e5ba55-b71a-4311-9c41-6621ee21a9f0","meta":{"profile":["http://hl7.org/fhir/us/qicore/StructureDefinition/qicore-observation"]},"status":"final","category":[{"coding":[{"system":"http://terminology.hl7.org/CodeSystem/observation-category","code":"survey","display":"Survey"}],"text":"Survey"}],"code":{"coding":[{"system":"http://loinc.org","code":"38221-8"}]},"subject":{"reference":"Patient/08f5e385-dbd5-4405-98ab-673d7d582069"},"effectiveDateTime":"2025-08-30T15:00:00.000+00:00","valueInteger":5},"request":{"method":"PUT","url":"Observation/07e5ba55-b71a-4311-9c41-6621ee21a9f0"}},{"fullUrl":"https://madie.cms.gov/Condition/5ca5260ab8484613a555a953","resource":{"resourceType":"Condition","id":"54b766a6-0b82-40d0-9dab-1be651f1cb69","meta":{"profile":["http://hl7.org/fhir/us/qicore/StructureDefinition/qicore-condition"]},"clinicalStatus":{"coding":[{"system":"http://terminology.hl7.org/CodeSystem/condition-clinical","code":"active","display":"active","userSelected":true}]},"verificationStatus":{"coding":[{"system":"http://terminology.hl7.org/CodeSystem/condition-ver-status","code":"confirmed","display":"Confirmed"}]},"category":[{"coding":[{"system":"http://terminology.hl7.org/CodeSystem/condition-category","code":"problem-list-item","display":"Problem List Item"}]}],"code":{"coding":[{"system":"http://snomed.info/sct","code":"107691000119101"}]},"subject":{"reference":"Patient/08f5e385-dbd5-4405-98ab-673d7d582069"},"onsetDateTime":"2023-11-01T13:30:00.000Z"},"request":{"method":"PUT","url":"Condition/54b766a6-0b82-40d0-9dab-1be651f1cb69"}},{"fullUrl":"https://madie.cms.gov/Coverage/60099ac81c76ba64612b0667","resource":{"resourceType":"Coverage","id":"49c9990b-710f-4ee0-a454-79eea56c0d31","meta":{"profile":["http://hl7.org/fhir/us/qicore/StructureDefinition/qicore-coverage"]},"status":"active","beneficiary":{"reference":"Patient/08f5e385-dbd5-4405-98ab-673d7d582069"},"period":{"start":"1932-05-13T08:00:00.000Z"},"payor":[{"reference":"Organization/4b5a882f-1f43-485c-85c6-f5ad2337d5b1"}]},"request":{"method":"PUT","url":"Coverage/49c9990b-710f-4ee0-a454-79eea56c0d31"}},{"fullUrl":"https://madie.cms.gov/Encounter/radiation-treatment-management-2792","resource":{"resourceType":"Encounter","id":"7766fcb1-3f1e-4b55-8281-1840c06be366","meta":{"profile":["http://hl7.org/fhir/us/qicore/StructureDefinition/qicore-encounter"]},"status":"finished","class":{"system":"http://terminology.hl7.org/CodeSystem/v3-ActCode","code":"AMB","display":"ambulatory","userSelected":true},"type":[{"coding":[{"system":"http://www.ama-assn.org/go/cpt","version":"2023","code":"77427","display":"Radiation treatment management, 5 treatments","userSelected":true}]}],"subject":{"reference":"Patient/08f5e385-dbd5-4405-98ab-673d7d582069"},"period":{"start":"2025-03-05T08:00:00.000+00:00","end":"2025-03-05T10:00:00.000+00:00"}},"request":{"method":"PUT","url":"Encounter/7766fcb1-3f1e-4b55-8281-1840c06be366"}},{"fullUrl":"https://madie.cms.gov/Encounter/radiation-treatment-management-2793","resource":{"resourceType":"Encounter","id":"aa5cb7f6-e74b-4994-8ab3-3ea275abac31","meta":{"profile":["http://hl7.org/fhir/us/qicore/StructureDefinition/qicore-encounter"]},"status":"finished","class":{"system":"http://terminology.hl7.org/CodeSystem/v3-ActCode","code":"AMB","display":"ambulatory","userSelected":true},"type":[{"coding":[{"system":"http://www.ama-assn.org/go/cpt","code":"77432","userSelected":true}]}],"subject":{"reference":"Patient/08f5e385-dbd5-4405-98ab-673d7d582069"},"period":{"start":"2025-08-30T08:00:00.000+00:00","end":"2025-08-30T08:15:00.000+00:00"}},"request":{"method":"PUT","url":"Encounter/aa5cb7f6-e74b-4994-8ab3-3ea275abac31"}},{"fullUrl":"https://madie.cms.gov/Organization/123456","resource":{"resourceType":"Organization","id":"4b5a882f-1f43-485c-85c6-f5ad2337d5b1","meta":{"profile":["http://hl7.org/fhir/us/qicore/StructureDefinition/qicore-organization"]},"identifier":[{"use":"temp","system":"urn:oid:2.16.840.1.113883.4.4","value":"21-3259825"}],"active":true,"type":[{"coding":[{"system":"http://terminology.hl7.org/CodeSystem/organization-type","code":"pay","display":"Payer"}]}],"name":"Blue Cross Blue Shield of Texas","telecom":[{"system":"phone","value":"(+1) 972-766-6900"}],"address":[{"use":"billing","type":"postal","line":["P.O. Box 660044"],"city":"Dallas","state":"TX","postalCode":"75266-0044","country":"USA"}]},"request":{"method":"PUT","url":"Organization/4b5a882f-1f43-485c-85c6-f5ad2337d5b1"}},{"fullUrl":"https://madie.cms.gov/Practitioner/practitioner-123456","resource":{"resourceType":"Practitioner","id":"398b28fb-b2ff-4956-a54c-c0a1de7d033d","meta":{"profile":["http://hl7.org/fhir/us/qicore/StructureDefinition/qicore-practitioner"]},"identifier":[{"system":"http://hl7.org/fhir/sid/us-npi","value":"123456"}],"name":[{"family":"Evil","prefix":["Dr"]}]},"request":{"method":"PUT","url":"Practitioner/398b28fb-b2ff-4956-a54c-c0a1de7d033d"}},{"fullUrl":"https://madie.cms.gov/MeasureReport/a91bf5bd-1973-4fad-8f6a-9ea30f14f2ee","resource":{"resourceType":"MeasureReport","id":"a91bf5bd-1973-4fad-8f6a-9ea30f14f2ee","meta":{"profile":["http://hl7.org/fhir/us/cqfmeasures/StructureDefinition/test-case-cqfm"]},"contained":[{"resourceType":"Parameters","id":"0c4e1240-e5c2-4af8-a0da-d9e5a5eb10fb-parameters","parameter":[{"name":"subject","valueString":"08f5e385-dbd5-4405-98ab-673d7d582069"}]}],"extension":[{"url":"http://hl7.org/fhir/us/cqfmeasures/StructureDefinition/cqfm-inputParameters","valueReference":{"reference":"#0c4e1240-e5c2-4af8-a0da-d9e5a5eb10fb-parameters"}},{"url":"http://hl7.org/fhir/us/cqfmeasures/StructureDefinition/cqfm-testCaseDescription","valueMarkdown":"Patient with cancer diagnosis that overlaps radiation treatment management during measurement period. Pain intensity assessment was performed during radiation treatment management encounter. 2 episodes of care.\n"}],"modifierExtension":[{"url":"http://hl7.org/fhir/us/cqfmeasures/StructureDefinition/cqfm-isTestCase","valueBoolean":true}],"status":"complete","type":"individual","measure":"https://madie.cms.gov/Measure/OncologyPainIntensityQuantifiedFHIR","period":{"start":"2025-01-01","end":"2025-12-31"},"group":[{"population":[{"code":{"coding":[{"system":"http://terminology.hl7.org/CodeSystem/measure-population","code":"initial-population","display":"Initial Population"}]},"count":0},{"code":{"coding":[{"system":"http://terminology.hl7.org/CodeSystem/measure-population","code":"denominator","display":"Denominator"}]},"count":0},{"code":{"coding":[{"system":"http://terminology.hl7.org/CodeSystem/measure-population","code":"numerator","display":"Numerator"}]},"count":0}]},{"population":[{"code":{"coding":[{"system":"http://terminology.hl7.org/CodeSystem/measure-population","code":"initial-population","display":"Initial Population"}]},"count":2},{"code":{"coding":[{"system":"http://terminology.hl7.org/CodeSystem/measure-population","code":"denominator","display":"Denominator"}]},"count":2},{"code":{"coding":[{"system":"http://terminology.hl7.org/CodeSystem/measure-population","code":"numerator","display":"Numerator"}]},"count":2}]}]},"request":{"method":"PUT","url":"MeasureReport/a91bf5bd-1973-4fad-8f6a-9ea30f14f2ee"}}]}