{"resourceType":"Bundle","id":"tests-d7e9bf7d-2b55-4ae1-ab9e-c03cdedb1a2b-bundle","type":"transaction","entry":[{"fullUrl":"https://madie.cms.gov/Patient/d7e9bf7d-2b55-4ae1-ab9e-c03cdedb1a2b","resource":{"resourceType":"Patient","id":"d7e9bf7d-2b55-4ae1-ab9e-c03cdedb1a2b","meta":{"profile":["http://hl7.org/fhir/us/qicore/StructureDefinition/qicore-patient"]},"text":{"status":"generated","div":"<div xmlns=\"http://www.w3.org/1999/xhtml\"><div class=\"hapiHeaderText\">PainAssessEndsAfterRadTx<b>NUMERPassPop2</b></div><table class=\"hapiPropertyTable\"><tbody><tr><td>Identifier</td><td>513eac8560327b1f167921f8fbf35dba</td></tr><tr><td>Date of birth</td><td><span>25 April 1975</span></td></tr></tbody></table></div>"},"extension":[{"url":"http://hl7.org/fhir/us/core/StructureDefinition/us-core-race","extension":[{"url":"ombCategory","valueCoding":{"system":"urn:oid:2.16.840.1.113883.6.238","code":"1002-5","display":"American Indian or Alaska Native","userSelected":true}},{"url":"text","valueString":"American Indian or Alaska Native"}]},{"url":"http://hl7.org/fhir/us/core/StructureDefinition/us-core-ethnicity","extension":[{"url":"ombCategory","valueCoding":{"system":"urn:oid:2.16.840.1.113883.6.238","code":"2135-2","display":"Hispanic or Latino","userSelected":true}},{"url":"text","valueString":"Hispanic or Latino"}]}],"identifier":[{"type":{"coding":[{"system":"http://terminology.hl7.org/CodeSystem/v2-0203","code":"MR"}]},"system":"https://bonnie-fhir.healthit.gov/","value":"62c880ec0111a60120dc21f7"}],"active":true,"name":[{"use":"usual","family":"NUMERPassPop2","given":["PainAssessEndsAfterRadTx"]}],"gender":"male","birthDate":"1975-04-25"},"request":{"method":"PUT","url":"Patient/d7e9bf7d-2b55-4ae1-ab9e-c03cdedb1a2b"}},{"fullUrl":"https://madie.cms.gov/Observation/5ca52608b8484613a555a938","resource":{"resourceType":"Observation","id":"8f4e5437-a5f5-4490-ab80-96b962d2b232","meta":{"profile":["http://hl7.org/fhir/us/qicore/StructureDefinition/qicore-observation"]},"status":"final","category":[{"coding":[{"system":"http://terminology.hl7.org/CodeSystem/observation-category","code":"survey","display":"Survey"}],"text":"Survey"}],"code":{"coding":[{"system":"http://loinc.org","code":"38208-5"}]},"subject":{"reference":"Patient/d7e9bf7d-2b55-4ae1-ab9e-c03cdedb1a2b"},"effectivePeriod":{"start":"2025-05-06T12:55:00.000+00:00","end":"2025-05-06T13:05:00.000+00:00"},"valueInteger":5},"request":{"method":"PUT","url":"Observation/8f4e5437-a5f5-4490-ab80-96b962d2b232"}},{"fullUrl":"https://madie.cms.gov/Condition/5ca52608b8484613a555a936","resource":{"resourceType":"Condition","id":"a94ae0bc-9bd1-4561-9282-694f83d8ed7b","meta":{"profile":["http://hl7.org/fhir/us/qicore/StructureDefinition/qicore-condition"]},"clinicalStatus":{"coding":[{"system":"http://terminology.hl7.org/CodeSystem/condition-clinical","code":"active","display":"active","userSelected":true}]},"verificationStatus":{"coding":[{"system":"http://terminology.hl7.org/CodeSystem/condition-ver-status","code":"confirmed","display":"Confirmed"}]},"category":[{"coding":[{"system":"http://terminology.hl7.org/CodeSystem/condition-category","code":"problem-list-item","display":"Problem List Item"}]}],"code":{"coding":[{"system":"http://snomed.info/sct","code":"107691000119101"}]},"subject":{"reference":"Patient/d7e9bf7d-2b55-4ae1-ab9e-c03cdedb1a2b"},"onsetDateTime":"2021-05-06T12:45:00.000Z"},"request":{"method":"PUT","url":"Condition/a94ae0bc-9bd1-4561-9282-694f83d8ed7b"}},{"fullUrl":"https://madie.cms.gov/Coverage/60099ac81c76ba64612b0658","resource":{"resourceType":"Coverage","id":"53805899-0c8a-4563-9ac8-b6e746abb236","meta":{"profile":["http://hl7.org/fhir/us/qicore/StructureDefinition/qicore-coverage"]},"status":"active","beneficiary":{"reference":"Patient/d7e9bf7d-2b55-4ae1-ab9e-c03cdedb1a2b"},"period":{"start":"1975-04-25T08:00:00.000Z"},"payor":[{"reference":"Organization/4b5a882f-1f43-485c-85c6-f5ad2337d5b1"}]},"request":{"method":"PUT","url":"Coverage/53805899-0c8a-4563-9ac8-b6e746abb236"}},{"fullUrl":"https://madie.cms.gov/Encounter/5ca52608b8484613a555a937","resource":{"resourceType":"Encounter","id":"71a5c4a7-539e-4dce-9707-c6dc8653c803","meta":{"profile":["http://hl7.org/fhir/us/qicore/StructureDefinition/qicore-encounter"]},"status":"finished","class":{"system":"http://terminology.hl7.org/CodeSystem/v3-ActCode","code":"AMB","display":"ambulatory","userSelected":true},"type":[{"coding":[{"system":"http://www.ama-assn.org/go/cpt","code":"77427","userSelected":true}]}],"subject":{"reference":"Patient/d7e9bf7d-2b55-4ae1-ab9e-c03cdedb1a2b"},"period":{"start":"2025-05-06T09:00:00.000Z","end":"2025-05-06T13:00:00.000Z"}},"request":{"method":"PUT","url":"Encounter/71a5c4a7-539e-4dce-9707-c6dc8653c803"}},{"fullUrl":"https://madie.cms.gov/Organization/123456","resource":{"resourceType":"Organization","id":"4b5a882f-1f43-485c-85c6-f5ad2337d5b1","meta":{"profile":["http://hl7.org/fhir/us/qicore/StructureDefinition/qicore-organization"]},"identifier":[{"use":"temp","system":"urn:oid:2.16.840.1.113883.4.4","value":"21-3259825"}],"active":true,"type":[{"coding":[{"system":"http://terminology.hl7.org/CodeSystem/organization-type","code":"pay","display":"Payer"}]}],"name":"Blue Cross Blue Shield of Texas","telecom":[{"system":"phone","value":"(+1) 972-766-6900"}],"address":[{"use":"billing","type":"postal","line":["P.O. Box 660044"],"city":"Dallas","state":"TX","postalCode":"75266-0044","country":"USA"}]},"request":{"method":"PUT","url":"Organization/4b5a882f-1f43-485c-85c6-f5ad2337d5b1"}},{"fullUrl":"https://madie.cms.gov/Practitioner/practitioner-123456","resource":{"resourceType":"Practitioner","id":"93ce9694-0c8e-4d3d-a22c-730c05393f62","meta":{"profile":["http://hl7.org/fhir/us/qicore/StructureDefinition/qicore-practitioner"]},"identifier":[{"system":"http://hl7.org/fhir/sid/us-npi","value":"123456"}],"name":[{"family":"Evil","prefix":["Dr"]}]},"request":{"method":"PUT","url":"Practitioner/93ce9694-0c8e-4d3d-a22c-730c05393f62"}},{"fullUrl":"https://madie.cms.gov/MeasureReport/b06aa1cf-051a-4dec-9d26-6576aead56a5","resource":{"resourceType":"MeasureReport","id":"b06aa1cf-051a-4dec-9d26-6576aead56a5","meta":{"profile":["http://hl7.org/fhir/us/cqfmeasures/StructureDefinition/test-case-cqfm"]},"contained":[{"resourceType":"Parameters","id":"cad9e3d8-5790-4dc4-8821-bce21fcd7baf-parameters","parameter":[{"name":"subject","valueString":"d7e9bf7d-2b55-4ae1-ab9e-c03cdedb1a2b"}]}],"extension":[{"url":"http://hl7.org/fhir/us/cqfmeasures/StructureDefinition/cqfm-inputParameters","valueReference":{"reference":"#cad9e3d8-5790-4dc4-8821-bce21fcd7baf-parameters"}},{"url":"http://hl7.org/fhir/us/cqfmeasures/StructureDefinition/cqfm-testCaseDescription","valueMarkdown":"Patient with cancer diagnosis that overlaps radiation treatment management during measurement period. Pain intensity assessment was performed on the same day of but the end time was after end of radiation treatment management encounter. "}],"modifierExtension":[{"url":"http://hl7.org/fhir/us/cqfmeasures/StructureDefinition/cqfm-isTestCase","valueBoolean":true}],"status":"complete","type":"individual","measure":"https://madie.cms.gov/Measure/OncologyPainIntensityQuantifiedFHIR","period":{"start":"2025-01-01","end":"2025-12-31"},"group":[{"population":[{"code":{"coding":[{"system":"http://terminology.hl7.org/CodeSystem/measure-population","code":"initial-population","display":"Initial Population"}]},"count":0},{"code":{"coding":[{"system":"http://terminology.hl7.org/CodeSystem/measure-population","code":"denominator","display":"Denominator"}]},"count":0},{"code":{"coding":[{"system":"http://terminology.hl7.org/CodeSystem/measure-population","code":"numerator","display":"Numerator"}]},"count":0}]},{"population":[{"code":{"coding":[{"system":"http://terminology.hl7.org/CodeSystem/measure-population","code":"initial-population","display":"Initial Population"}]},"count":1},{"code":{"coding":[{"system":"http://terminology.hl7.org/CodeSystem/measure-population","code":"denominator","display":"Denominator"}]},"count":1},{"code":{"coding":[{"system":"http://terminology.hl7.org/CodeSystem/measure-population","code":"numerator","display":"Numerator"}]},"count":1}]}]},"request":{"method":"PUT","url":"MeasureReport/b06aa1cf-051a-4dec-9d26-6576aead56a5"}}]}