{"resourceType":"Bundle","id":"tests-1b733c44-815e-4cff-b4e9-6b39623feff8-bundle","type":"transaction","entry":[{"fullUrl":"https://madie.cms.gov/Patient/1b733c44-815e-4cff-b4e9-6b39623feff8","resource":{"resourceType":"Patient","id":"1b733c44-815e-4cff-b4e9-6b39623feff8","meta":{"profile":["http://hl7.org/fhir/us/qicore/StructureDefinition/qicore-patient"]},"text":{"status":"generated","div":"<div xmlns=\"http://www.w3.org/1999/xhtml\"><div class=\"hapiHeaderText\">MultEncPainAssessNoResult<b>NUMERFailPop2</b></div><table class=\"hapiPropertyTable\"><tbody><tr><td>Identifier</td><td>858366f5b9baf588395a9f45066638c7a6bfe53f2124e1bfebbb187419edd308</td></tr><tr><td>Date of birth</td><td><span>13 May 1932</span></td></tr></tbody></table></div>"},"extension":[{"url":"http://hl7.org/fhir/us/core/StructureDefinition/us-core-race","extension":[{"url":"ombCategory","valueCoding":{"system":"urn:oid:2.16.840.1.113883.6.238","code":"1002-5","display":"American Indian or Alaska Native","userSelected":true}},{"url":"text","valueString":"American Indian or Alaska Native"}]},{"url":"http://hl7.org/fhir/us/core/StructureDefinition/us-core-ethnicity","extension":[{"url":"ombCategory","valueCoding":{"system":"urn:oid:2.16.840.1.113883.6.238","code":"2135-2","display":"Hispanic or Latino","userSelected":true}},{"url":"text","valueString":"Hispanic or Latino"}]}],"identifier":[{"type":{"coding":[{"system":"http://terminology.hl7.org/CodeSystem/v2-0203","code":"MR"}]},"system":"https://bonnie-fhir.healthit.gov/","value":"62c880ed0111a60120dc221e"}],"active":true,"name":[{"use":"usual","family":"NUMERFailPop2","given":["MultEncPainAssessNoResult"]}],"gender":"female","birthDate":"1932-05-13"},"request":{"method":"PUT","url":"Patient/1b733c44-815e-4cff-b4e9-6b39623feff8"}},{"fullUrl":"https://madie.cms.gov/Observation/5ca5260eb8484613a555a9a7","resource":{"resourceType":"Observation","id":"850619ff-1bc0-4872-8cc2-9e566c33bb04","meta":{"profile":["http://hl7.org/fhir/us/qicore/StructureDefinition/qicore-observation"]},"status":"final","category":[{"coding":[{"system":"http://terminology.hl7.org/CodeSystem/observation-category","code":"survey","display":"Survey"}],"text":"Survey"}],"code":{"coding":[{"system":"http://loinc.org","code":"38208-5","display":"Pain severity - Reported"}],"text":"Pain severity - Reported"},"subject":{"reference":"Patient/1b733c44-815e-4cff-b4e9-6b39623feff8"},"effectiveDateTime":"2025-03-05T09:00:00.000+00:00"},"request":{"method":"PUT","url":"Observation/850619ff-1bc0-4872-8cc2-9e566c33bb04"}},{"fullUrl":"https://madie.cms.gov/Observation/5ca5260eb8484613a555a9a9","resource":{"resourceType":"Observation","id":"9a2781ad-1758-44b3-a6e6-1a0a6303deb7","meta":{"profile":["http://hl7.org/fhir/us/qicore/StructureDefinition/qicore-observation"]},"status":"final","category":[{"coding":[{"system":"http://terminology.hl7.org/CodeSystem/observation-category","code":"survey","display":"Survey"}],"text":"Survey"}],"code":{"coding":[{"system":"http://loinc.org","code":"38208-5","display":"Pain severity - Reported"}],"text":"Pain severity - Reported"},"subject":{"reference":"Patient/1b733c44-815e-4cff-b4e9-6b39623feff8"},"issued":"2025-08-30T15:00:00.000+00:00"},"request":{"method":"PUT","url":"Observation/9a2781ad-1758-44b3-a6e6-1a0a6303deb7"}},{"fullUrl":"https://madie.cms.gov/Condition/5ca5260eb8484613a555a9a4","resource":{"resourceType":"Condition","id":"7e4cdd82-9f1f-4da7-bbef-1dac47b31531","meta":{"profile":["http://hl7.org/fhir/us/qicore/StructureDefinition/qicore-condition"]},"clinicalStatus":{"coding":[{"system":"http://terminology.hl7.org/CodeSystem/condition-clinical","code":"active","display":"active","userSelected":true}]},"category":[{"coding":[{"system":"http://terminology.hl7.org/CodeSystem/condition-category","code":"problem-list-item","display":"Problem List Item"}]}],"code":{"coding":[{"system":"http://snomed.info/sct","code":"107691000119101"}]},"subject":{"reference":"Patient/1b733c44-815e-4cff-b4e9-6b39623feff8"},"onsetDateTime":"2023-11-01T13:30:00.000Z"},"request":{"method":"PUT","url":"Condition/7e4cdd82-9f1f-4da7-bbef-1dac47b31531"}},{"fullUrl":"https://madie.cms.gov/Coverage/60099acb1c76ba64612b06a0","resource":{"resourceType":"Coverage","id":"7c964234-40a5-4086-8602-9e01d9d853f7","meta":{"profile":["http://hl7.org/fhir/us/qicore/StructureDefinition/qicore-coverage"]},"status":"active","beneficiary":{"reference":"Patient/1b733c44-815e-4cff-b4e9-6b39623feff8"},"period":{"start":"1932-05-13T08:00:00.000Z"},"payor":[{"reference":"Organization/4b5a882f-1f43-485c-85c6-f5ad2337d5b1"}]},"request":{"method":"PUT","url":"Coverage/7c964234-40a5-4086-8602-9e01d9d853f7"}},{"fullUrl":"https://madie.cms.gov/Encounter/radiation-treatment-management-1896","resource":{"resourceType":"Encounter","id":"7424f6b2-8f0c-4ed7-867c-651309fa047b","meta":{"profile":["http://hl7.org/fhir/us/qicore/StructureDefinition/qicore-encounter"]},"status":"finished","class":{"system":"http://terminology.hl7.org/CodeSystem/v3-ActCode","code":"AMB","display":"ambulatory","userSelected":true},"type":[{"coding":[{"system":"http://www.ama-assn.org/go/cpt","version":"2023","code":"77427","display":"Radiation treatment management, 5 treatments","userSelected":true}]}],"subject":{"reference":"Patient/1b733c44-815e-4cff-b4e9-6b39623feff8"},"period":{"start":"2025-03-05T08:00:00.000+00:00","end":"2025-03-05T10:00:00.000+00:00"}},"request":{"method":"PUT","url":"Encounter/7424f6b2-8f0c-4ed7-867c-651309fa047b"}},{"fullUrl":"https://madie.cms.gov/Encounter/radiation-treatment-management-1897","resource":{"resourceType":"Encounter","id":"254bed8f-10c0-41db-9891-f3ca135b1894","meta":{"profile":["http://hl7.org/fhir/us/qicore/StructureDefinition/qicore-encounter"]},"status":"finished","class":{"system":"http://terminology.hl7.org/CodeSystem/v3-ActCode","code":"AMB","display":"ambulatory","userSelected":true},"type":[{"coding":[{"system":"http://snomed.info/sct","code":"84755001","userSelected":true}]}],"subject":{"reference":"Patient/1b733c44-815e-4cff-b4e9-6b39623feff8"},"period":{"start":"2025-08-30T14:00:00.000+00:00","end":"2025-08-30T16:00:00.000+00:00"}},"request":{"method":"PUT","url":"Encounter/254bed8f-10c0-41db-9891-f3ca135b1894"}},{"fullUrl":"https://madie.cms.gov/Organization/123456","resource":{"resourceType":"Organization","id":"4b5a882f-1f43-485c-85c6-f5ad2337d5b1","meta":{"profile":["http://hl7.org/fhir/us/qicore/StructureDefinition/qicore-organization"]},"identifier":[{"use":"temp","system":"urn:oid:2.16.840.1.113883.4.4","value":"21-3259825"}],"active":true,"type":[{"coding":[{"system":"http://terminology.hl7.org/CodeSystem/organization-type","code":"pay","display":"Payer"}]}],"name":"Blue Cross Blue Shield of Texas","telecom":[{"system":"phone","value":"(+1) 972-766-6900"}],"address":[{"use":"billing","type":"postal","line":["P.O. Box 660044"],"city":"Dallas","state":"TX","postalCode":"75266-0044","country":"USA"}]},"request":{"method":"PUT","url":"Organization/4b5a882f-1f43-485c-85c6-f5ad2337d5b1"}},{"fullUrl":"https://madie.cms.gov/Practitioner/practitioner-123456","resource":{"resourceType":"Practitioner","id":"fc73f699-c7d2-46ba-bc3d-f964f1f6135d","meta":{"profile":["http://hl7.org/fhir/us/qicore/StructureDefinition/qicore-practitioner"]},"identifier":[{"system":"http://hl7.org/fhir/sid/us-npi","value":"123456"}],"name":[{"family":"Evil","prefix":["Dr"]}]},"request":{"method":"PUT","url":"Practitioner/fc73f699-c7d2-46ba-bc3d-f964f1f6135d"}},{"fullUrl":"https://madie.cms.gov/MeasureReport/0c12b8fe-807a-480d-9679-c7ba640bff05","resource":{"resourceType":"MeasureReport","id":"0c12b8fe-807a-480d-9679-c7ba640bff05","meta":{"profile":["http://hl7.org/fhir/us/cqfmeasures/StructureDefinition/test-case-cqfm"]},"contained":[{"resourceType":"Parameters","id":"abdaa304-ea54-4d7c-8347-63f27eab6ffd-parameters","parameter":[{"name":"subject","valueString":"1b733c44-815e-4cff-b4e9-6b39623feff8"}]}],"extension":[{"url":"http://hl7.org/fhir/us/cqfmeasures/StructureDefinition/cqfm-inputParameters","valueReference":{"reference":"#abdaa304-ea54-4d7c-8347-63f27eab6ffd-parameters"}},{"url":"http://hl7.org/fhir/us/cqfmeasures/StructureDefinition/cqfm-testCaseDescription","valueMarkdown":"Patient with cancer diagnosis that overlaps radiation treatment mgt. during MP. Pain intensity assessment was performed during radiation treatment mgt. 2 episodes of care. Both assessments have no result. \n"}],"modifierExtension":[{"url":"http://hl7.org/fhir/us/cqfmeasures/StructureDefinition/cqfm-isTestCase","valueBoolean":true}],"status":"complete","type":"individual","measure":"https://madie.cms.gov/Measure/OncologyPainIntensityQuantifiedFHIR","period":{"start":"2025-01-01","end":"2025-12-31"},"group":[{"population":[{"code":{"coding":[{"system":"http://terminology.hl7.org/CodeSystem/measure-population","code":"initial-population","display":"Initial Population"}]},"count":0},{"code":{"coding":[{"system":"http://terminology.hl7.org/CodeSystem/measure-population","code":"denominator","display":"Denominator"}]},"count":0},{"code":{"coding":[{"system":"http://terminology.hl7.org/CodeSystem/measure-population","code":"numerator","display":"Numerator"}]},"count":0}]},{"population":[{"code":{"coding":[{"system":"http://terminology.hl7.org/CodeSystem/measure-population","code":"initial-population","display":"Initial Population"}]},"count":2},{"code":{"coding":[{"system":"http://terminology.hl7.org/CodeSystem/measure-population","code":"denominator","display":"Denominator"}]},"count":2},{"code":{"coding":[{"system":"http://terminology.hl7.org/CodeSystem/measure-population","code":"numerator","display":"Numerator"}]},"count":0}]}]},"request":{"method":"PUT","url":"MeasureReport/0c12b8fe-807a-480d-9679-c7ba640bff05"}}]}