{"resourceType":"Bundle","id":"tests-4863aa47-2ca6-4c00-9e8a-1f14942bbba0-bundle","type":"transaction","entry":[{"fullUrl":"https://madie.cms.gov/Patient/4863aa47-2ca6-4c00-9e8a-1f14942bbba0","resource":{"resourceType":"Patient","id":"4863aa47-2ca6-4c00-9e8a-1f14942bbba0","meta":{"profile":["http://hl7.org/fhir/us/qicore/StructureDefinition/qicore-patient"]},"text":{"status":"generated","div":"<div xmlns=\"http://www.w3.org/1999/xhtml\"><div class=\"hapiHeaderText\">CancerDxEndsPriorRadTx<b>IPPFailPop2</b></div><table class=\"hapiPropertyTable\"><tbody><tr><td>Identifier</td><td>16cc91af81a242d253c1d030f1cd5773</td></tr><tr><td>Date of birth</td><td><span>21 December 1936</span></td></tr></tbody></table></div>"},"extension":[{"url":"http://hl7.org/fhir/us/core/StructureDefinition/us-core-race","extension":[{"url":"ombCategory","valueCoding":{"system":"urn:oid:2.16.840.1.113883.6.238","code":"1002-5","display":"American Indian or Alaska Native","userSelected":true}},{"url":"text","valueString":"American Indian or Alaska Native"}]},{"url":"http://hl7.org/fhir/us/core/StructureDefinition/us-core-ethnicity","extension":[{"url":"ombCategory","valueCoding":{"system":"urn:oid:2.16.840.1.113883.6.238","code":"2135-2","display":"Hispanic or Latino","userSelected":true}},{"url":"text","valueString":"Hispanic or Latino"}]}],"identifier":[{"type":{"coding":[{"system":"http://terminology.hl7.org/CodeSystem/v2-0203","code":"MR"}]},"system":"https://bonnie-fhir.healthit.gov/","value":"62c880ec0111a60120dc21f3"}],"active":true,"name":[{"use":"usual","family":"IPPFailPop2","given":["CancerDxEndsPriorRadTx"]}],"gender":"male","birthDate":"1936-12-21"},"request":{"method":"PUT","url":"Patient/4863aa47-2ca6-4c00-9e8a-1f14942bbba0"}},{"fullUrl":"https://madie.cms.gov/Condition/5ca52607b8484613a555a923","resource":{"resourceType":"Condition","id":"61f236b8-00c5-46b0-8016-40f977fc4b21","meta":{"profile":["http://hl7.org/fhir/us/qicore/StructureDefinition/qicore-condition"]},"clinicalStatus":{"coding":[{"system":"http://terminology.hl7.org/CodeSystem/condition-clinical","code":"inactive","display":"inactive","userSelected":true}]},"verificationStatus":{"coding":[{"system":"http://terminology.hl7.org/CodeSystem/condition-ver-status","code":"confirmed","display":"Confirmed"}]},"category":[{"coding":[{"system":"http://terminology.hl7.org/CodeSystem/condition-category","code":"problem-list-item","display":"Problem List Item"}]}],"code":{"coding":[{"system":"http://hl7.org/fhir/sid/icd-10-cm","code":"C34.01"}]},"subject":{"reference":"Patient/4863aa47-2ca6-4c00-9e8a-1f14942bbba0"},"onsetDateTime":"2023-02-28T11:00:00.000Z","abatementDateTime":"2025-02-15T11:30:00.000Z"},"request":{"method":"PUT","url":"Condition/61f236b8-00c5-46b0-8016-40f977fc4b21"}},{"fullUrl":"https://madie.cms.gov/Coverage/60099ac61c76ba64612b0637","resource":{"resourceType":"Coverage","id":"4eaec4f2-e5cd-4508-b898-7534ed170ab6","meta":{"profile":["http://hl7.org/fhir/us/qicore/StructureDefinition/qicore-coverage"]},"status":"active","beneficiary":{"reference":"Patient/4863aa47-2ca6-4c00-9e8a-1f14942bbba0"},"period":{"start":"1936-12-21T01:00:00.000Z"},"payor":[{"reference":"Organization/4b5a882f-1f43-485c-85c6-f5ad2337d5b1"}]},"request":{"method":"PUT","url":"Coverage/4eaec4f2-e5cd-4508-b898-7534ed170ab6"}},{"fullUrl":"https://madie.cms.gov/Encounter/5ca52607b8484613a555a925","resource":{"resourceType":"Encounter","id":"d55d57e7-cb53-4000-bd33-866d44b2ab0b","meta":{"profile":["http://hl7.org/fhir/us/qicore/StructureDefinition/qicore-encounter"]},"status":"finished","class":{"system":"http://terminology.hl7.org/CodeSystem/v3-ActCode","code":"AMB","display":"ambulatory","userSelected":true},"type":[{"coding":[{"system":"http://www.ama-assn.org/go/cpt","version":"2023","code":"77431","userSelected":true}]}],"subject":{"reference":"Patient/4863aa47-2ca6-4c00-9e8a-1f14942bbba0"},"period":{"start":"2025-10-01T14:45:00.000Z","end":"2025-10-01T14:45:00.000Z"}},"request":{"method":"PUT","url":"Encounter/d55d57e7-cb53-4000-bd33-866d44b2ab0b"}},{"fullUrl":"https://madie.cms.gov/Organization/123456","resource":{"resourceType":"Organization","id":"4b5a882f-1f43-485c-85c6-f5ad2337d5b1","meta":{"profile":["http://hl7.org/fhir/us/qicore/StructureDefinition/qicore-organization"]},"identifier":[{"use":"temp","system":"urn:oid:2.16.840.1.113883.4.4","value":"21-3259825"}],"active":true,"type":[{"coding":[{"system":"http://terminology.hl7.org/CodeSystem/organization-type","code":"pay","display":"Payer"}]}],"name":"Blue Cross Blue Shield of Texas","telecom":[{"system":"phone","value":"(+1) 972-766-6900"}],"address":[{"use":"billing","type":"postal","line":["P.O. Box 660044"],"city":"Dallas","state":"TX","postalCode":"75266-0044","country":"USA"}]},"request":{"method":"PUT","url":"Organization/4b5a882f-1f43-485c-85c6-f5ad2337d5b1"}},{"fullUrl":"https://madie.cms.gov/Practitioner/practitioner-123456","resource":{"resourceType":"Practitioner","id":"a9e5ec33-1f0f-4560-a909-791ecbdcd048","meta":{"profile":["http://hl7.org/fhir/us/qicore/StructureDefinition/qicore-practitioner"]},"identifier":[{"system":"http://hl7.org/fhir/sid/us-npi","value":"123456"}],"name":[{"family":"Evil","prefix":["Dr"]}]},"request":{"method":"PUT","url":"Practitioner/a9e5ec33-1f0f-4560-a909-791ecbdcd048"}},{"fullUrl":"https://madie.cms.gov/MeasureReport/e0cd8d12-9d5b-40b4-9089-33553464f2d9","resource":{"resourceType":"MeasureReport","id":"e0cd8d12-9d5b-40b4-9089-33553464f2d9","meta":{"profile":["http://hl7.org/fhir/us/cqfmeasures/StructureDefinition/test-case-cqfm"]},"contained":[{"resourceType":"Parameters","id":"b08822d2-2062-406d-993f-11bad873076c-parameters","parameter":[{"name":"subject","valueString":"4863aa47-2ca6-4c00-9e8a-1f14942bbba0"}]}],"extension":[{"url":"http://hl7.org/fhir/us/cqfmeasures/StructureDefinition/cqfm-inputParameters","valueReference":{"reference":"#b08822d2-2062-406d-993f-11bad873076c-parameters"}},{"url":"http://hl7.org/fhir/us/cqfmeasures/StructureDefinition/cqfm-testCaseDescription","valueMarkdown":"Patient with cancer diagnosis that ends before radiation treatment management.\n"}],"modifierExtension":[{"url":"http://hl7.org/fhir/us/cqfmeasures/StructureDefinition/cqfm-isTestCase","valueBoolean":true}],"status":"complete","type":"individual","measure":"https://madie.cms.gov/Measure/OncologyPainIntensityQuantifiedFHIR","period":{"start":"2025-01-01","end":"2025-12-31"},"group":[{"population":[{"code":{"coding":[{"system":"http://terminology.hl7.org/CodeSystem/measure-population","code":"initial-population","display":"Initial Population"}]},"count":0},{"code":{"coding":[{"system":"http://terminology.hl7.org/CodeSystem/measure-population","code":"denominator","display":"Denominator"}]},"count":0},{"code":{"coding":[{"system":"http://terminology.hl7.org/CodeSystem/measure-population","code":"numerator","display":"Numerator"}]},"count":0}]},{"population":[{"code":{"coding":[{"system":"http://terminology.hl7.org/CodeSystem/measure-population","code":"initial-population","display":"Initial Population"}]},"count":0},{"code":{"coding":[{"system":"http://terminology.hl7.org/CodeSystem/measure-population","code":"denominator","display":"Denominator"}]},"count":0},{"code":{"coding":[{"system":"http://terminology.hl7.org/CodeSystem/measure-population","code":"numerator","display":"Numerator"}]},"count":0}]}]},"request":{"method":"PUT","url":"MeasureReport/e0cd8d12-9d5b-40b4-9089-33553464f2d9"}}]}