{"resourceType":"Bundle","id":"tests-757c5855-602e-4c25-8783-c22afccc1618-bundle","type":"transaction","entry":[{"fullUrl":"https://madie.cms.gov/Patient/757c5855-602e-4c25-8783-c22afccc1618","resource":{"resourceType":"Patient","id":"757c5855-602e-4c25-8783-c22afccc1618","meta":{"profile":["http://hl7.org/fhir/us/qicore/StructureDefinition/qicore-patient"]},"text":{"status":"generated","div":"<div xmlns=\"http://www.w3.org/1999/xhtml\"><div class=\"hapiHeaderText\">PainAssessResultMissing<b>NUMERFailPop1</b></div><table class=\"hapiPropertyTable\"><tbody><tr><td>Identifier</td><td>ae3ffc5de11381ce5eaa97b40d3e1dc455d1361130f7b719fe01594aa809ff1e</td></tr><tr><td>Date of birth</td><td><span>13 May 1937</span></td></tr></tbody></table></div>"},"extension":[{"url":"http://hl7.org/fhir/us/core/StructureDefinition/us-core-race","extension":[{"url":"ombCategory","valueCoding":{"system":"urn:oid:2.16.840.1.113883.6.238","code":"1002-5","display":"American Indian or Alaska Native","userSelected":true}},{"url":"text","valueString":"American Indian or Alaska Native"}]},{"url":"http://hl7.org/fhir/us/core/StructureDefinition/us-core-ethnicity","extension":[{"url":"ombCategory","valueCoding":{"system":"urn:oid:2.16.840.1.113883.6.238","code":"2135-2","display":"Hispanic or Latino","userSelected":true}},{"url":"text","valueString":"Hispanic or Latino"}]}],"identifier":[{"type":{"coding":[{"system":"http://terminology.hl7.org/CodeSystem/v2-0203","code":"MR"}]},"system":"https://bonnie-fhir.healthit.gov/","value":"62c880ed0111a60120dc2224"}],"active":true,"name":[{"use":"usual","family":"NUMERFailPop1","given":["PainAssessResultMissing"]}],"gender":"female","birthDate":"1937-05-13"},"request":{"method":"PUT","url":"Patient/757c5855-602e-4c25-8783-c22afccc1618"}},{"fullUrl":"https://madie.cms.gov/Observation/5ca5260bb8484613a555a970","resource":{"resourceType":"Observation","id":"f8d4996a-4705-4296-859a-1c5a778d8326","meta":{"profile":["http://hl7.org/fhir/us/qicore/StructureDefinition/qicore-observation"]},"status":"final","category":[{"coding":[{"system":"http://terminology.hl7.org/CodeSystem/observation-category","code":"survey","display":"Survey"}],"text":"Survey"}],"code":{"coding":[{"system":"http://loinc.org","code":"38208-5","display":"Pain severity - Reported"}],"text":"Pain severity - Reported"},"subject":{"reference":"Patient/757c5855-602e-4c25-8783-c22afccc1618"},"effectiveDateTime":"2025-03-03T14:00:00.000+00:00"},"request":{"method":"PUT","url":"Observation/f8d4996a-4705-4296-859a-1c5a778d8326"}},{"fullUrl":"https://madie.cms.gov/Observation/5ca5260bb8484613a555a971","resource":{"resourceType":"Observation","id":"b9c18f71-35be-452c-84ac-932c5eceb286","meta":{"profile":["http://hl7.org/fhir/us/qicore/StructureDefinition/qicore-observation"]},"status":"final","category":[{"coding":[{"system":"http://terminology.hl7.org/CodeSystem/observation-category","code":"survey","display":"Survey"}],"text":"Survey"}],"code":{"coding":[{"system":"http://loinc.org","code":"38208-5","display":"Pain severity - Reported"}],"text":"Pain severity - Reported"},"subject":{"reference":"Patient/757c5855-602e-4c25-8783-c22afccc1618"},"effectiveDateTime":"2025-05-22T08:00:00.000+00:00"},"request":{"method":"PUT","url":"Observation/b9c18f71-35be-452c-84ac-932c5eceb286"}},{"fullUrl":"https://madie.cms.gov/Observation/5ca5260bb8484613a555a972","resource":{"resourceType":"Observation","id":"517f8e25-310a-4001-b5ea-397a9a5053d6","meta":{"profile":["http://hl7.org/fhir/us/qicore/StructureDefinition/qicore-observation"]},"status":"final","category":[{"coding":[{"system":"http://terminology.hl7.org/CodeSystem/observation-category","code":"survey","display":"Survey"}],"text":"Survey"}],"code":{"coding":[{"system":"http://loinc.org","code":"38208-5","display":"Pain severity - Reported"}],"text":"Pain severity - Reported"},"subject":{"reference":"Patient/757c5855-602e-4c25-8783-c22afccc1618"},"effectiveDateTime":"2025-06-01T11:30:00.000+00:00"},"request":{"method":"PUT","url":"Observation/517f8e25-310a-4001-b5ea-397a9a5053d6"}},{"fullUrl":"https://madie.cms.gov/Condition/5ca5260bb8484613a555a968","resource":{"resourceType":"Condition","id":"1803aa9f-914e-41f7-ae12-0fd353546e75","meta":{"profile":["http://hl7.org/fhir/us/qicore/StructureDefinition/qicore-condition"]},"clinicalStatus":{"coding":[{"system":"http://terminology.hl7.org/CodeSystem/condition-clinical","code":"active","display":"active","userSelected":true}]},"verificationStatus":{"coding":[{"system":"http://terminology.hl7.org/CodeSystem/condition-ver-status","code":"confirmed","display":"Confirmed"}]},"category":[{"coding":[{"system":"http://terminology.hl7.org/CodeSystem/condition-category","code":"problem-list-item","display":"Problem List Item"}]}],"code":{"coding":[{"system":"http://hl7.org/fhir/sid/icd-10-cm","code":"C00.0"}]},"subject":{"reference":"Patient/757c5855-602e-4c25-8783-c22afccc1618"},"onsetDateTime":"2023-11-01T13:30:00.000Z"},"request":{"method":"PUT","url":"Condition/1803aa9f-914e-41f7-ae12-0fd353546e75"}},{"fullUrl":"https://madie.cms.gov/Encounter/5ca5260bb8484613a555a969","resource":{"resourceType":"Encounter","id":"28fa9d4c-fdd0-4164-bab4-dd5bb36b979c","meta":{"profile":["http://hl7.org/fhir/us/qicore/StructureDefinition/qicore-encounter"]},"status":"finished","class":{"system":"http://terminology.hl7.org/CodeSystem/v3-ActCode","code":"AMB","display":"ambulatory","userSelected":true},"type":[{"coding":[{"system":"http://www.ama-assn.org/go/cpt","code":"99202"}]}],"subject":{"reference":"Patient/757c5855-602e-4c25-8783-c22afccc1618"},"period":{"start":"2025-01-30T14:00:00.000Z","end":"2025-01-30T15:00:00.000Z"}},"request":{"method":"PUT","url":"Encounter/28fa9d4c-fdd0-4164-bab4-dd5bb36b979c"}},{"fullUrl":"https://madie.cms.gov/Encounter/5ca5260bb8484613a555a96a","resource":{"resourceType":"Encounter","id":"4fd6a430-73fc-4350-a703-690c52626a38","meta":{"profile":["http://hl7.org/fhir/us/qicore/StructureDefinition/qicore-encounter"]},"status":"finished","class":{"system":"http://terminology.hl7.org/CodeSystem/v3-ActCode","code":"AMB","display":"ambulatory","userSelected":true},"type":[{"coding":[{"system":"http://www.ama-assn.org/go/cpt","code":"99202"}]}],"subject":{"reference":"Patient/757c5855-602e-4c25-8783-c22afccc1618"},"period":{"start":"2025-03-03T13:30:00.000Z","end":"2025-03-03T14:30:00.000Z"}},"request":{"method":"PUT","url":"Encounter/4fd6a430-73fc-4350-a703-690c52626a38"}},{"fullUrl":"https://madie.cms.gov/Encounter/5ca5260bb8484613a555a96b","resource":{"resourceType":"Encounter","id":"d7b11b9a-30e2-446d-93fd-2f8bcd3e621c","meta":{"profile":["http://hl7.org/fhir/us/qicore/StructureDefinition/qicore-encounter"]},"status":"finished","class":{"system":"http://terminology.hl7.org/CodeSystem/v3-ActCode","code":"AMB","display":"ambulatory","userSelected":true},"type":[{"coding":[{"system":"http://www.ama-assn.org/go/cpt","code":"99202"}]}],"subject":{"reference":"Patient/757c5855-602e-4c25-8783-c22afccc1618"},"period":{"start":"2025-05-30T12:45:00.000Z","end":"2025-05-30T13:45:00.000Z"}},"request":{"method":"PUT","url":"Encounter/d7b11b9a-30e2-446d-93fd-2f8bcd3e621c"}},{"fullUrl":"https://madie.cms.gov/Encounter/5ca5260bb8484613a555a96c","resource":{"resourceType":"Encounter","id":"2b39f171-f40a-416f-a720-f10721b3243e","meta":{"profile":["http://hl7.org/fhir/us/qicore/StructureDefinition/qicore-encounter"]},"status":"finished","class":{"system":"http://terminology.hl7.org/CodeSystem/v3-ActCode","code":"AMB","display":"ambulatory","userSelected":true},"type":[{"coding":[{"system":"http://www.ama-assn.org/go/cpt","code":"99204"}]}],"subject":{"reference":"Patient/757c5855-602e-4c25-8783-c22afccc1618"},"period":{"start":"2025-07-03T10:45:00.000Z","end":"2025-07-03T11:45:00.000Z"}},"request":{"method":"PUT","url":"Encounter/2b39f171-f40a-416f-a720-f10721b3243e"}},{"fullUrl":"https://madie.cms.gov/Coverage/60099ac91c76ba64612b0670","resource":{"resourceType":"Coverage","id":"fcfbda78-e753-423a-b191-bfc8a1351f8a","meta":{"profile":["http://hl7.org/fhir/us/qicore/StructureDefinition/qicore-coverage"]},"status":"active","beneficiary":{"reference":"Patient/757c5855-602e-4c25-8783-c22afccc1618"},"period":{"start":"1937-05-13T08:00:00.000Z"},"payor":[{"reference":"Organization/4b5a882f-1f43-485c-85c6-f5ad2337d5b1"}]},"request":{"method":"PUT","url":"Coverage/fcfbda78-e753-423a-b191-bfc8a1351f8a"}},{"fullUrl":"https://madie.cms.gov/Procedure/5ca5260bb8484613a555a96d","resource":{"resourceType":"Procedure","id":"ac4545cb-d4e5-4d48-b726-4c802b33f46b","meta":{"profile":["http://hl7.org/fhir/us/qicore/StructureDefinition/qicore-procedure"]},"extension":[{"url":"http://hl7.org/fhir/us/qicore/StructureDefinition/qicore-recorded","valueDateTime":"2025-02-27T12:35:00.000Z"}],"status":"completed","code":{"coding":[{"system":"http://www.ama-assn.org/go/cpt","code":"96409"}]},"subject":{"reference":"Patient/757c5855-602e-4c25-8783-c22afccc1618"},"performedPeriod":{"start":"2025-02-27T11:30:00.000Z","end":"2025-02-27T11:30:00.000Z"}},"request":{"method":"PUT","url":"Procedure/ac4545cb-d4e5-4d48-b726-4c802b33f46b"}},{"fullUrl":"https://madie.cms.gov/Procedure/5ca5260bb8484613a555a96e","resource":{"resourceType":"Procedure","id":"cfc97207-3c3f-4ed3-8b50-470a88762ffa","meta":{"profile":["http://hl7.org/fhir/us/qicore/StructureDefinition/qicore-procedure"]},"extension":[{"url":"http://hl7.org/fhir/us/qicore/StructureDefinition/qicore-recorded","valueDateTime":"2025-04-01T12:35:00.000Z"}],"status":"completed","code":{"coding":[{"system":"http://www.ama-assn.org/go/cpt","code":"96409"}]},"subject":{"reference":"Patient/757c5855-602e-4c25-8783-c22afccc1618"},"performedPeriod":{"start":"2025-04-01T12:30:00.000Z","end":"2025-04-01T12:30:00.000Z"}},"request":{"method":"PUT","url":"Procedure/cfc97207-3c3f-4ed3-8b50-470a88762ffa"}},{"fullUrl":"https://madie.cms.gov/Procedure/5ca5260bb8484613a555a96f","resource":{"resourceType":"Procedure","id":"20675b61-53f3-4389-a3fc-9973157f82da","meta":{"profile":["http://hl7.org/fhir/us/qicore/StructureDefinition/qicore-procedure"]},"extension":[{"url":"http://hl7.org/fhir/us/qicore/StructureDefinition/qicore-recorded","valueDateTime":"2025-06-04T16:35:00.000Z"}],"status":"completed","code":{"coding":[{"system":"http://www.ama-assn.org/go/cpt","code":"51720"},{"system":"http://snomed.info/sct","code":"4114003"}]},"subject":{"reference":"Patient/757c5855-602e-4c25-8783-c22afccc1618"},"performedPeriod":{"start":"2025-06-04T15:30:00.000Z","end":"2025-06-04T15:30:00.000Z"}},"request":{"method":"PUT","url":"Procedure/20675b61-53f3-4389-a3fc-9973157f82da"}},{"fullUrl":"https://madie.cms.gov/Organization/123456","resource":{"resourceType":"Organization","id":"4b5a882f-1f43-485c-85c6-f5ad2337d5b1","meta":{"profile":["http://hl7.org/fhir/us/qicore/StructureDefinition/qicore-organization"]},"identifier":[{"use":"temp","system":"urn:oid:2.16.840.1.113883.4.4","value":"21-3259825"}],"active":true,"type":[{"coding":[{"system":"http://terminology.hl7.org/CodeSystem/organization-type","code":"pay","display":"Payer"}]}],"name":"Blue Cross Blue Shield of Texas","telecom":[{"system":"phone","value":"(+1) 972-766-6900"}],"address":[{"use":"billing","type":"postal","line":["P.O. Box 660044"],"city":"Dallas","state":"TX","postalCode":"75266-0044","country":"USA"}]},"request":{"method":"PUT","url":"Organization/4b5a882f-1f43-485c-85c6-f5ad2337d5b1"}},{"fullUrl":"https://madie.cms.gov/Practitioner/practitioner-123456","resource":{"resourceType":"Practitioner","id":"a2f3f1bb-db25-4b9a-8978-747b935659a8","meta":{"profile":["http://hl7.org/fhir/us/qicore/StructureDefinition/qicore-practitioner"]},"identifier":[{"system":"http://hl7.org/fhir/sid/us-npi","value":"123456"}],"name":[{"family":"Evil","prefix":["Dr"]}]},"request":{"method":"PUT","url":"Practitioner/a2f3f1bb-db25-4b9a-8978-747b935659a8"}},{"fullUrl":"https://madie.cms.gov/MeasureReport/c2368e6b-4d03-4080-bdd7-d4753b5f6db9","resource":{"resourceType":"MeasureReport","id":"c2368e6b-4d03-4080-bdd7-d4753b5f6db9","meta":{"profile":["http://hl7.org/fhir/us/cqfmeasures/StructureDefinition/test-case-cqfm"]},"contained":[{"resourceType":"Parameters","id":"75963695-c9ae-49bf-9ea7-8ec63543826c-parameters","parameter":[{"name":"subject","valueString":"757c5855-602e-4c25-8783-c22afccc1618"}]}],"extension":[{"url":"http://hl7.org/fhir/us/cqfmeasures/StructureDefinition/cqfm-inputParameters","valueReference":{"reference":"#75963695-c9ae-49bf-9ea7-8ec63543826c-parameters"}},{"url":"http://hl7.org/fhir/us/cqfmeasures/StructureDefinition/cqfm-testCaseDescription","valueMarkdown":"Patient with cancer diagnosis overlaps the office visits during measurement period. Chemotherapy administered, and pain intensity assessment was performed during an office visit but no result.  \n"}],"modifierExtension":[{"url":"http://hl7.org/fhir/us/cqfmeasures/StructureDefinition/cqfm-isTestCase","valueBoolean":true}],"status":"complete","type":"individual","measure":"https://madie.cms.gov/Measure/OncologyPainIntensityQuantifiedFHIR","period":{"start":"2025-01-01","end":"2025-12-31"},"group":[{"population":[{"code":{"coding":[{"system":"http://terminology.hl7.org/CodeSystem/measure-population","code":"initial-population","display":"Initial Population"}]},"count":1},{"code":{"coding":[{"system":"http://terminology.hl7.org/CodeSystem/measure-population","code":"denominator","display":"Denominator"}]},"count":1},{"code":{"coding":[{"system":"http://terminology.hl7.org/CodeSystem/measure-population","code":"numerator","display":"Numerator"}]},"count":0}]},{"population":[{"code":{"coding":[{"system":"http://terminology.hl7.org/CodeSystem/measure-population","code":"initial-population","display":"Initial Population"}]},"count":0},{"code":{"coding":[{"system":"http://terminology.hl7.org/CodeSystem/measure-population","code":"denominator","display":"Denominator"}]},"count":0},{"code":{"coding":[{"system":"http://terminology.hl7.org/CodeSystem/measure-population","code":"numerator","display":"Numerator"}]},"count":0}]}]},"request":{"method":"PUT","url":"MeasureReport/c2368e6b-4d03-4080-bdd7-d4753b5f6db9"}}]}