{"resourceType":"Bundle","id":"tests-bbdccaa6-f3a0-426d-8e77-eff43095cfc9-bundle","type":"transaction","entry":[{"fullUrl":"https://madie.cms.gov/Patient/bbdccaa6-f3a0-426d-8e77-eff43095cfc9","resource":{"resourceType":"Patient","id":"bbdccaa6-f3a0-426d-8e77-eff43095cfc9","meta":{"profile":["http://hl7.org/fhir/us/qicore/StructureDefinition/qicore-patient"]},"text":{"status":"generated","div":"<div xmlns=\"http://www.w3.org/1999/xhtml\"><div class=\"hapiHeaderText\">PainAssessPriorRadTx<b>NUMERFailPop2</b></div><table class=\"hapiPropertyTable\"><tbody><tr><td>Identifier</td><td>c8dceba3c1a4e57c39b8866880103c78</td></tr><tr><td>Date of birth</td><td><span>10 February 1951</span></td></tr></tbody></table></div>"},"extension":[{"url":"http://hl7.org/fhir/us/core/StructureDefinition/us-core-race","extension":[{"url":"ombCategory","valueCoding":{"system":"urn:oid:2.16.840.1.113883.6.238","code":"1002-5","display":"American Indian or Alaska Native","userSelected":true}},{"url":"text","valueString":"American Indian or Alaska Native"}]},{"url":"http://hl7.org/fhir/us/core/StructureDefinition/us-core-ethnicity","extension":[{"url":"ombCategory","valueCoding":{"system":"urn:oid:2.16.840.1.113883.6.238","code":"2135-2","display":"Hispanic or Latino","userSelected":true}},{"url":"text","valueString":"Hispanic or Latino"}]}],"identifier":[{"type":{"coding":[{"system":"http://terminology.hl7.org/CodeSystem/v2-0203","code":"MR"}]},"system":"https://bonnie-fhir.healthit.gov/","value":"62c880ec0111a60120dc21f6"}],"active":true,"name":[{"use":"usual","family":"NUMERFailPop2","given":["PainAssessPriorRadTx"]}],"gender":"male","birthDate":"1951-02-10"},"request":{"method":"PUT","url":"Patient/bbdccaa6-f3a0-426d-8e77-eff43095cfc9"}},{"fullUrl":"https://madie.cms.gov/Observation/5e41c62ba9c22a0000b32af2","resource":{"resourceType":"Observation","id":"39c3cac5-9961-4b67-a0cb-49afc6c5fa03","meta":{"profile":["http://hl7.org/fhir/us/qicore/StructureDefinition/qicore-observation"]},"status":"final","category":[{"coding":[{"system":"http://terminology.hl7.org/CodeSystem/observation-category","code":"survey","display":"Survey"}],"text":"Survey"}],"code":{"coding":[{"system":"http://loinc.org","code":"38208-5","display":"Pain severity - Reported"}],"text":"Pain severity - Reported"},"subject":{"reference":"Patient/bbdccaa6-f3a0-426d-8e77-eff43095cfc9"},"effectivePeriod":{"start":"2025-02-10T08:00:00.000Z","end":"2025-02-10T08:15:00.000Z"},"valueInteger":5},"request":{"method":"PUT","url":"Observation/39c3cac5-9961-4b67-a0cb-49afc6c5fa03"}},{"fullUrl":"https://madie.cms.gov/Condition/5ca52609b8484613a555a947","resource":{"resourceType":"Condition","id":"01dc9286-2289-4ebb-acb1-a4150e2cbc2f","meta":{"profile":["http://hl7.org/fhir/us/qicore/StructureDefinition/qicore-condition"]},"clinicalStatus":{"coding":[{"system":"http://terminology.hl7.org/CodeSystem/condition-clinical","code":"active","display":"active","userSelected":true}]},"verificationStatus":{"coding":[{"system":"http://terminology.hl7.org/CodeSystem/condition-ver-status","code":"confirmed","display":"Confirmed"}]},"category":[{"coding":[{"system":"http://terminology.hl7.org/CodeSystem/condition-category","code":"problem-list-item","display":"Problem List Item"}]}],"code":{"coding":[{"system":"http://snomed.info/sct","code":"107691000119101"}]},"subject":{"reference":"Patient/bbdccaa6-f3a0-426d-8e77-eff43095cfc9"},"onsetDateTime":"2021-09-12T10:45:00.000Z"},"request":{"method":"PUT","url":"Condition/01dc9286-2289-4ebb-acb1-a4150e2cbc2f"}},{"fullUrl":"https://madie.cms.gov/Coverage/60099ac71c76ba64612b0649","resource":{"resourceType":"Coverage","id":"aae62168-ad4d-4d88-95d5-84c4391d92f2","meta":{"profile":["http://hl7.org/fhir/us/qicore/StructureDefinition/qicore-coverage"]},"status":"active","beneficiary":{"reference":"Patient/bbdccaa6-f3a0-426d-8e77-eff43095cfc9"},"period":{"start":"1951-02-10T08:00:00.000Z"},"payor":[{"reference":"Organization/4b5a882f-1f43-485c-85c6-f5ad2337d5b1"}]},"request":{"method":"PUT","url":"Coverage/aae62168-ad4d-4d88-95d5-84c4391d92f2"}},{"fullUrl":"https://madie.cms.gov/Encounter/radiation-treatment-management-2794","resource":{"resourceType":"Encounter","id":"91e51003-0daf-42da-a3c7-9b54dcd4a1ac","meta":{"profile":["http://hl7.org/fhir/us/qicore/StructureDefinition/qicore-encounter"]},"status":"finished","class":{"system":"http://terminology.hl7.org/CodeSystem/v3-ActCode","code":"AMB","display":"ambulatory","userSelected":true},"type":[{"coding":[{"system":"http://www.ama-assn.org/go/cpt","version":"2023","code":"77427","display":"Radiation treatment management, 5 treatments","userSelected":true}]}],"subject":{"reference":"Patient/bbdccaa6-f3a0-426d-8e77-eff43095cfc9"},"period":{"start":"2025-09-20T11:30:00.000+00:00","end":"2025-09-20T11:30:00.000+00:00"}},"request":{"method":"PUT","url":"Encounter/91e51003-0daf-42da-a3c7-9b54dcd4a1ac"}},{"fullUrl":"https://madie.cms.gov/Organization/123456","resource":{"resourceType":"Organization","id":"4b5a882f-1f43-485c-85c6-f5ad2337d5b1","meta":{"profile":["http://hl7.org/fhir/us/qicore/StructureDefinition/qicore-organization"]},"identifier":[{"use":"temp","system":"urn:oid:2.16.840.1.113883.4.4","value":"21-3259825"}],"active":true,"type":[{"coding":[{"system":"http://terminology.hl7.org/CodeSystem/organization-type","code":"pay","display":"Payer"}]}],"name":"Blue Cross Blue Shield of Texas","telecom":[{"system":"phone","value":"(+1) 972-766-6900"}],"address":[{"use":"billing","type":"postal","line":["P.O. Box 660044"],"city":"Dallas","state":"TX","postalCode":"75266-0044","country":"USA"}]},"request":{"method":"PUT","url":"Organization/4b5a882f-1f43-485c-85c6-f5ad2337d5b1"}},{"fullUrl":"https://madie.cms.gov/Practitioner/practitioner-123456","resource":{"resourceType":"Practitioner","id":"9374e671-ab51-47db-afd1-13e6b0638e9e","meta":{"profile":["http://hl7.org/fhir/us/qicore/StructureDefinition/qicore-practitioner"]},"identifier":[{"system":"http://hl7.org/fhir/sid/us-npi","value":"123456"}],"name":[{"family":"Evil","prefix":["Dr"]}]},"request":{"method":"PUT","url":"Practitioner/9374e671-ab51-47db-afd1-13e6b0638e9e"}},{"fullUrl":"https://madie.cms.gov/MeasureReport/2353f708-17a4-4f77-b0b1-0ebfd6658cbf","resource":{"resourceType":"MeasureReport","id":"2353f708-17a4-4f77-b0b1-0ebfd6658cbf","meta":{"profile":["http://hl7.org/fhir/us/cqfmeasures/StructureDefinition/test-case-cqfm"]},"contained":[{"resourceType":"Parameters","id":"fb646d86-d355-4a68-9e13-f980d46aa3f5-parameters","parameter":[{"name":"subject","valueString":"bbdccaa6-f3a0-426d-8e77-eff43095cfc9"}]}],"extension":[{"url":"http://hl7.org/fhir/us/cqfmeasures/StructureDefinition/cqfm-inputParameters","valueReference":{"reference":"#fb646d86-d355-4a68-9e13-f980d46aa3f5-parameters"}},{"url":"http://hl7.org/fhir/us/cqfmeasures/StructureDefinition/cqfm-testCaseDescription","valueMarkdown":"Patient with cancer diagnosis that overlaps radiation treatment management during measurement period. Pain intensity assessment was performed months before radiation treatment management encounter.\n"}],"modifierExtension":[{"url":"http://hl7.org/fhir/us/cqfmeasures/StructureDefinition/cqfm-isTestCase","valueBoolean":true}],"status":"complete","type":"individual","measure":"https://madie.cms.gov/Measure/OncologyPainIntensityQuantifiedFHIR","period":{"start":"2025-01-01","end":"2025-12-31"},"group":[{"population":[{"code":{"coding":[{"system":"http://terminology.hl7.org/CodeSystem/measure-population","code":"initial-population","display":"Initial Population"}]},"count":0},{"code":{"coding":[{"system":"http://terminology.hl7.org/CodeSystem/measure-population","code":"denominator","display":"Denominator"}]},"count":0},{"code":{"coding":[{"system":"http://terminology.hl7.org/CodeSystem/measure-population","code":"numerator","display":"Numerator"}]},"count":0}]},{"population":[{"code":{"coding":[{"system":"http://terminology.hl7.org/CodeSystem/measure-population","code":"initial-population","display":"Initial Population"}]},"count":1},{"code":{"coding":[{"system":"http://terminology.hl7.org/CodeSystem/measure-population","code":"denominator","display":"Denominator"}]},"count":1},{"code":{"coding":[{"system":"http://terminology.hl7.org/CodeSystem/measure-population","code":"numerator","display":"Numerator"}]},"count":0}]}]},"request":{"method":"PUT","url":"MeasureReport/2353f708-17a4-4f77-b0b1-0ebfd6658cbf"}}]}