{
  "resourceType": "Bundle",
  "id": "64137b3e4b11b147841ab8f7",
  "type": "transaction",
  "entry": [ {
    "fullUrl": "https://madie.cms.gov/Patient/a7284289-8784-48d9-a342-7d851085efb7",
    "resource": {
      "resourceType": "Patient",
      "id": "a7284289-8784-48d9-a342-7d851085efb7",
      "meta": {
        "profile": [ "http://hl7.org/fhir/us/qicore/StructureDefinition/qicore-patient" ]
      },
      "extension": [ {
        "url": "http://hl7.org/fhir/us/core/StructureDefinition/us-core-race",
        "extension": [ {
          "url": "ombCategory",
          "valueCoding": {
            "system": "urn:oid:2.16.840.1.113883.6.238",
            "code": "2076-8",
            "display": "Native Hawaiian or Other Pacific Islander",
            "userSelected": true
          }
        }, {
          "url": "text",
          "valueString": "Native Hawaiian or Other Pacific Islander"
        } ]
      }, {
        "url": "http://hl7.org/fhir/us/core/StructureDefinition/us-core-ethnicity",
        "extension": [ {
          "url": "ombCategory",
          "valueCoding": {
            "system": "urn:oid:2.16.840.1.113883.6.238",
            "code": "2186-5",
            "display": "Not Hispanic or Latino",
            "userSelected": true
          }
        }, {
          "url": "text",
          "valueString": "Not Hispanic or Latino"
        } ]
      } ],
      "identifier": [ {
        "type": {
          "coding": [ {
            "system": "http://terminology.hl7.org/CodeSystem/v2-0203",
            "code": "MR"
          } ]
        },
        "system": "https://bonnie-fhir.healthit.gov/",
        "value": "64137b3e4b11b147841ab8f7"
      } ],
      "name": [ {
        "family": "DENOMPass",
        "given": [ "DiabetesOverlapsMP" ]
      } ],
      "gender": "female",
      "birthDate": "1997-01-01"
    },
    "request": {
      "method": "POST",
      "url": "Patient/a7284289-8784-48d9-a342-7d851085efb7"
    }
  }, {
    "fullUrl": "https://madie.cms.gov/Condition/diabetes-b8f8",
    "resource": {
      "resourceType": "Condition",
      "id": "diabetes-b8f8",
      "meta": {
        "profile": [ "http://hl7.org/fhir/us/qicore/StructureDefinition/qicore-condition" ]
      },
      "clinicalStatus": {
        "coding": [ {
          "system": "http://terminology.hl7.org/CodeSystem/condition-clinical",
          "code": "active",
          "display": "active",
          "userSelected": true
        } ]
      },
      "category": [ {
        "coding": [ {
          "system": "http://terminology.hl7.org/CodeSystem/condition-category",
          "code": "encounter-diagnosis",
          "display": "Encounter Diagnosis",
          "userSelected": true
        } ]
      } ],
      "code": {
        "coding": [ {
          "system": "http://snomed.info/sct",
          "version": "2021-09",
          "code": "102781000119107",
          "display": "Sensory neuropathy due to type 1 diabetes mellitus (disorder)",
          "userSelected": true
        } ]
      },
      "subject": {
        "reference": "Patient/a7284289-8784-48d9-a342-7d851085efb7"
      },
      "onsetDateTime": "2025-03-01T08:00:00.000+00:00",
      "recordedDate": "2025-03-16T08:00:00.000+00:00"
    },
    "request": {
      "method": "POST",
      "url": "Condition/diabetes-b8f8"
    }
  }, {
    "fullUrl": "https://madie.cms.gov/Encounter/annual-wellness-visit-b8f9",
    "resource": {
      "resourceType": "Encounter",
      "id": "annual-wellness-visit-b8f9",
      "meta": {
        "profile": [ "http://hl7.org/fhir/us/qicore/StructureDefinition/qicore-encounter" ]
      },
      "status": "finished",
      "class": {
        "system": "http://terminology.hl7.org/CodeSystem/v3-ActCode",
        "code": "AMB",
        "display": "ambulatory",
        "userSelected": true
      },
      "type": [ {
        "coding": [ {
          "system": "http://snomed.info/sct",
          "version": "2021-09",
          "code": "444971000124105",
          "display": "Annual wellness visit (procedure)",
          "userSelected": true
        } ]
      } ],
      "subject": {
        "reference": "Patient/a7284289-8784-48d9-a342-7d851085efb7"
      },
      "period": {
        "start": "2025-03-16T08:00:00.000+00:00",
        "end": "2025-03-16T08:15:00.000+00:00"
      }
    },
    "request": {
      "method": "POST",
      "url": "Encounter/annual-wellness-visit-b8f9"
    }
  }, {
    "fullUrl": "https://madie.cms.gov/MeasureReport/c588856c-3230-40b5-a2f1-3693a9fe6e37",
    "resource": {
      "resourceType": "MeasureReport",
      "id": "c588856c-3230-40b5-a2f1-3693a9fe6e37",
      "meta": {
        "profile": [ "http://hl7.org/fhir/us/cqfmeasures/StructureDefinition/test-case-cqfm" ]
      },
      "contained": [ {
        "resourceType": "Parameters",
        "id": "4cfaaa18-6c2d-4126-b797-bdd20fa3190a-parameters",
        "parameter": [ {
          "name": "subject",
          "valueString": "a7284289-8784-48d9-a342-7d851085efb7"
        } ]
      } ],
      "extension": [ {
        "url": "http://hl7.org/fhir/us/cqfmeasures/StructureDefinition/cqfm-inputParameters",
        "valueReference": {
          "reference": "#4cfaaa18-6c2d-4126-b797-bdd20fa3190a-parameters"
        }
      }, {
        "url": "http://hl7.org/fhir/us/cqfmeasures/StructureDefinition/cqfm-testCaseDescription",
        "valueMarkdown": "This patient is 27 and has an active diabetes diagnosis and an annual wellness visit performed during the measurement period. This tests the denominator criteria.\n"
      } ],
      "modifierExtension": [ {
        "url": "http://hl7.org/fhir/us/cqfmeasures/StructureDefinition/cqfm-isTestCase",
        "valueBoolean": true
      } ],
      "status": "complete",
      "type": "individual",
      "measure": "https://madie.cms.gov/Measure/KidneyHealthEvaluationFHIR",
      "period": {
        "start": "2025-01-01",
        "end": "2025-12-31"
      },
      "group": [ {
        "population": [ {
          "code": {
            "coding": [ {
              "system": "http://terminology.hl7.org/CodeSystem/measure-population",
              "code": "initial-population",
              "display": "Initial Population"
            } ]
          },
          "count": 1
        }, {
          "code": {
            "coding": [ {
              "system": "http://terminology.hl7.org/CodeSystem/measure-population",
              "code": "denominator",
              "display": "Denominator"
            } ]
          },
          "count": 1
        }, {
          "code": {
            "coding": [ {
              "system": "http://terminology.hl7.org/CodeSystem/measure-population",
              "code": "denominator-exclusion",
              "display": "Denominator Exclusion"
            } ]
          },
          "count": 0
        }, {
          "code": {
            "coding": [ {
              "system": "http://terminology.hl7.org/CodeSystem/measure-population",
              "code": "numerator",
              "display": "Numerator"
            } ]
          },
          "count": 0
        } ]
      } ],
      "evaluatedResource": [ {
        "reference": "Patient/a7284289-8784-48d9-a342-7d851085efb7"
      }, {
        "reference": "Condition/diabetes-b8f8"
      }, {
        "reference": "Encounter/annual-wellness-visit-b8f9"
      } ]
    },
    "request": {
      "method": "POST",
      "url": "MeasureReport/c588856c-3230-40b5-a2f1-3693a9fe6e37"
    }
  } ]
}