{"resourceType":"Bundle","id":"tests-499fd8d2-0a68-4d27-a194-c61aae97e492-bundle","type":"transaction","entry":[{"fullUrl":"https://madie.cms.gov/Patient/499fd8d2-0a68-4d27-a194-c61aae97e492","resource":{"resourceType":"Patient","id":"499fd8d2-0a68-4d27-a194-c61aae97e492","meta":{"profile":["http://hl7.org/fhir/us/qicore/StructureDefinition/qicore-patient"]},"extension":[{"url":"http://hl7.org/fhir/us/core/StructureDefinition/us-core-race","extension":[{"url":"ombCategory","valueCoding":{"system":"urn:oid:2.16.840.1.113883.6.238","code":"2028-9","display":"Asian"}},{"url":"text","valueString":"Asian"}]},{"url":"http://hl7.org/fhir/us/core/StructureDefinition/us-core-ethnicity","extension":[{"url":"ombCategory","valueCoding":{"system":"urn:oid:2.16.840.1.113883.6.238","code":"2135-2","display":"Hispanic or Latino"}},{"url":"text","valueString":"Hispanic or Latino"}]}],"identifier":[{"system":"http://hospital.smarthealthit.org","value":"999999995"}],"name":[{"family":"Bertha","given":["Betty"]}],"gender":"female","birthDate":"2005-01-01"},"request":{"method":"PUT","url":"Patient/499fd8d2-0a68-4d27-a194-c61aae97e492"}},{"fullUrl":"https://madie.cms.gov/Encounter/Encounter-7","resource":{"resourceType":"Encounter","id":"ce66326d-682b-4ec3-ae04-1b6ac7db272f","meta":{"profile":["http://hl7.org/fhir/us/qicore/StructureDefinition/qicore-encounter"]},"status":"finished","class":{"system":"http://terminology.hl7.org/CodeSystem/v3-ActCode","code":"AMB","display":"ambulatory"},"type":[{"coding":[{"system":"http://www.ada.org/cdt","code":"D0120","display":"periodic oral evaluation - established patient"}]}],"subject":{"reference":"Patient/499fd8d2-0a68-4d27-a194-c61aae97e492"},"period":{"start":"2025-01-01T00:00:00.000Z","end":"2025-01-01T01:15:00.000Z"}},"request":{"method":"PUT","url":"Encounter/ce66326d-682b-4ec3-ae04-1b6ac7db272f"}},{"fullUrl":"https://madie.cms.gov/Procedure/Procedure-6","resource":{"resourceType":"Procedure","id":"6cf0210a-37c4-4a3d-b7a1-e5706220e1bb","meta":{"profile":["http://hl7.org/fhir/us/qicore/StructureDefinition/qicore-procedure"]},"extension":[{"url":"http://hl7.org/fhir/us/qicore/StructureDefinition/qicore-recorded","valueDateTime":"2024-12-31T23:00:00.000Z"}],"status":"completed","code":{"coding":[{"system":"http://snomed.info/sct","code":"385763009","display":"Hospice care (regime/therapy)"}]},"subject":{"reference":"Patient/499fd8d2-0a68-4d27-a194-c61aae97e492"},"performedPeriod":{"start":"2024-12-31T00:00:00.000Z","end":"2025-01-01T00:00:00.000Z"}},"request":{"method":"PUT","url":"Procedure/6cf0210a-37c4-4a3d-b7a1-e5706220e1bb"}},{"fullUrl":"https://madie.cms.gov/MeasureReport/e885332f-4e37-47e3-8408-40646a16f5ed","resource":{"resourceType":"MeasureReport","id":"e885332f-4e37-47e3-8408-40646a16f5ed","meta":{"profile":["http://hl7.org/fhir/us/cqfmeasures/StructureDefinition/test-case-cqfm"]},"contained":[{"resourceType":"Parameters","id":"afcc2b8c-eba6-4a67-b24e-971bcec2fc9e-parameters","parameter":[{"name":"subject","valueString":"499fd8d2-0a68-4d27-a194-c61aae97e492"}]}],"extension":[{"url":"http://hl7.org/fhir/us/cqfmeasures/StructureDefinition/cqfm-inputParameters","valueReference":{"reference":"#afcc2b8c-eba6-4a67-b24e-971bcec2fc9e-parameters"}},{"url":"http://hl7.org/fhir/us/cqfmeasures/StructureDefinition/cqfm-testCaseDescription","valueMarkdown":"Hospice Procedure - For meeting 100% coverage"}],"modifierExtension":[{"url":"http://hl7.org/fhir/us/cqfmeasures/StructureDefinition/cqfm-isTestCase","valueBoolean":true}],"status":"complete","type":"individual","measure":"https://madie.cms.gov/Measure/PrimaryCariesPreventionasOfferedbyDentistsFHIR","period":{"start":"2025-01-01","end":"2025-12-31"},"group":[{"population":[{"code":{"coding":[{"system":"http://terminology.hl7.org/CodeSystem/measure-population","code":"initial-population","display":"Initial Population"}]},"count":1},{"code":{"coding":[{"system":"http://terminology.hl7.org/CodeSystem/measure-population","code":"denominator","display":"Denominator"}]},"count":1},{"code":{"coding":[{"system":"http://terminology.hl7.org/CodeSystem/measure-population","code":"denominator-exclusion","display":"Denominator Exclusion"}]},"count":1},{"code":{"coding":[{"system":"http://terminology.hl7.org/CodeSystem/measure-population","code":"numerator","display":"Numerator"}]},"count":0}]}]},"request":{"method":"PUT","url":"MeasureReport/e885332f-4e37-47e3-8408-40646a16f5ed"}}]}