{"resourceType":"Bundle","id":"tests-ed7ad3f4-507a-4980-aefa-7d6a8baafaa2-bundle","type":"transaction","entry":[{"fullUrl":"https://madie.cms.gov/Patient/ed7ad3f4-507a-4980-aefa-7d6a8baafaa2","resource":{"resourceType":"Patient","id":"ed7ad3f4-507a-4980-aefa-7d6a8baafaa2","meta":{"profile":["http://hl7.org/fhir/us/qicore/StructureDefinition/qicore-patient"]},"extension":[{"url":"http://hl7.org/fhir/us/core/StructureDefinition/us-core-race","extension":[{"url":"ombCategory","valueCoding":{"system":"urn:oid:2.16.840.1.113883.6.238","code":"2028-9","display":"Asian"}},{"url":"text","valueString":"Asian"}]},{"url":"http://hl7.org/fhir/us/core/StructureDefinition/us-core-ethnicity","extension":[{"url":"ombCategory","valueCoding":{"system":"urn:oid:2.16.840.1.113883.6.238","code":"2135-2","display":"Hispanic or Latino"}},{"url":"text","valueString":"Hispanic or Latino"}]}],"identifier":[{"system":"http://hospital.smarthealthit.org","value":"999999995"}],"name":[{"family":"Bertha","given":["Betty"]}],"gender":"female","birthDate":"2005-01-01"},"request":{"method":"PUT","url":"Patient/ed7ad3f4-507a-4980-aefa-7d6a8baafaa2"}},{"fullUrl":"https://madie.cms.gov/Encounter/Encounter-2","resource":{"resourceType":"Encounter","id":"c1a66d4e-ac89-4f4b-98c7-e13480701b3e","meta":{"profile":["http://hl7.org/fhir/us/qicore/StructureDefinition/qicore-encounter"]},"status":"finished","class":{"system":"http://terminology.hl7.org/CodeSystem/v3-ActCode","code":"AMB","display":"ambulatory"},"type":[{"coding":[{"system":"http://www.ada.org/cdt","code":"D0120","display":"periodic oral evaluation - established patient"}]}],"subject":{"reference":"Patient/ed7ad3f4-507a-4980-aefa-7d6a8baafaa2"},"period":{"start":"2025-12-31T00:00:00.000Z","end":"2025-12-31T01:15:00.000Z"}},"request":{"method":"PUT","url":"Encounter/c1a66d4e-ac89-4f4b-98c7-e13480701b3e"}},{"fullUrl":"https://madie.cms.gov/MeasureReport/de25f5ee-8e74-4545-894d-1a0762da1d2e","resource":{"resourceType":"MeasureReport","id":"de25f5ee-8e74-4545-894d-1a0762da1d2e","meta":{"profile":["http://hl7.org/fhir/us/cqfmeasures/StructureDefinition/test-case-cqfm"]},"contained":[{"resourceType":"Parameters","id":"604df30e-8715-46fa-94b9-cedfb5fba11a-parameters","parameter":[{"name":"subject","valueString":"ed7ad3f4-507a-4980-aefa-7d6a8baafaa2"}]}],"extension":[{"url":"http://hl7.org/fhir/us/cqfmeasures/StructureDefinition/cqfm-inputParameters","valueReference":{"reference":"#604df30e-8715-46fa-94b9-cedfb5fba11a-parameters"}},{"url":"http://hl7.org/fhir/us/cqfmeasures/StructureDefinition/cqfm-testCaseDescription","valueMarkdown":"Patient 20yo w/ an Oral Evaluation Encounter 12/31 of the Measurement Period."}],"modifierExtension":[{"url":"http://hl7.org/fhir/us/cqfmeasures/StructureDefinition/cqfm-isTestCase","valueBoolean":true}],"status":"complete","type":"individual","measure":"https://madie.cms.gov/Measure/PrimaryCariesPreventionasOfferedbyDentistsFHIR","period":{"start":"2025-01-01","end":"2025-12-31"},"group":[{"population":[{"code":{"coding":[{"system":"http://terminology.hl7.org/CodeSystem/measure-population","code":"initial-population","display":"Initial Population"}]},"count":1},{"code":{"coding":[{"system":"http://terminology.hl7.org/CodeSystem/measure-population","code":"denominator","display":"Denominator"}]},"count":1},{"code":{"coding":[{"system":"http://terminology.hl7.org/CodeSystem/measure-population","code":"denominator-exclusion","display":"Denominator Exclusion"}]},"count":0},{"code":{"coding":[{"system":"http://terminology.hl7.org/CodeSystem/measure-population","code":"numerator","display":"Numerator"}]},"count":0}]}]},"request":{"method":"PUT","url":"MeasureReport/de25f5ee-8e74-4545-894d-1a0762da1d2e"}}]}