{"resourceType":"Bundle","id":"tests-e428789b-b5ca-4d15-9a7b-4f527303fc9e-bundle","type":"transaction","entry":[{"fullUrl":"https://madie.cms.gov/Patient/e428789b-b5ca-4d15-9a7b-4f527303fc9e","resource":{"resourceType":"Patient","id":"e428789b-b5ca-4d15-9a7b-4f527303fc9e","meta":{"profile":["http://hl7.org/fhir/us/qicore/StructureDefinition/qicore-patient"]},"extension":[{"url":"http://hl7.org/fhir/us/core/StructureDefinition/us-core-race","extension":[{"url":"ombCategory","valueCoding":{"system":"urn:oid:2.16.840.1.113883.6.238","code":"2028-9","display":"Asian"}},{"url":"text","valueString":"Asian"}]},{"url":"http://hl7.org/fhir/us/core/StructureDefinition/us-core-ethnicity","extension":[{"url":"ombCategory","valueCoding":{"system":"urn:oid:2.16.840.1.113883.6.238","code":"2135-2","display":"Hispanic or Latino"}},{"url":"text","valueString":"Hispanic or Latino"}]}],"identifier":[{"system":"http://hospital.smarthealthit.org","value":"999999995"}],"name":[{"family":"Bertha","given":["Betty"]}],"gender":"female","birthDate":"2005-01-01"},"request":{"method":"PUT","url":"Patient/e428789b-b5ca-4d15-9a7b-4f527303fc9e"}},{"fullUrl":"https://madie.cms.gov/Encounter/Encounter-12","resource":{"resourceType":"Encounter","id":"8d3fbbbf-0032-4b88-89ee-70f81aa372fb","meta":{"profile":["http://hl7.org/fhir/us/qicore/StructureDefinition/qicore-encounter"]},"status":"finished","class":{"system":"http://terminology.hl7.org/CodeSystem/v3-ActCode","code":"AMB","display":"ambulatory"},"type":[{"coding":[{"system":"http://www.ada.org/cdt","code":"D0120","display":"periodic oral evaluation - established patient"}]}],"subject":{"reference":"Patient/e428789b-b5ca-4d15-9a7b-4f527303fc9e"},"period":{"start":"2025-01-01T00:00:00.000Z","end":"2025-01-01T01:15:00.000Z"}},"request":{"method":"PUT","url":"Encounter/8d3fbbbf-0032-4b88-89ee-70f81aa372fb"}},{"fullUrl":"https://madie.cms.gov/Procedure/Procedure-12","resource":{"resourceType":"Procedure","id":"22cae55c-a45f-4dee-baae-0fa4d6ec1cf1","meta":{"profile":["http://hl7.org/fhir/us/qicore/StructureDefinition/qicore-procedure"]},"extension":[{"url":"http://hl7.org/fhir/us/qicore/StructureDefinition/qicore-recorded","valueDateTime":"2026-01-01T00:00:00.000Z"}],"status":"completed","code":{"coding":[{"system":"http://snomed.info/sct","code":"313042009","display":"Application of dental fluoride varnish (procedure)"}]},"subject":{"reference":"Patient/e428789b-b5ca-4d15-9a7b-4f527303fc9e"},"performedPeriod":{"start":"2026-01-01T00:00:00.000Z","end":"2026-01-01T01:00:00.000Z"}},"request":{"method":"PUT","url":"Procedure/22cae55c-a45f-4dee-baae-0fa4d6ec1cf1"}},{"fullUrl":"https://madie.cms.gov/Procedure/Procedure-12.1","resource":{"resourceType":"Procedure","id":"fa920900-5ae5-4769-9d24-72ae1bc6fd21","meta":{"profile":["http://hl7.org/fhir/us/qicore/StructureDefinition/qicore-procedure"]},"extension":[{"url":"http://hl7.org/fhir/us/qicore/StructureDefinition/qicore-recorded","valueDateTime":"2026-01-01T01:00:00.000Z"}],"status":"completed","code":{"coding":[{"system":"http://snomed.info/sct","code":"313042009","display":"Application of dental fluoride varnish (procedure)"}]},"subject":{"reference":"Patient/e428789b-b5ca-4d15-9a7b-4f527303fc9e"},"performedPeriod":{"start":"2026-01-01T00:00:00.000Z","end":"2026-01-01T00:00:00.000Z"}},"request":{"method":"PUT","url":"Procedure/fa920900-5ae5-4769-9d24-72ae1bc6fd21"}},{"fullUrl":"https://madie.cms.gov/MeasureReport/a2c6d532-958c-4c50-9afa-ea81594d7794","resource":{"resourceType":"MeasureReport","id":"a2c6d532-958c-4c50-9afa-ea81594d7794","meta":{"profile":["http://hl7.org/fhir/us/cqfmeasures/StructureDefinition/test-case-cqfm"]},"contained":[{"resourceType":"Parameters","id":"08954b79-e022-4cf3-ba42-abf7ce8191fb-parameters","parameter":[{"name":"subject","valueString":"e428789b-b5ca-4d15-9a7b-4f527303fc9e"}]}],"extension":[{"url":"http://hl7.org/fhir/us/cqfmeasures/StructureDefinition/cqfm-inputParameters","valueReference":{"reference":"#08954b79-e022-4cf3-ba42-abf7ce8191fb-parameters"}},{"url":"http://hl7.org/fhir/us/cqfmeasures/StructureDefinition/cqfm-testCaseDescription","valueMarkdown":"Patient 20yo w/ an Oral Evaluation Encounter 1/1 of the MP & 2 Flouride Application Procedures that end on 1/1 after the MP."}],"modifierExtension":[{"url":"http://hl7.org/fhir/us/cqfmeasures/StructureDefinition/cqfm-isTestCase","valueBoolean":true}],"status":"complete","type":"individual","measure":"https://madie.cms.gov/Measure/PrimaryCariesPreventionasOfferedbyDentistsFHIR","period":{"start":"2025-01-01","end":"2025-12-31"},"group":[{"population":[{"code":{"coding":[{"system":"http://terminology.hl7.org/CodeSystem/measure-population","code":"initial-population","display":"Initial Population"}]},"count":1},{"code":{"coding":[{"system":"http://terminology.hl7.org/CodeSystem/measure-population","code":"denominator","display":"Denominator"}]},"count":1},{"code":{"coding":[{"system":"http://terminology.hl7.org/CodeSystem/measure-population","code":"denominator-exclusion","display":"Denominator Exclusion"}]},"count":0},{"code":{"coding":[{"system":"http://terminology.hl7.org/CodeSystem/measure-population","code":"numerator","display":"Numerator"}]},"count":0}]}]},"request":{"method":"PUT","url":"MeasureReport/a2c6d532-958c-4c50-9afa-ea81594d7794"}}]}