{"resourceType":"Bundle","id":"tests-04d34ff1-968e-4ad9-9c61-250ddd6a5828-bundle","type":"transaction","entry":[{"fullUrl":"https://madie.cms.gov/Patient/04d34ff1-968e-4ad9-9c61-250ddd6a5828","resource":{"resourceType":"Patient","id":"04d34ff1-968e-4ad9-9c61-250ddd6a5828","meta":{"profile":["http://hl7.org/fhir/us/qicore/StructureDefinition/qicore-patient"]},"extension":[{"url":"http://hl7.org/fhir/us/core/StructureDefinition/us-core-race","extension":[{"url":"ombCategory","valueCoding":{"system":"urn:oid:2.16.840.1.113883.6.238","code":"2028-9","display":"Asian"}},{"url":"text","valueString":"Asian"}]},{"url":"http://hl7.org/fhir/us/core/StructureDefinition/us-core-ethnicity","extension":[{"url":"ombCategory","valueCoding":{"system":"urn:oid:2.16.840.1.113883.6.238","code":"2135-2","display":"Hispanic or Latino"}},{"url":"text","valueString":"Hispanic or Latino"}]}],"identifier":[{"system":"http://hospital.smarthealthit.org","value":"999999995"}],"name":[{"family":"Bertha","given":["Betty"]}],"gender":"female","birthDate":"2005-01-01"},"request":{"method":"PUT","url":"Patient/04d34ff1-968e-4ad9-9c61-250ddd6a5828"}},{"fullUrl":"https://madie.cms.gov/Encounter/Encounter-13","resource":{"resourceType":"Encounter","id":"ea692eb7-ec36-45e7-b874-91679d8293d3","meta":{"profile":["http://hl7.org/fhir/us/qicore/StructureDefinition/qicore-encounter"]},"status":"finished","class":{"system":"http://terminology.hl7.org/CodeSystem/v3-ActCode","code":"AMB","display":"ambulatory"},"type":[{"coding":[{"system":"http://www.ada.org/cdt","code":"D0120","display":"periodic oral evaluation - established patient"}]}],"subject":{"reference":"Patient/04d34ff1-968e-4ad9-9c61-250ddd6a5828"},"period":{"start":"2025-01-01T00:00:00.000Z","end":"2025-01-01T01:15:00.000Z"}},"request":{"method":"PUT","url":"Encounter/ea692eb7-ec36-45e7-b874-91679d8293d3"}},{"fullUrl":"https://madie.cms.gov/Procedure/Procedure-13","resource":{"resourceType":"Procedure","id":"9dcb9953-1774-4eef-842e-bb6a88de06a0","meta":{"profile":["http://hl7.org/fhir/us/qicore/StructureDefinition/qicore-procedure"]},"extension":[{"url":"http://hl7.org/fhir/us/qicore/StructureDefinition/qicore-recorded","valueDateTime":"2025-01-01T23:59:59.000Z"}],"status":"completed","code":{"coding":[{"system":"http://snomed.info/sct","code":"313042009","display":"Application of dental fluoride varnish (procedure)"}]},"subject":{"reference":"Patient/04d34ff1-968e-4ad9-9c61-250ddd6a5828"},"performedPeriod":{"start":"2025-01-01T00:00:00.000Z","end":"2025-01-01T23:59:59.000Z"}},"request":{"method":"PUT","url":"Procedure/9dcb9953-1774-4eef-842e-bb6a88de06a0"}},{"fullUrl":"https://madie.cms.gov/Procedure/Procedure-13.1","resource":{"resourceType":"Procedure","id":"541620d7-5d1e-496d-9468-826a894874ce","meta":{"profile":["http://hl7.org/fhir/us/qicore/StructureDefinition/qicore-procedure"]},"extension":[{"url":"http://hl7.org/fhir/us/qicore/StructureDefinition/qicore-recorded","valueDateTime":"2025-12-31T23:59:59.000Z"}],"status":"completed","code":{"coding":[{"system":"http://snomed.info/sct","code":"313042009","display":"Application of dental fluoride varnish (procedure)"}]},"subject":{"reference":"Patient/04d34ff1-968e-4ad9-9c61-250ddd6a5828"},"performedPeriod":{"start":"2025-12-31T00:00:00.000Z","end":"2025-12-31T23:59:59.000Z"}},"request":{"method":"PUT","url":"Procedure/541620d7-5d1e-496d-9468-826a894874ce"}},{"fullUrl":"https://madie.cms.gov/MeasureReport/ac19cb41-8798-45bc-aa7c-4da383dbb640","resource":{"resourceType":"MeasureReport","id":"ac19cb41-8798-45bc-aa7c-4da383dbb640","meta":{"profile":["http://hl7.org/fhir/us/cqfmeasures/StructureDefinition/test-case-cqfm"]},"contained":[{"resourceType":"Parameters","id":"e997f3c4-90d0-4568-8177-5857c3e79b88-parameters","parameter":[{"name":"subject","valueString":"04d34ff1-968e-4ad9-9c61-250ddd6a5828"}]}],"extension":[{"url":"http://hl7.org/fhir/us/cqfmeasures/StructureDefinition/cqfm-inputParameters","valueReference":{"reference":"#e997f3c4-90d0-4568-8177-5857c3e79b88-parameters"}},{"url":"http://hl7.org/fhir/us/cqfmeasures/StructureDefinition/cqfm-testCaseDescription","valueMarkdown":"Patient 20yo w/ an Oral Evaluation Encounter 1/1 of the MP & 2 Flouride Application Procedures that end on 1/1, and 12/31 during the MP."}],"modifierExtension":[{"url":"http://hl7.org/fhir/us/cqfmeasures/StructureDefinition/cqfm-isTestCase","valueBoolean":true}],"status":"complete","type":"individual","measure":"https://madie.cms.gov/Measure/PrimaryCariesPreventionasOfferedbyDentistsFHIR","period":{"start":"2025-01-01","end":"2025-12-31"},"group":[{"population":[{"code":{"coding":[{"system":"http://terminology.hl7.org/CodeSystem/measure-population","code":"initial-population","display":"Initial Population"}]},"count":1},{"code":{"coding":[{"system":"http://terminology.hl7.org/CodeSystem/measure-population","code":"denominator","display":"Denominator"}]},"count":1},{"code":{"coding":[{"system":"http://terminology.hl7.org/CodeSystem/measure-population","code":"denominator-exclusion","display":"Denominator Exclusion"}]},"count":0},{"code":{"coding":[{"system":"http://terminology.hl7.org/CodeSystem/measure-population","code":"numerator","display":"Numerator"}]},"count":1}]}]},"request":{"method":"PUT","url":"MeasureReport/ac19cb41-8798-45bc-aa7c-4da383dbb640"}}]}