{"resourceType":"Bundle","id":"tests-222141c3-c8c7-48b6-a354-d816b6bbaa41-bundle","type":"transaction","entry":[{"fullUrl":"https://madie.cms.gov/Patient/222141c3-c8c7-48b6-a354-d816b6bbaa41","resource":{"resourceType":"Patient","id":"222141c3-c8c7-48b6-a354-d816b6bbaa41","meta":{"profile":["http://hl7.org/fhir/us/qicore/StructureDefinition/qicore-patient"]},"extension":[{"url":"http://hl7.org/fhir/us/core/StructureDefinition/us-core-race","extension":[{"url":"ombCategory","valueCoding":{"system":"urn:oid:2.16.840.1.113883.6.238","code":"2028-9","display":"Asian"}},{"url":"text","valueString":"Asian"}]},{"url":"http://hl7.org/fhir/us/core/StructureDefinition/us-core-ethnicity","extension":[{"url":"ombCategory","valueCoding":{"system":"urn:oid:2.16.840.1.113883.6.238","code":"2135-2","display":"Hispanic or Latino"}},{"url":"text","valueString":"Hispanic or Latino"}]}],"identifier":[{"system":"http://hospital.smarthealthit.org","value":"999999995"}],"name":[{"family":"Bertha","given":["Betty"]}],"gender":"female","birthDate":"2004-01-01"},"request":{"method":"PUT","url":"Patient/222141c3-c8c7-48b6-a354-d816b6bbaa41"}},{"fullUrl":"https://madie.cms.gov/Encounter/Encounter-4","resource":{"resourceType":"Encounter","id":"1de85623-20a2-4562-a604-5f6e204be6f5","meta":{"profile":["http://hl7.org/fhir/us/qicore/StructureDefinition/qicore-encounter"]},"status":"finished","class":{"system":"http://terminology.hl7.org/CodeSystem/v3-ActCode","code":"AMB","display":"ambulatory"},"type":[{"coding":[{"system":"http://www.ada.org/cdt","code":"D0120","display":"periodic oral evaluation - established patient"}]}],"subject":{"reference":"Patient/222141c3-c8c7-48b6-a354-d816b6bbaa41"},"period":{"start":"2025-01-01T00:00:00.000Z","end":"2025-01-01T01:15:00.000Z"}},"request":{"method":"PUT","url":"Encounter/1de85623-20a2-4562-a604-5f6e204be6f5"}},{"fullUrl":"https://madie.cms.gov/MeasureReport/33e6f184-d47f-4a57-be84-14713e81b2b1","resource":{"resourceType":"MeasureReport","id":"33e6f184-d47f-4a57-be84-14713e81b2b1","meta":{"profile":["http://hl7.org/fhir/us/cqfmeasures/StructureDefinition/test-case-cqfm"]},"contained":[{"resourceType":"Parameters","id":"276ecb50-1395-4342-99a3-de0a034c96e6-parameters","parameter":[{"name":"subject","valueString":"222141c3-c8c7-48b6-a354-d816b6bbaa41"}]}],"extension":[{"url":"http://hl7.org/fhir/us/cqfmeasures/StructureDefinition/cqfm-inputParameters","valueReference":{"reference":"#276ecb50-1395-4342-99a3-de0a034c96e6-parameters"}},{"url":"http://hl7.org/fhir/us/cqfmeasures/StructureDefinition/cqfm-testCaseDescription","valueMarkdown":"Patient 21 years old w/ an Oral Evaluation Encounter 1/1 of the Measurement Period."}],"modifierExtension":[{"url":"http://hl7.org/fhir/us/cqfmeasures/StructureDefinition/cqfm-isTestCase","valueBoolean":true}],"status":"complete","type":"individual","measure":"https://madie.cms.gov/Measure/PrimaryCariesPreventionasOfferedbyDentistsFHIR","period":{"start":"2025-01-01","end":"2025-12-31"},"group":[{"population":[{"code":{"coding":[{"system":"http://terminology.hl7.org/CodeSystem/measure-population","code":"initial-population","display":"Initial Population"}]},"count":0},{"code":{"coding":[{"system":"http://terminology.hl7.org/CodeSystem/measure-population","code":"denominator","display":"Denominator"}]},"count":0},{"code":{"coding":[{"system":"http://terminology.hl7.org/CodeSystem/measure-population","code":"denominator-exclusion","display":"Denominator Exclusion"}]},"count":0},{"code":{"coding":[{"system":"http://terminology.hl7.org/CodeSystem/measure-population","code":"numerator","display":"Numerator"}]},"count":0}]}]},"request":{"method":"PUT","url":"MeasureReport/33e6f184-d47f-4a57-be84-14713e81b2b1"}}]}