{
  "resourceType": "Bundle",
  "id": "denompass-allscans",
  "type": "transaction",
  "entry": [ {
    "fullUrl": "https://madie.cms.gov/Patient/bb32779d-4c41-4113-85af-e534298c4579",
    "resource": {
      "resourceType": "Patient",
      "id": "bb32779d-4c41-4113-85af-e534298c4579",
      "meta": {
        "profile": [ "http://hl7.org/fhir/us/core/StructureDefinition/us-core-patient", "http://hl7.org/fhir/us/qicore/StructureDefinition/qicore-patient" ]
      },
      "extension": [ {
        "url": "http://hl7.org/fhir/us/core/StructureDefinition/us-core-race",
        "extension": [ {
          "url": "ombCategory",
          "valueCoding": {
            "system": "urn:oid:2.16.840.1.113883.6.238",
            "code": "2028-9",
            "display": "Asian"
          }
        }, {
          "url": "text",
          "valueString": "Asian"
        } ]
      }, {
        "url": "http://hl7.org/fhir/us/core/StructureDefinition/us-core-ethnicity",
        "extension": [ {
          "url": "ombCategory",
          "valueCoding": {
            "system": "urn:oid:2.16.840.1.113883.6.238",
            "code": "2135-2",
            "display": "Hispanic or Latino"
          }
        }, {
          "url": "text",
          "valueString": "Hispanic or Latino"
        } ]
      } ],
      "identifier": [ {
        "system": "http://hospital.smarthealthit.org",
        "value": "999999995"
      } ],
      "name": [ {
        "family": "AllScans",
        "given": [ "DENOMPass" ]
      } ],
      "gender": "female",
      "birthDate": "1986-06-12"
    },
    "request": {
      "method": "PUT",
      "url": "Patient/bb32779d-4c41-4113-85af-e534298c4579"
    }
  }, {
    "fullUrl": "https://madie.cms.gov/Observation/c027b08c-c913-499f-9230-e7c2b3593d0d",
    "resource": {
      "resourceType": "Observation",
      "id": "c027b08c-c913-499f-9230-e7c2b3593d0d",
      "meta": {
        "profile": [ "http://hl7.org/fhir/us/qicore/StructureDefinition/qicore-observation" ]
      },
      "status": "final",
      "category": [ {
        "coding": [ {
          "system": "http://terminology.hl7.org/CodeSystem/observation-category",
          "code": "imaging",
          "display": "Imaging"
        } ]
      } ],
      "code": {
        "coding": [ {
          "system": "http://loinc.org",
          "code": "96914-7",
          "display": "CT dose and image quality category"
        } ],
        "text": "CT dose and image quality category"
      },
      "subject": {
        "reference": "Patient/bb32779d-4c41-4113-85af-e534298c4579"
      },
      "effectiveDateTime": "2025-01-02T00:00:00.000Z",
      "valueCodeableConcept": {
        "coding": [ {
          "system": "http://loinc.org",
          "code": "LA31752-1",
          "display": "Abdomen and Pelvis Low Dose"
        } ]
      },
      "component": [ {
        "code": {
          "coding": [ {
            "system": "http://loinc.org",
            "code": "96912-1",
            "display": "Calculated CT global noise"
          } ]
        },
        "valueQuantity": {
          "value": 63,
          "unit": "[hnsf'U]",
          "system": "http://unitsofmeasure.org",
          "code": "[hnsf'U]"
        }
      }, {
        "code": {
          "coding": [ {
            "system": "http://loinc.org",
            "code": "96913-9",
            "display": "Calculated CT size-adjusted dose"
          } ]
        },
        "valueQuantity": {
          "value": 597,
          "unit": "mGy.cm",
          "system": "http://unitsofmeasure.org",
          "code": "mGy.cm"
        }
      } ]
    },
    "request": {
      "method": "PUT",
      "url": "Observation/c027b08c-c913-499f-9230-e7c2b3593d0d"
    }
  }, {
    "fullUrl": "https://madie.cms.gov/Observation/ee05358c-be01-45b2-bc44-03bc26624367",
    "resource": {
      "resourceType": "Observation",
      "id": "ee05358c-be01-45b2-bc44-03bc26624367",
      "meta": {
        "profile": [ "http://hl7.org/fhir/us/qicore/StructureDefinition/qicore-observation" ]
      },
      "status": "final",
      "category": [ {
        "coding": [ {
          "system": "http://terminology.hl7.org/CodeSystem/observation-category",
          "code": "imaging",
          "display": "Imaging"
        } ]
      } ],
      "code": {
        "coding": [ {
          "system": "http://loinc.org",
          "code": "96914-7",
          "display": "CT dose and image quality category"
        } ],
        "text": "CT dose and image quality category"
      },
      "subject": {
        "reference": "Patient/bb32779d-4c41-4113-85af-e534298c4579"
      },
      "effectiveDateTime": "2025-01-02T00:00:00.000Z",
      "valueCodeableConcept": {
        "coding": [ {
          "system": "http://loinc.org",
          "code": "LA31753-9",
          "display": "Abdomen and Pelvis Routine Dose"
        } ]
      },
      "component": [ {
        "code": {
          "coding": [ {
            "system": "http://loinc.org",
            "code": "96912-1",
            "display": "Calculated CT global noise"
          } ]
        },
        "valueQuantity": {
          "value": 28,
          "unit": "[hnsf'U]",
          "system": "http://unitsofmeasure.org",
          "code": "[hnsf'U]"
        }
      }, {
        "code": {
          "coding": [ {
            "system": "http://loinc.org",
            "code": "96913-9",
            "display": "Calculated CT size-adjusted dose"
          } ]
        },
        "valueQuantity": {
          "value": 643,
          "unit": "mGy.cm",
          "system": "http://unitsofmeasure.org",
          "code": "mGy.cm"
        }
      } ]
    },
    "request": {
      "method": "PUT",
      "url": "Observation/ee05358c-be01-45b2-bc44-03bc26624367"
    }
  }, {
    "fullUrl": "https://madie.cms.gov/Observation/46beeb85-dc18-4d92-9e45-ea4d8da0b549",
    "resource": {
      "resourceType": "Observation",
      "id": "46beeb85-dc18-4d92-9e45-ea4d8da0b549",
      "meta": {
        "profile": [ "http://hl7.org/fhir/us/qicore/StructureDefinition/qicore-observation" ]
      },
      "status": "final",
      "category": [ {
        "coding": [ {
          "system": "http://terminology.hl7.org/CodeSystem/observation-category",
          "code": "imaging",
          "display": "Imaging"
        } ]
      } ],
      "code": {
        "coding": [ {
          "system": "http://loinc.org",
          "code": "96914-7",
          "display": "CT dose and image quality category"
        } ],
        "text": "CT dose and image quality category"
      },
      "subject": {
        "reference": "Patient/bb32779d-4c41-4113-85af-e534298c4579"
      },
      "effectiveDateTime": "2025-01-02T00:00:00.000Z",
      "valueCodeableConcept": {
        "coding": [ {
          "system": "http://loinc.org",
          "code": "LA31754-7",
          "display": "Abdomen and Pelvis High Dose"
        } ]
      },
      "component": [ {
        "code": {
          "coding": [ {
            "system": "http://loinc.org",
            "code": "96912-1",
            "display": "Calculated CT global noise"
          } ]
        },
        "valueQuantity": {
          "value": 28,
          "unit": "[hnsf'U]",
          "system": "http://unitsofmeasure.org",
          "code": "[hnsf'U]"
        }
      }, {
        "code": {
          "coding": [ {
            "system": "http://loinc.org",
            "code": "96913-9",
            "display": "Calculated CT size-adjusted dose"
          } ]
        },
        "valueQuantity": {
          "value": 1259,
          "unit": "mGy.cm",
          "system": "http://unitsofmeasure.org",
          "code": "mGy.cm"
        }
      } ]
    },
    "request": {
      "method": "PUT",
      "url": "Observation/46beeb85-dc18-4d92-9e45-ea4d8da0b549"
    }
  }, {
    "fullUrl": "https://madie.cms.gov/Observation/ffa82264-cb93-49b6-93a7-963b9d459f4a",
    "resource": {
      "resourceType": "Observation",
      "id": "ffa82264-cb93-49b6-93a7-963b9d459f4a",
      "meta": {
        "profile": [ "http://hl7.org/fhir/us/qicore/StructureDefinition/qicore-observation" ]
      },
      "status": "final",
      "category": [ {
        "coding": [ {
          "system": "http://terminology.hl7.org/CodeSystem/observation-category",
          "code": "imaging",
          "display": "Imaging"
        } ]
      } ],
      "code": {
        "coding": [ {
          "system": "http://loinc.org",
          "code": "96914-7",
          "display": "CT dose and image quality category"
        } ],
        "text": "CT dose and image quality category"
      },
      "subject": {
        "reference": "Patient/bb32779d-4c41-4113-85af-e534298c4579"
      },
      "effectiveDateTime": "2025-01-02T00:00:00.000Z",
      "valueCodeableConcept": {
        "coding": [ {
          "system": "http://loinc.org",
          "code": "LA31755-4",
          "display": "Cardiac Low Dose"
        } ]
      },
      "component": [ {
        "code": {
          "coding": [ {
            "system": "http://loinc.org",
            "code": "96912-1",
            "display": "Calculated CT global noise"
          } ]
        },
        "valueQuantity": {
          "value": 54,
          "unit": "[hnsf'U]",
          "system": "http://unitsofmeasure.org",
          "code": "[hnsf'U]"
        }
      }, {
        "code": {
          "coding": [ {
            "system": "http://loinc.org",
            "code": "96913-9",
            "display": "Calculated CT size-adjusted dose"
          } ]
        },
        "valueQuantity": {
          "value": 92,
          "unit": "mGy.cm",
          "system": "http://unitsofmeasure.org",
          "code": "mGy.cm"
        }
      } ]
    },
    "request": {
      "method": "PUT",
      "url": "Observation/ffa82264-cb93-49b6-93a7-963b9d459f4a"
    }
  }, {
    "fullUrl": "https://madie.cms.gov/Observation/383f7050-e262-4846-b172-eb545b471206",
    "resource": {
      "resourceType": "Observation",
      "id": "383f7050-e262-4846-b172-eb545b471206",
      "meta": {
        "profile": [ "http://hl7.org/fhir/us/qicore/StructureDefinition/qicore-observation" ]
      },
      "status": "final",
      "category": [ {
        "coding": [ {
          "system": "http://terminology.hl7.org/CodeSystem/observation-category",
          "code": "imaging",
          "display": "Imaging"
        } ]
      } ],
      "code": {
        "coding": [ {
          "system": "http://loinc.org",
          "code": "96914-7",
          "display": "CT dose and image quality category"
        } ],
        "text": "CT dose and image quality category"
      },
      "subject": {
        "reference": "Patient/bb32779d-4c41-4113-85af-e534298c4579"
      },
      "effectiveDateTime": "2025-01-02T00:00:00.000Z",
      "valueCodeableConcept": {
        "coding": [ {
          "system": "http://loinc.org",
          "code": "LA31756-2",
          "display": "Cardiac Routine Dose"
        } ]
      },
      "component": [ {
        "code": {
          "coding": [ {
            "system": "http://loinc.org",
            "code": "96912-1",
            "display": "Calculated CT global noise"
          } ]
        },
        "valueQuantity": {
          "value": 31,
          "unit": "[hnsf'U]",
          "system": "http://unitsofmeasure.org",
          "code": "[hnsf'U]"
        }
      }, {
        "code": {
          "coding": [ {
            "system": "http://loinc.org",
            "code": "96913-9",
            "display": "Calculated CT size-adjusted dose"
          } ]
        },
        "valueQuantity": {
          "value": 575,
          "unit": "mGy.cm",
          "system": "http://unitsofmeasure.org",
          "code": "mGy.cm"
        }
      } ]
    },
    "request": {
      "method": "PUT",
      "url": "Observation/383f7050-e262-4846-b172-eb545b471206"
    }
  }, {
    "fullUrl": "https://madie.cms.gov/Observation/150b9e4b-1398-476e-82d0-0fa2cec5ea92",
    "resource": {
      "resourceType": "Observation",
      "id": "150b9e4b-1398-476e-82d0-0fa2cec5ea92",
      "meta": {
        "profile": [ "http://hl7.org/fhir/us/qicore/StructureDefinition/qicore-observation" ]
      },
      "status": "final",
      "category": [ {
        "coding": [ {
          "system": "http://terminology.hl7.org/CodeSystem/observation-category",
          "code": "imaging",
          "display": "Imaging"
        } ]
      } ],
      "code": {
        "coding": [ {
          "system": "http://loinc.org",
          "code": "96914-7",
          "display": "CT dose and image quality category"
        } ],
        "text": "CT dose and image quality category"
      },
      "subject": {
        "reference": "Patient/bb32779d-4c41-4113-85af-e534298c4579"
      },
      "effectiveDateTime": "2025-01-02T00:00:00.000Z",
      "valueCodeableConcept": {
        "coding": [ {
          "system": "http://loinc.org",
          "code": "LA31758-8",
          "display": "Chest Low Dose"
        } ]
      },
      "component": [ {
        "code": {
          "coding": [ {
            "system": "http://loinc.org",
            "code": "96912-1",
            "display": "Calculated CT global noise"
          } ]
        },
        "valueQuantity": {
          "value": 54,
          "unit": "[hnsf'U]",
          "system": "http://unitsofmeasure.org",
          "code": "[hnsf'U]"
        }
      }, {
        "code": {
          "coding": [ {
            "system": "http://loinc.org",
            "code": "96913-9",
            "display": "Calculated CT size-adjusted dose"
          } ]
        },
        "valueQuantity": {
          "value": 376,
          "unit": "mGy.cm",
          "system": "http://unitsofmeasure.org",
          "code": "mGy.cm"
        }
      } ]
    },
    "request": {
      "method": "PUT",
      "url": "Observation/150b9e4b-1398-476e-82d0-0fa2cec5ea92"
    }
  }, {
    "fullUrl": "https://madie.cms.gov/Observation/a4150cfd-fac1-4dfa-914e-b81005589da7",
    "resource": {
      "resourceType": "Observation",
      "id": "a4150cfd-fac1-4dfa-914e-b81005589da7",
      "meta": {
        "profile": [ "http://hl7.org/fhir/us/qicore/StructureDefinition/qicore-observation" ]
      },
      "status": "final",
      "category": [ {
        "coding": [ {
          "system": "http://terminology.hl7.org/CodeSystem/observation-category",
          "code": "imaging",
          "display": "Imaging"
        } ]
      } ],
      "code": {
        "coding": [ {
          "system": "http://loinc.org",
          "code": "96914-7",
          "display": "CT dose and image quality category"
        } ],
        "text": "CT dose and image quality category"
      },
      "subject": {
        "reference": "Patient/bb32779d-4c41-4113-85af-e534298c4579"
      },
      "effectiveDateTime": "2025-01-02T00:00:00.000Z",
      "valueCodeableConcept": {
        "coding": [ {
          "system": "http://loinc.org",
          "code": "LA31759-6",
          "display": "Chest Routine Dose"
        } ]
      },
      "component": [ {
        "code": {
          "coding": [ {
            "system": "http://loinc.org",
            "code": "96912-1",
            "display": "Calculated CT global noise"
          } ]
        },
        "valueQuantity": {
          "value": 48,
          "unit": "[hnsf'U]",
          "system": "http://unitsofmeasure.org",
          "code": "[hnsf'U]"
        }
      }, {
        "code": {
          "coding": [ {
            "system": "http://loinc.org",
            "code": "96913-9",
            "display": "Calculated CT size-adjusted dose"
          } ]
        },
        "valueQuantity": {
          "value": 376,
          "unit": "mGy.cm",
          "system": "http://unitsofmeasure.org",
          "code": "mGy.cm"
        }
      } ]
    },
    "request": {
      "method": "PUT",
      "url": "Observation/a4150cfd-fac1-4dfa-914e-b81005589da7"
    }
  }, {
    "fullUrl": "https://madie.cms.gov/Observation/531bdcc3-e822-4715-be98-be25f3ff0643",
    "resource": {
      "resourceType": "Observation",
      "id": "531bdcc3-e822-4715-be98-be25f3ff0643",
      "meta": {
        "profile": [ "http://hl7.org/fhir/us/qicore/StructureDefinition/qicore-observation" ]
      },
      "status": "final",
      "category": [ {
        "coding": [ {
          "system": "http://terminology.hl7.org/CodeSystem/observation-category",
          "code": "imaging",
          "display": "Imaging"
        } ]
      } ],
      "code": {
        "coding": [ {
          "system": "http://loinc.org",
          "code": "96914-7",
          "display": "CT dose and image quality category"
        } ],
        "text": "CT dose and image quality category"
      },
      "subject": {
        "reference": "Patient/bb32779d-4c41-4113-85af-e534298c4579"
      },
      "effectiveDateTime": "2025-01-02T00:00:00.000Z",
      "valueCodeableConcept": {
        "coding": [ {
          "system": "http://loinc.org",
          "code": "LA31761-2",
          "display": "Cardiac High Dose or Chest High Dose"
        } ]
      },
      "component": [ {
        "code": {
          "coding": [ {
            "system": "http://loinc.org",
            "code": "96912-1",
            "display": "Calculated CT global noise"
          } ]
        },
        "valueQuantity": {
          "value": 48,
          "unit": "[hnsf'U]",
          "system": "http://unitsofmeasure.org",
          "code": "[hnsf'U]"
        }
      }, {
        "code": {
          "coding": [ {
            "system": "http://loinc.org",
            "code": "96913-9",
            "display": "Calculated CT size-adjusted dose"
          } ]
        },
        "valueQuantity": {
          "value": 1281,
          "unit": "mGy.cm",
          "system": "http://unitsofmeasure.org",
          "code": "mGy.cm"
        }
      } ]
    },
    "request": {
      "method": "PUT",
      "url": "Observation/531bdcc3-e822-4715-be98-be25f3ff0643"
    }
  }, {
    "fullUrl": "https://madie.cms.gov/Observation/798ee31a-3783-4e34-a0c2-173c6e6e08da",
    "resource": {
      "resourceType": "Observation",
      "id": "798ee31a-3783-4e34-a0c2-173c6e6e08da",
      "meta": {
        "profile": [ "http://hl7.org/fhir/us/qicore/StructureDefinition/qicore-observation" ]
      },
      "status": "final",
      "category": [ {
        "coding": [ {
          "system": "http://terminology.hl7.org/CodeSystem/observation-category",
          "code": "imaging",
          "display": "Imaging"
        } ]
      } ],
      "code": {
        "coding": [ {
          "system": "http://loinc.org",
          "code": "96914-7",
          "display": "CT dose and image quality category"
        } ],
        "text": "CT dose and image quality category"
      },
      "subject": {
        "reference": "Patient/bb32779d-4c41-4113-85af-e534298c4579"
      },
      "effectiveDateTime": "2025-01-02T00:00:00.000Z",
      "valueCodeableConcept": {
        "coding": [ {
          "system": "http://loinc.org",
          "code": "LA31762-0",
          "display": "Head Low Dose"
        } ]
      },
      "component": [ {
        "code": {
          "coding": [ {
            "system": "http://loinc.org",
            "code": "96912-1",
            "display": "Calculated CT global noise"
          } ]
        },
        "valueQuantity": {
          "value": 114,
          "unit": "[hnsf'U]",
          "system": "http://unitsofmeasure.org",
          "code": "[hnsf'U]"
        }
      }, {
        "code": {
          "coding": [ {
            "system": "http://loinc.org",
            "code": "96913-9",
            "display": "Calculated CT size-adjusted dose"
          } ]
        },
        "valueQuantity": {
          "value": 581,
          "unit": "mGy.cm",
          "system": "http://unitsofmeasure.org",
          "code": "mGy.cm"
        }
      } ]
    },
    "request": {
      "method": "PUT",
      "url": "Observation/798ee31a-3783-4e34-a0c2-173c6e6e08da"
    }
  }, {
    "fullUrl": "https://madie.cms.gov/Observation/f3929562-ef91-4a94-90d5-7df0718b3425",
    "resource": {
      "resourceType": "Observation",
      "id": "f3929562-ef91-4a94-90d5-7df0718b3425",
      "meta": {
        "profile": [ "http://hl7.org/fhir/us/qicore/StructureDefinition/qicore-observation" ]
      },
      "status": "final",
      "category": [ {
        "coding": [ {
          "system": "http://terminology.hl7.org/CodeSystem/observation-category",
          "code": "imaging",
          "display": "Imaging"
        } ]
      } ],
      "code": {
        "coding": [ {
          "system": "http://loinc.org",
          "code": "96914-7",
          "display": "CT dose and image quality category"
        } ],
        "text": "CT dose and image quality category"
      },
      "subject": {
        "reference": "Patient/bb32779d-4c41-4113-85af-e534298c4579"
      },
      "effectiveDateTime": "2025-01-02T00:00:00.000Z",
      "valueCodeableConcept": {
        "coding": [ {
          "system": "http://loinc.org",
          "code": "LA31763-8",
          "display": "Head Routine Dose"
        } ]
      },
      "component": [ {
        "code": {
          "coding": [ {
            "system": "http://loinc.org",
            "code": "96912-1",
            "display": "Calculated CT global noise"
          } ]
        },
        "valueQuantity": {
          "value": 114,
          "unit": "[hnsf'U]",
          "system": "http://unitsofmeasure.org",
          "code": "[hnsf'U]"
        }
      }, {
        "code": {
          "coding": [ {
            "system": "http://loinc.org",
            "code": "96913-9",
            "display": "Calculated CT size-adjusted dose"
          } ]
        },
        "valueQuantity": {
          "value": 1024,
          "unit": "mGy.cm",
          "system": "http://unitsofmeasure.org",
          "code": "mGy.cm"
        }
      } ]
    },
    "request": {
      "method": "PUT",
      "url": "Observation/f3929562-ef91-4a94-90d5-7df0718b3425"
    }
  }, {
    "fullUrl": "https://madie.cms.gov/Observation/59bab13f-196e-4608-a99c-78a1ca40e6dd",
    "resource": {
      "resourceType": "Observation",
      "id": "59bab13f-196e-4608-a99c-78a1ca40e6dd",
      "meta": {
        "profile": [ "http://hl7.org/fhir/us/qicore/StructureDefinition/qicore-observation" ]
      },
      "status": "final",
      "category": [ {
        "coding": [ {
          "system": "http://terminology.hl7.org/CodeSystem/observation-category",
          "code": "imaging",
          "display": "Imaging"
        } ]
      } ],
      "code": {
        "coding": [ {
          "system": "http://loinc.org",
          "code": "96914-7",
          "display": "CT dose and image quality category"
        } ],
        "text": "CT dose and image quality category"
      },
      "subject": {
        "reference": "Patient/bb32779d-4c41-4113-85af-e534298c4579"
      },
      "effectiveDateTime": "2025-01-02T00:00:00.000Z",
      "valueCodeableConcept": {
        "coding": [ {
          "system": "http://loinc.org",
          "code": "LA31764-6",
          "display": "Head High Dose"
        } ]
      },
      "component": [ {
        "code": {
          "coding": [ {
            "system": "http://loinc.org",
            "code": "96912-1",
            "display": "Calculated CT global noise"
          } ]
        },
        "valueQuantity": {
          "value": 114,
          "unit": "[hnsf'U]",
          "system": "http://unitsofmeasure.org",
          "code": "[hnsf'U]"
        }
      }, {
        "code": {
          "coding": [ {
            "system": "http://loinc.org",
            "code": "96913-9",
            "display": "Calculated CT size-adjusted dose"
          } ]
        },
        "valueQuantity": {
          "value": 1024,
          "unit": "mGy.cm",
          "system": "http://unitsofmeasure.org",
          "code": "mGy.cm"
        }
      } ]
    },
    "request": {
      "method": "PUT",
      "url": "Observation/59bab13f-196e-4608-a99c-78a1ca40e6dd"
    }
  }, {
    "fullUrl": "https://madie.cms.gov/Observation/9a25e8f1-8047-4adb-9672-e99893757904",
    "resource": {
      "resourceType": "Observation",
      "id": "9a25e8f1-8047-4adb-9672-e99893757904",
      "meta": {
        "profile": [ "http://hl7.org/fhir/us/qicore/StructureDefinition/qicore-observation" ]
      },
      "status": "final",
      "category": [ {
        "coding": [ {
          "system": "http://terminology.hl7.org/CodeSystem/observation-category",
          "code": "imaging",
          "display": "Imaging"
        } ]
      } ],
      "code": {
        "coding": [ {
          "system": "http://loinc.org",
          "code": "96914-7",
          "display": "CT dose and image quality category"
        } ],
        "text": "CT dose and image quality category"
      },
      "subject": {
        "reference": "Patient/bb32779d-4c41-4113-85af-e534298c4579"
      },
      "effectiveDateTime": "2025-01-02T00:00:00.000Z",
      "valueCodeableConcept": {
        "coding": [ {
          "system": "http://loinc.org",
          "code": "LA31765-3",
          "display": "Extremity"
        } ]
      },
      "component": [ {
        "code": {
          "coding": [ {
            "system": "http://loinc.org",
            "code": "96912-1",
            "display": "Calculated CT global noise"
          } ]
        },
        "valueQuantity": {
          "value": 72,
          "unit": "[hnsf'U]",
          "system": "http://unitsofmeasure.org",
          "code": "[hnsf'U]"
        }
      }, {
        "code": {
          "coding": [ {
            "system": "http://loinc.org",
            "code": "96913-9",
            "display": "Calculated CT size-adjusted dose"
          } ]
        },
        "valueQuantity": {
          "value": 319,
          "unit": "mGy.cm",
          "system": "http://unitsofmeasure.org",
          "code": "mGy.cm"
        }
      } ]
    },
    "request": {
      "method": "PUT",
      "url": "Observation/9a25e8f1-8047-4adb-9672-e99893757904"
    }
  }, {
    "fullUrl": "https://madie.cms.gov/Observation/910ca287-a12f-4bd0-ac6e-88d89581fb2f",
    "resource": {
      "resourceType": "Observation",
      "id": "910ca287-a12f-4bd0-ac6e-88d89581fb2f",
      "meta": {
        "profile": [ "http://hl7.org/fhir/us/qicore/StructureDefinition/qicore-observation" ]
      },
      "status": "final",
      "category": [ {
        "coding": [ {
          "system": "http://terminology.hl7.org/CodeSystem/observation-category",
          "code": "imaging",
          "display": "Imaging"
        } ]
      } ],
      "code": {
        "coding": [ {
          "system": "http://loinc.org",
          "code": "96914-7",
          "display": "CT dose and image quality category"
        } ],
        "text": "CT dose and image quality category"
      },
      "subject": {
        "reference": "Patient/bb32779d-4c41-4113-85af-e534298c4579"
      },
      "effectiveDateTime": "2025-01-02T00:00:00.000Z",
      "valueCodeableConcept": {
        "coding": [ {
          "system": "http://loinc.org",
          "code": "LA31766-1",
          "display": "Neck or Cervical Spine"
        } ]
      },
      "component": [ {
        "code": {
          "coding": [ {
            "system": "http://loinc.org",
            "code": "96912-1",
            "display": "Calculated CT global noise"
          } ]
        },
        "valueQuantity": {
          "value": 24,
          "unit": "[hnsf'U]",
          "system": "http://unitsofmeasure.org",
          "code": "[hnsf'U]"
        }
      }, {
        "code": {
          "coding": [ {
            "system": "http://loinc.org",
            "code": "96913-9",
            "display": "Calculated CT size-adjusted dose"
          } ]
        },
        "valueQuantity": {
          "value": 1259,
          "unit": "mGy.cm",
          "system": "http://unitsofmeasure.org",
          "code": "mGy.cm"
        }
      } ]
    },
    "request": {
      "method": "PUT",
      "url": "Observation/910ca287-a12f-4bd0-ac6e-88d89581fb2f"
    }
  }, {
    "fullUrl": "https://madie.cms.gov/Observation/c3f8d1db-3e43-471a-ad57-0a1ddce51cbe",
    "resource": {
      "resourceType": "Observation",
      "id": "c3f8d1db-3e43-471a-ad57-0a1ddce51cbe",
      "meta": {
        "profile": [ "http://hl7.org/fhir/us/qicore/StructureDefinition/qicore-observation" ]
      },
      "status": "final",
      "category": [ {
        "coding": [ {
          "system": "http://terminology.hl7.org/CodeSystem/observation-category",
          "code": "imaging",
          "display": "Imaging"
        } ]
      } ],
      "code": {
        "coding": [ {
          "system": "http://loinc.org",
          "code": "96914-7",
          "display": "CT dose and image quality category"
        } ],
        "text": "CT dose and image quality category"
      },
      "subject": {
        "reference": "Patient/bb32779d-4c41-4113-85af-e534298c4579"
      },
      "effectiveDateTime": "2025-01-02T00:00:00.000Z",
      "valueCodeableConcept": {
        "coding": [ {
          "system": "http://loinc.org",
          "code": "LA31767-9",
          "display": "Thoracic or Lumbar Spine"
        } ]
      },
      "component": [ {
        "code": {
          "coding": [ {
            "system": "http://loinc.org",
            "code": "96912-1",
            "display": "Calculated CT global noise"
          } ]
        },
        "valueQuantity": {
          "value": 24,
          "unit": "[hnsf'U]",
          "system": "http://unitsofmeasure.org",
          "code": "[hnsf'U]"
        }
      }, {
        "code": {
          "coding": [ {
            "system": "http://loinc.org",
            "code": "96913-9",
            "display": "Calculated CT size-adjusted dose"
          } ]
        },
        "valueQuantity": {
          "value": 1259,
          "unit": "mGy.cm",
          "system": "http://unitsofmeasure.org",
          "code": "mGy.cm"
        }
      } ]
    },
    "request": {
      "method": "PUT",
      "url": "Observation/c3f8d1db-3e43-471a-ad57-0a1ddce51cbe"
    }
  }, {
    "fullUrl": "https://madie.cms.gov/Observation/cf96c66d-1d6f-485b-916f-18552deaa26b",
    "resource": {
      "resourceType": "Observation",
      "id": "cf96c66d-1d6f-485b-916f-18552deaa26b",
      "meta": {
        "profile": [ "http://hl7.org/fhir/us/qicore/StructureDefinition/qicore-observation" ]
      },
      "status": "final",
      "category": [ {
        "coding": [ {
          "system": "http://terminology.hl7.org/CodeSystem/observation-category",
          "code": "imaging",
          "display": "Imaging"
        } ]
      } ],
      "code": {
        "coding": [ {
          "system": "http://loinc.org",
          "code": "96914-7",
          "display": "CT dose and image quality category"
        } ],
        "text": "CT dose and image quality category"
      },
      "subject": {
        "reference": "Patient/bb32779d-4c41-4113-85af-e534298c4579"
      },
      "effectiveDateTime": "2025-01-02T00:00:00.000Z",
      "valueCodeableConcept": {
        "coding": [ {
          "system": "http://loinc.org",
          "code": "LA31768-7",
          "display": "Simultaneous Chest and Abdomen and Pelvis"
        } ]
      },
      "component": [ {
        "code": {
          "coding": [ {
            "system": "http://loinc.org",
            "code": "96912-1",
            "display": "Calculated CT global noise"
          } ]
        },
        "valueQuantity": {
          "value": 28,
          "unit": "[hnsf'U]",
          "system": "http://unitsofmeasure.org",
          "code": "[hnsf'U]"
        }
      }, {
        "code": {
          "coding": [ {
            "system": "http://loinc.org",
            "code": "96913-9",
            "display": "Calculated CT size-adjusted dose"
          } ]
        },
        "valueQuantity": {
          "value": 1636,
          "unit": "mGy.cm",
          "system": "http://unitsofmeasure.org",
          "code": "mGy.cm"
        }
      } ]
    },
    "request": {
      "method": "PUT",
      "url": "Observation/cf96c66d-1d6f-485b-916f-18552deaa26b"
    }
  }, {
    "fullUrl": "https://madie.cms.gov/Observation/66878200-3ae4-443b-bd33-22a123bc44ae",
    "resource": {
      "resourceType": "Observation",
      "id": "66878200-3ae4-443b-bd33-22a123bc44ae",
      "meta": {
        "profile": [ "http://hl7.org/fhir/us/qicore/StructureDefinition/qicore-observation" ]
      },
      "status": "final",
      "category": [ {
        "coding": [ {
          "system": "http://terminology.hl7.org/CodeSystem/observation-category",
          "code": "imaging",
          "display": "Imaging"
        } ]
      } ],
      "code": {
        "coding": [ {
          "system": "http://loinc.org",
          "code": "96914-7",
          "display": "CT dose and image quality category"
        } ],
        "text": "CT dose and image quality category"
      },
      "subject": {
        "reference": "Patient/bb32779d-4c41-4113-85af-e534298c4579"
      },
      "effectiveDateTime": "2025-01-02T00:00:00.000Z",
      "valueCodeableConcept": {
        "coding": [ {
          "system": "http://loinc.org",
          "code": "LA31851-1",
          "display": "Simultaneous Thoracic and Lumbar Spine"
        } ]
      },
      "component": [ {
        "code": {
          "coding": [ {
            "system": "http://loinc.org",
            "code": "96912-1",
            "display": "Calculated CT global noise"
          } ]
        },
        "valueQuantity": {
          "value": 24,
          "unit": "[hnsf'U]",
          "system": "http://unitsofmeasure.org",
          "code": "[hnsf'U]"
        }
      }, {
        "code": {
          "coding": [ {
            "system": "http://loinc.org",
            "code": "96913-9",
            "display": "Calculated CT size-adjusted dose"
          } ]
        },
        "valueQuantity": {
          "value": 2519,
          "unit": "mGy.cm",
          "system": "http://unitsofmeasure.org",
          "code": "mGy.cm"
        }
      } ]
    },
    "request": {
      "method": "PUT",
      "url": "Observation/66878200-3ae4-443b-bd33-22a123bc44ae"
    }
  }, {
    "fullUrl": "https://madie.cms.gov/Observation/b1bf9b84-2fd0-48e4-b93c-395c2f1a77e6",
    "resource": {
      "resourceType": "Observation",
      "id": "b1bf9b84-2fd0-48e4-b93c-395c2f1a77e6",
      "meta": {
        "profile": [ "http://hl7.org/fhir/us/qicore/StructureDefinition/qicore-observation" ]
      },
      "status": "final",
      "category": [ {
        "coding": [ {
          "system": "http://terminology.hl7.org/CodeSystem/observation-category",
          "code": "imaging",
          "display": "Imaging"
        } ]
      } ],
      "code": {
        "coding": [ {
          "system": "http://loinc.org",
          "code": "96914-7",
          "display": "CT dose and image quality category"
        } ],
        "text": "CT dose and image quality category"
      },
      "subject": {
        "reference": "Patient/bb32779d-4c41-4113-85af-e534298c4579"
      },
      "effectiveDateTime": "2025-01-02T00:00:00.000Z",
      "valueCodeableConcept": {
        "coding": [ {
          "system": "http://loinc.org",
          "code": "LA31769-5",
          "display": "Simultaneous Head and Neck Routine Dose"
        } ]
      },
      "component": [ {
        "code": {
          "coding": [ {
            "system": "http://loinc.org",
            "code": "96912-1",
            "display": "Calculated CT global noise"
          } ]
        },
        "valueQuantity": {
          "value": 24,
          "unit": "[hnsf'U]",
          "system": "http://unitsofmeasure.org",
          "code": "[hnsf'U]"
        }
      }, {
        "code": {
          "coding": [ {
            "system": "http://loinc.org",
            "code": "96913-9",
            "display": "Calculated CT size-adjusted dose"
          } ]
        },
        "valueQuantity": {
          "value": 2284,
          "unit": "mGy.cm",
          "system": "http://unitsofmeasure.org",
          "code": "mGy.cm"
        }
      } ]
    },
    "request": {
      "method": "PUT",
      "url": "Observation/b1bf9b84-2fd0-48e4-b93c-395c2f1a77e6"
    }
  }, {
    "fullUrl": "https://madie.cms.gov/Observation/78c6aaaf-9dfa-49da-b450-333788b15f6d",
    "resource": {
      "resourceType": "Observation",
      "id": "78c6aaaf-9dfa-49da-b450-333788b15f6d",
      "meta": {
        "profile": [ "http://hl7.org/fhir/us/qicore/StructureDefinition/qicore-observation" ]
      },
      "status": "final",
      "category": [ {
        "coding": [ {
          "system": "http://terminology.hl7.org/CodeSystem/observation-category",
          "code": "imaging",
          "display": "Imaging"
        } ]
      } ],
      "code": {
        "coding": [ {
          "system": "http://loinc.org",
          "code": "96914-7",
          "display": "CT dose and image quality category"
        } ],
        "text": "CT dose and image quality category"
      },
      "subject": {
        "reference": "Patient/bb32779d-4c41-4113-85af-e534298c4579"
      },
      "effectiveDateTime": "2025-01-02T00:00:00.000Z",
      "valueCodeableConcept": {
        "coding": [ {
          "system": "http://loinc.org",
          "code": "LA31770-3",
          "display": "Simultaneous Head and Neck High Dose"
        } ]
      },
      "component": [ {
        "code": {
          "coding": [ {
            "system": "http://loinc.org",
            "code": "96912-1",
            "display": "Calculated CT global noise"
          } ]
        },
        "valueQuantity": {
          "value": 24,
          "unit": "[hnsf'U]",
          "system": "http://unitsofmeasure.org",
          "code": "[hnsf'U]"
        }
      }, {
        "code": {
          "coding": [ {
            "system": "http://loinc.org",
            "code": "96913-9",
            "display": "Calculated CT size-adjusted dose"
          } ]
        },
        "valueQuantity": {
          "value": 3091,
          "unit": "mGy.cm",
          "system": "http://unitsofmeasure.org",
          "code": "mGy.cm"
        }
      } ]
    },
    "request": {
      "method": "PUT",
      "url": "Observation/78c6aaaf-9dfa-49da-b450-333788b15f6d"
    }
  }, {
    "fullUrl": "https://madie.cms.gov/MeasureReport/0f5a7ea0-dabf-4900-8a01-b8ab3c5a41eb",
    "resource": {
      "resourceType": "MeasureReport",
      "id": "0f5a7ea0-dabf-4900-8a01-b8ab3c5a41eb",
      "meta": {
        "profile": [ "http://hl7.org/fhir/us/cqfmeasures/StructureDefinition/test-case-cqfm" ]
      },
      "contained": [ {
        "resourceType": "Parameters",
        "id": "312fddff-7a0d-467d-8086-6894c9e170fb-parameters",
        "parameter": [ {
          "name": "subject",
          "valueString": "bb32779d-4c41-4113-85af-e534298c4579"
        } ]
      } ],
      "extension": [ {
        "url": "http://hl7.org/fhir/us/cqfmeasures/StructureDefinition/cqfm-inputParameters",
        "valueReference": {
          "reference": "#312fddff-7a0d-467d-8086-6894c9e170fb-parameters"
        }
      }, {
        "url": "http://hl7.org/fhir/us/cqfmeasures/StructureDefinition/cqfm-testCaseDescription",
        "valueMarkdown": "Patient has one of each valid type of CT Scan with good results"
      } ],
      "modifierExtension": [ {
        "url": "http://hl7.org/fhir/us/cqfmeasures/StructureDefinition/cqfm-isTestCase",
        "valueBoolean": true
      } ],
      "status": "complete",
      "type": "individual",
      "measure": "https://madie.cms.gov/Measure/AlaraCTClinicalFHIR",
      "period": {
        "start": "2025-01-01",
        "end": "2025-12-31"
      },
      "group": [ {
        "population": [ {
          "code": {
            "coding": [ {
              "system": "http://terminology.hl7.org/CodeSystem/measure-population",
              "code": "initial-population",
              "display": "Initial Population"
            } ]
          },
          "count": 1
        }, {
          "code": {
            "coding": [ {
              "system": "http://terminology.hl7.org/CodeSystem/measure-population",
              "code": "denominator",
              "display": "Denominator"
            } ]
          },
          "count": 1
        }, {
          "code": {
            "coding": [ {
              "system": "http://terminology.hl7.org/CodeSystem/measure-population",
              "code": "denominator-exclusion",
              "display": "Denominator Exclusion"
            } ]
          },
          "count": 0
        }, {
          "code": {
            "coding": [ {
              "system": "http://terminology.hl7.org/CodeSystem/measure-population",
              "code": "numerator",
              "display": "Numerator"
            } ]
          },
          "count": 0
        } ]
      } ],
      "evaluatedResource": [ {
        "reference": "Patient/bb32779d-4c41-4113-85af-e534298c4579"
      }, {
        "reference": "Observation/c027b08c-c913-499f-9230-e7c2b3593d0d"
      }, {
        "reference": "Observation/ee05358c-be01-45b2-bc44-03bc26624367"
      }, {
        "reference": "Observation/46beeb85-dc18-4d92-9e45-ea4d8da0b549"
      }, {
        "reference": "Observation/ffa82264-cb93-49b6-93a7-963b9d459f4a"
      }, {
        "reference": "Observation/383f7050-e262-4846-b172-eb545b471206"
      }, {
        "reference": "Observation/150b9e4b-1398-476e-82d0-0fa2cec5ea92"
      }, {
        "reference": "Observation/a4150cfd-fac1-4dfa-914e-b81005589da7"
      }, {
        "reference": "Observation/531bdcc3-e822-4715-be98-be25f3ff0643"
      }, {
        "reference": "Observation/798ee31a-3783-4e34-a0c2-173c6e6e08da"
      }, {
        "reference": "Observation/f3929562-ef91-4a94-90d5-7df0718b3425"
      }, {
        "reference": "Observation/59bab13f-196e-4608-a99c-78a1ca40e6dd"
      }, {
        "reference": "Observation/9a25e8f1-8047-4adb-9672-e99893757904"
      }, {
        "reference": "Observation/910ca287-a12f-4bd0-ac6e-88d89581fb2f"
      }, {
        "reference": "Observation/c3f8d1db-3e43-471a-ad57-0a1ddce51cbe"
      }, {
        "reference": "Observation/cf96c66d-1d6f-485b-916f-18552deaa26b"
      }, {
        "reference": "Observation/66878200-3ae4-443b-bd33-22a123bc44ae"
      }, {
        "reference": "Observation/b1bf9b84-2fd0-48e4-b93c-395c2f1a77e6"
      }, {
        "reference": "Observation/78c6aaaf-9dfa-49da-b450-333788b15f6d"
      } ]
    },
    "request": {
      "method": "PUT",
      "url": "MeasureReport/0f5a7ea0-dabf-4900-8a01-b8ab3c5a41eb"
    }
  } ]
}