{"resourceType":"Bundle","id":"tests-b621464f-6e8d-4a28-b5a9-ec0178cf33ae-bundle","type":"transaction","entry":[{"fullUrl":"https://madie.cms.gov/Patient/b621464f-6e8d-4a28-b5a9-ec0178cf33ae","resource":{"resourceType":"Patient","id":"b621464f-6e8d-4a28-b5a9-ec0178cf33ae","meta":{"profile":["http://hl7.org/fhir/us/qicore/StructureDefinition/qicore-patient"]},"text":{"status":"generated","div":"<div xmlns=\"http://www.w3.org/1999/xhtml\"><div class=\"hapiHeaderText\">DA_GCS_OnAnesEndTime_EncStartTime <b>NUMERPASS </b></div><table class=\"hapiPropertyTable\"><tbody><tr><td>Identifier</td><td>1f0dc9e293f324a804fb829ef6a3a35d</td></tr><tr><td>Date of birth</td><td><span>02 January 1974</span></td></tr></tbody></table></div>"},"extension":[{"url":"http://hl7.org/fhir/us/core/StructureDefinition/us-core-race","extension":[{"url":"ombCategory","valueCoding":{"system":"urn:oid:2.16.840.1.113883.6.238","code":"1002-5","display":"American Indian or Alaska Native","userSelected":true}},{"url":"text","valueString":"American Indian or Alaska Native"}]},{"url":"http://hl7.org/fhir/us/core/StructureDefinition/us-core-ethnicity","extension":[{"url":"ombCategory","valueCoding":{"system":"urn:oid:2.16.840.1.113883.6.238","code":"2135-2","display":"Hispanic or Latino","userSelected":true}},{"url":"text","valueString":"Hispanic or Latino"}]}],"identifier":[{"type":{"coding":[{"system":"http://terminology.hl7.org/CodeSystem/v2-0203","code":"MR"}]},"system":"https://bonnie-fhir.healthit.gov/","value":"612e6ad302c62a011f2eb5b5"}],"active":true,"name":[{"use":"usual","family":"NUMERPass","given":["DA_GCS_OnAnesEndTime_EncStartTime"]}],"gender":"male","birthDate":"1974-01-02"},"request":{"method":"PUT","url":"Patient/b621464f-6e8d-4a28-b5a9-ec0178cf33ae"}},{"fullUrl":"https://madie.cms.gov/Encounter/5ca62963b8484628b8de1ee7","resource":{"resourceType":"Encounter","id":"273350f8-5be2-460b-ad4b-d731343123bd","meta":{"profile":["http://hl7.org/fhir/us/qicore/StructureDefinition/qicore-encounter"]},"status":"finished","class":{"system":"http://terminology.hl7.org/CodeSystem/v3-ActCode","code":"IMP","display":"inpatient encounter"},"type":[{"coding":[{"system":"http://snomed.info/sct","code":"8715000"}]}],"subject":{"reference":"Patient/b621464f-6e8d-4a28-b5a9-ec0178cf33ae"},"period":{"start":"2025-11-01T09:15:00+00:00","end":"2025-11-26T08:15:00+00:00"},"length":{"value":25.0,"unit":"days"}},"request":{"method":"PUT","url":"Encounter/273350f8-5be2-460b-ad4b-d731343123bd"}},{"fullUrl":"https://madie.cms.gov/Coverage/5fa041601c76ba66d9959301","resource":{"resourceType":"Coverage","id":"f92c7790-fde8-4037-9833-338f1f450c40","status":"active","beneficiary":{"reference":"Patient/b621464f-6e8d-4a28-b5a9-ec0178cf33ae"},"period":{"start":"1974-01-02T08:00:00+00:00"},"payor":[{"reference":"Organization/26111c91-b0e2-476c-a20b-e3f39799f8f5"}]},"request":{"method":"PUT","url":"Coverage/f92c7790-fde8-4037-9833-338f1f450c40"}},{"fullUrl":"https://madie.cms.gov/Procedure/5ca62963b8484628b8de1ee9","resource":{"resourceType":"Procedure","id":"d3cf59eb-8ad2-4e54-b2e9-4bebb9b84505","meta":{"profile":["http://hl7.org/fhir/us/qicore/StructureDefinition/qicore-procedure"]},"extension":[{"url":"http://hl7.org/fhir/us/qicore/StructureDefinition/qicore-recorded","valueDateTime":"2012-11-01T09:35:00-04:00"}],"status":"completed","code":{"coding":[{"system":"http://snomed.info/sct","code":"18946005"}]},"subject":{"reference":"Patient/b621464f-6e8d-4a28-b5a9-ec0178cf33ae"},"performedPeriod":{"start":"2025-11-01T09:00:00+00:00","end":"2025-11-01T09:15:00+00:00"}},"request":{"method":"PUT","url":"Procedure/d3cf59eb-8ad2-4e54-b2e9-4bebb9b84505"}},{"fullUrl":"https://madie.cms.gov/Procedure/device-application-f801","resource":{"resourceType":"Procedure","id":"98a4d197-f12a-4caa-afac-6ec2c027b00d","meta":{"profile":["http://hl7.org/fhir/us/qicore/StructureDefinition/qicore-procedure"]},"extension":[{"url":"http://hl7.org/fhir/us/qicore/StructureDefinition/qicore-recorded","valueDateTime":"2012-11-01T09:35:00-04:00"}],"status":"completed","code":{"coding":[{"system":"http://snomed.info/sct","code":"229511001","display":"Application of graduated compression garment (procedure)","userSelected":true}]},"subject":{"reference":"Patient/b621464f-6e8d-4a28-b5a9-ec0178cf33ae"},"performedDateTime":"2025-11-01T09:15:00.000+00:00"},"request":{"method":"PUT","url":"Procedure/98a4d197-f12a-4caa-afac-6ec2c027b00d"}},{"fullUrl":"https://madie.cms.gov/Organization/123456","resource":{"resourceType":"Organization","id":"26111c91-b0e2-476c-a20b-e3f39799f8f5","meta":{"profile":["http://hl7.org/fhir/us/qicore/StructureDefinition/qicore-organization"]},"identifier":[{"use":"temp","system":"urn:oid:2.16.840.1.113883.4.4","value":"21-3259825"}],"active":true,"type":[{"coding":[{"system":"http://terminology.hl7.org/CodeSystem/organization-type","code":"pay","display":"Payer"}]}],"name":"Blue Cross Blue Shield of Texas","telecom":[{"system":"phone","value":"(+1) 972-766-6900"}],"address":[{"use":"billing","type":"postal","line":["P.O. Box 660044"],"city":"Dallas","state":"TX","postalCode":"75266-0044","country":"USA"}]},"request":{"method":"PUT","url":"Organization/26111c91-b0e2-476c-a20b-e3f39799f8f5"}},{"fullUrl":"https://madie.cms.gov/Practitioner/practitioner-123456","resource":{"resourceType":"Practitioner","id":"b00a920f-2bdf-41c8-8be2-2e7297894989","identifier":[{"system":"http://hl7.org/fhir/sid/us-npi","value":"123456"}],"name":[{"family":"Evil","prefix":["Dr"]}]},"request":{"method":"PUT","url":"Practitioner/b00a920f-2bdf-41c8-8be2-2e7297894989"}},{"fullUrl":"https://madie.cms.gov/MeasureReport/5518e3f8-dd76-4486-b00d-fec55eacb0a3","resource":{"resourceType":"MeasureReport","id":"5518e3f8-dd76-4486-b00d-fec55eacb0a3","meta":{"profile":["http://hl7.org/fhir/us/cqfmeasures/StructureDefinition/test-case-cqfm"]},"contained":[{"resourceType":"Parameters","id":"10f9c3c8-7c50-4d55-a6fb-6e874665f56f-parameters","parameter":[{"name":"subject","valueString":"b621464f-6e8d-4a28-b5a9-ec0178cf33ae"}]}],"extension":[{"url":"http://hl7.org/fhir/us/cqfmeasures/StructureDefinition/cqfm-inputParameters","valueReference":{"reference":"#10f9c3c8-7c50-4d55-a6fb-6e874665f56f-parameters"}},{"url":"http://hl7.org/fhir/us/cqfmeasures/StructureDefinition/cqfm-testCaseDescription","valueMarkdown":"GCS applied concurrent with end of anesthesia, with end of anesthesia concurrent with start of IP Encounter\n"}],"modifierExtension":[{"url":"http://hl7.org/fhir/us/cqfmeasures/StructureDefinition/cqfm-isTestCase","valueBoolean":true}],"status":"complete","type":"individual","measure":"https://madie.cms.gov/Measure/VenousThromboembolismProphylaxisFHIR","period":{"start":"2025-01-01","end":"2025-12-31"},"group":[{"population":[{"code":{"coding":[{"system":"http://terminology.hl7.org/CodeSystem/measure-population","code":"initial-population","display":"Initial Population"}]},"count":1},{"code":{"coding":[{"system":"http://terminology.hl7.org/CodeSystem/measure-population","code":"denominator","display":"Denominator"}]},"count":1},{"code":{"coding":[{"system":"http://terminology.hl7.org/CodeSystem/measure-population","code":"denominator-exclusion","display":"Denominator Exclusion"}]},"count":0},{"code":{"coding":[{"system":"http://terminology.hl7.org/CodeSystem/measure-population","code":"numerator","display":"Numerator"}]},"count":1}]}]},"request":{"method":"PUT","url":"MeasureReport/5518e3f8-dd76-4486-b00d-fec55eacb0a3"}}]}