{"resourceType":"Bundle","id":"tests-a97b19dd-82f7-4b7b-960b-3c8b1101caeb-bundle","type":"transaction","entry":[{"fullUrl":"https://madie.cms.gov/Patient/a97b19dd-82f7-4b7b-960b-3c8b1101caeb","resource":{"resourceType":"Patient","id":"a97b19dd-82f7-4b7b-960b-3c8b1101caeb","meta":{"profile":["http://hl7.org/fhir/us/qicore/StructureDefinition/qicore-patient"]},"text":{"status":"generated","div":"<div xmlns=\"http://www.w3.org/1999/xhtml\"><div class=\"hapiHeaderText\">VTE_RiskAssess_DayOfAnes <b>NUMERPASS </b></div><table class=\"hapiPropertyTable\"><tbody><tr><td>Identifier</td><td>c54dbc364ce913dfe300bd0f00b65409</td></tr><tr><td>Date of birth</td><td><span>02 January 1974</span></td></tr></tbody></table></div>"},"extension":[{"url":"http://hl7.org/fhir/us/core/StructureDefinition/us-core-race","extension":[{"url":"ombCategory","valueCoding":{"system":"urn:oid:2.16.840.1.113883.6.238","code":"1002-5","display":"American Indian or Alaska Native","userSelected":true}},{"url":"text","valueString":"American Indian or Alaska Native"}]},{"url":"http://hl7.org/fhir/us/core/StructureDefinition/us-core-ethnicity","extension":[{"url":"ombCategory","valueCoding":{"system":"urn:oid:2.16.840.1.113883.6.238","code":"2135-2","display":"Hispanic or Latino","userSelected":true}},{"url":"text","valueString":"Hispanic or Latino"}]}],"identifier":[{"type":{"coding":[{"system":"http://terminology.hl7.org/CodeSystem/v2-0203","code":"MR"}]},"system":"https://bonnie-fhir.healthit.gov/","value":"612e6a5f02c62a011f2e9d9d"}],"active":true,"name":[{"use":"usual","family":"NUMERPass","given":["VTE_RiskAssess_DayOfAnes"]}],"gender":"male","birthDate":"1974-01-02"},"request":{"method":"PUT","url":"Patient/a97b19dd-82f7-4b7b-960b-3c8b1101caeb"}},{"fullUrl":"https://madie.cms.gov/Encounter/5ca62963b8484628b8de1f0b","resource":{"resourceType":"Encounter","id":"432566a9-c00f-4d6c-bc18-8505533680e5","meta":{"profile":["http://hl7.org/fhir/us/qicore/StructureDefinition/qicore-encounter"]},"status":"finished","class":{"system":"http://terminology.hl7.org/CodeSystem/v3-ActCode","code":"IMP","display":"inpatient encounter"},"type":[{"coding":[{"system":"http://snomed.info/sct","code":"8715000"}]}],"subject":{"reference":"Patient/a97b19dd-82f7-4b7b-960b-3c8b1101caeb"},"period":{"start":"2025-11-01T08:00:00+00:00","end":"2025-11-26T08:15:00+00:00"},"length":{"value":25.0,"unit":"days"}},"request":{"method":"PUT","url":"Encounter/432566a9-c00f-4d6c-bc18-8505533680e5"}},{"fullUrl":"https://madie.cms.gov/Observation/5ca62963b8484628b8de1f0d","resource":{"resourceType":"Observation","id":"49eaf5f6-2728-4cda-8830-577f09ce4964","meta":{"profile":["http://hl7.org/fhir/us/qicore/StructureDefinition/qicore-observation"]},"status":"final","category":[{"coding":[{"system":"http://terminology.hl7.org/CodeSystem/observation-category","code":"exam","display":"exam"}]}],"code":{"coding":[{"system":"http://loinc.org","code":"72136-5"}]},"subject":{"reference":"Patient/a97b19dd-82f7-4b7b-960b-3c8b1101caeb"},"effectivePeriod":{"start":"2025-11-02T11:00:00+00:00","end":"2025-11-02T11:05:00+00:00"},"valueCodeableConcept":{"coding":[{"system":"http://snomed.info/sct","code":"260362008","display":"Low Risk"}]}},"request":{"method":"PUT","url":"Observation/49eaf5f6-2728-4cda-8830-577f09ce4964"}},{"fullUrl":"https://madie.cms.gov/Coverage/5fa041491c76ba66d9959172","resource":{"resourceType":"Coverage","id":"69147093-8df4-49fb-9ce8-f766b644b756","status":"active","beneficiary":{"reference":"Patient/a97b19dd-82f7-4b7b-960b-3c8b1101caeb"},"period":{"start":"1974-01-02T08:00:00+00:00"},"payor":[{"reference":"Organization/26111c91-b0e2-476c-a20b-e3f39799f8f5"}]},"request":{"method":"PUT","url":"Coverage/69147093-8df4-49fb-9ce8-f766b644b756"}},{"fullUrl":"https://madie.cms.gov/Procedure/5ca62963b8484628b8de1f0c","resource":{"resourceType":"Procedure","id":"a19b1da6-7505-43ed-8b10-20557a846c13","meta":{"profile":["http://hl7.org/fhir/us/qicore/StructureDefinition/qicore-procedure"]},"extension":[{"url":"http://hl7.org/fhir/us/qicore/StructureDefinition/qicore-recorded","valueDateTime":"2025-11-02T09:35:00-04:00"}],"status":"completed","code":{"coding":[{"system":"http://www.icd10data.com/icd10pcs","code":"3E030FZ"},{"system":"http://snomed.info/sct","code":"18946005"}]},"subject":{"reference":"Patient/a97b19dd-82f7-4b7b-960b-3c8b1101caeb"},"performedPeriod":{"start":"2025-11-02T09:00:00+00:00","end":"2025-11-02T09:15:00+00:00"}},"request":{"method":"PUT","url":"Procedure/a19b1da6-7505-43ed-8b10-20557a846c13"}},{"fullUrl":"https://madie.cms.gov/Organization/123456","resource":{"resourceType":"Organization","id":"26111c91-b0e2-476c-a20b-e3f39799f8f5","meta":{"profile":["http://hl7.org/fhir/us/qicore/StructureDefinition/qicore-organization"]},"identifier":[{"use":"temp","system":"urn:oid:2.16.840.1.113883.4.4","value":"21-3259825"}],"active":true,"type":[{"coding":[{"system":"http://terminology.hl7.org/CodeSystem/organization-type","code":"pay","display":"Payer"}]}],"name":"Blue Cross Blue Shield of Texas","telecom":[{"system":"phone","value":"(+1) 972-766-6900"}],"address":[{"use":"billing","type":"postal","line":["P.O. Box 660044"],"city":"Dallas","state":"TX","postalCode":"75266-0044","country":"USA"}]},"request":{"method":"PUT","url":"Organization/26111c91-b0e2-476c-a20b-e3f39799f8f5"}},{"fullUrl":"https://madie.cms.gov/Practitioner/practitioner-123456","resource":{"resourceType":"Practitioner","id":"279da800-75f8-420b-a666-2c068d882c7a","identifier":[{"system":"http://hl7.org/fhir/sid/us-npi","value":"123456"}],"name":[{"family":"Evil","prefix":["Dr"]}]},"request":{"method":"PUT","url":"Practitioner/279da800-75f8-420b-a666-2c068d882c7a"}},{"fullUrl":"https://madie.cms.gov/MeasureReport/089b60d3-e8e0-4a05-a19f-3c714b92f392","resource":{"resourceType":"MeasureReport","id":"089b60d3-e8e0-4a05-a19f-3c714b92f392","meta":{"profile":["http://hl7.org/fhir/us/cqfmeasures/StructureDefinition/test-case-cqfm"]},"contained":[{"resourceType":"Parameters","id":"ca3a7796-8f2f-4489-b08f-02b179749ec1-parameters","parameter":[{"name":"subject","valueString":"a97b19dd-82f7-4b7b-960b-3c8b1101caeb"}]}],"extension":[{"url":"http://hl7.org/fhir/us/cqfmeasures/StructureDefinition/cqfm-inputParameters","valueReference":{"reference":"#ca3a7796-8f2f-4489-b08f-02b179749ec1-parameters"}},{"url":"http://hl7.org/fhir/us/cqfmeasures/StructureDefinition/cqfm-testCaseDescription","valueMarkdown":"risk assessment done on the day of end of anesthesia, result is low risk. Risk Assessment uses effectivePeriod\n"}],"modifierExtension":[{"url":"http://hl7.org/fhir/us/cqfmeasures/StructureDefinition/cqfm-isTestCase","valueBoolean":true}],"status":"complete","type":"individual","measure":"https://madie.cms.gov/Measure/VenousThromboembolismProphylaxisFHIR","period":{"start":"2025-01-01","end":"2025-12-31"},"group":[{"population":[{"code":{"coding":[{"system":"http://terminology.hl7.org/CodeSystem/measure-population","code":"initial-population","display":"Initial Population"}]},"count":1},{"code":{"coding":[{"system":"http://terminology.hl7.org/CodeSystem/measure-population","code":"denominator","display":"Denominator"}]},"count":1},{"code":{"coding":[{"system":"http://terminology.hl7.org/CodeSystem/measure-population","code":"denominator-exclusion","display":"Denominator Exclusion"}]},"count":0},{"code":{"coding":[{"system":"http://terminology.hl7.org/CodeSystem/measure-population","code":"numerator","display":"Numerator"}]},"count":1}]}]},"request":{"method":"PUT","url":"MeasureReport/089b60d3-e8e0-4a05-a19f-3c714b92f392"}}]}