{"resourceType":"Bundle","id":"tests-eed13aa3-a2ca-4262-b23a-940c5e576fe8-bundle","type":"transaction","entry":[{"fullUrl":"https://madie.cms.gov/Patient/eed13aa3-a2ca-4262-b23a-940c5e576fe8","resource":{"resourceType":"Patient","id":"eed13aa3-a2ca-4262-b23a-940c5e576fe8","meta":{"profile":["http://hl7.org/fhir/us/qicore/StructureDefinition/qicore-patient"]},"text":{"status":"generated","div":"<div xmlns=\"http://www.w3.org/1999/xhtml\"><div class=\"hapiHeaderText\">SCIP_GenSurgRank2_ProcStartNull <b>DENEXFAIL </b></div><table class=\"hapiPropertyTable\"><tbody><tr><td>Identifier</td><td>66c70c125db369967b4b164e75338304</td></tr><tr><td>Date of birth</td><td><span>01 September 2000</span></td></tr></tbody></table></div>"},"extension":[{"url":"http://hl7.org/fhir/us/core/StructureDefinition/us-core-race","extension":[{"url":"ombCategory","valueCoding":{"system":"urn:oid:2.16.840.1.113883.6.238","code":"1002-5","display":"American Indian or Alaska Native","userSelected":true}},{"url":"text","valueString":"American Indian or Alaska Native"}]},{"url":"http://hl7.org/fhir/us/core/StructureDefinition/us-core-ethnicity","extension":[{"url":"ombCategory","valueCoding":{"system":"urn:oid:2.16.840.1.113883.6.238","code":"2135-2","display":"Hispanic or Latino","userSelected":true}},{"url":"text","valueString":"Hispanic or Latino"}]}],"identifier":[{"type":{"coding":[{"system":"http://terminology.hl7.org/CodeSystem/v2-0203","code":"MR"}]},"system":"https://bonnie-fhir.healthit.gov/","value":"612e6b2402c62a011f2ec9ed"}],"active":true,"name":[{"use":"usual","family":"DENEXFail","given":["SCIP_GenSurgRank2_ProcStartNull"]}],"gender":"male","birthDate":"2000-09-01"},"request":{"method":"PUT","url":"Patient/eed13aa3-a2ca-4262-b23a-940c5e576fe8"}},{"fullUrl":"https://madie.cms.gov/Encounter/5ca62965b8484628b8de1fae","resource":{"resourceType":"Encounter","id":"df17199a-76c4-43c2-af8a-928b15236055","meta":{"profile":["http://hl7.org/fhir/us/qicore/StructureDefinition/qicore-encounter"]},"extension":[{"url":"http://hl7.org/fhir/us/qicore/StructureDefinition/qicore-encounter-procedure","extension":[{"url":"type","valueCodeableConcept":{"coding":[{"system":"http://www.cms.gov/Medicare/Coding/ICD10","code":"008Q0ZZ"}]}},{"url":"rank","valuePositiveInt":2},{"url":"procedure","valueReference":{"reference":"Procedure/5e21be93f9757500009ed4e7"}}]}],"status":"finished","class":{"system":"http://terminology.hl7.org/CodeSystem/v3-ActCode","code":"IMP","display":"inpatient encounter"},"type":[{"coding":[{"system":"http://snomed.info/sct","code":"183452005"}]}],"subject":{"reference":"Patient/eed13aa3-a2ca-4262-b23a-940c5e576fe8"},"period":{"start":"2025-09-02T06:00:00+00:00","end":"2025-12-31T12:59:00+00:00"},"length":{"value":120.0,"unit":"days"}},"request":{"method":"PUT","url":"Encounter/df17199a-76c4-43c2-af8a-928b15236055"}},{"fullUrl":"https://madie.cms.gov/Coverage/5fa041661c76ba66d9959370","resource":{"resourceType":"Coverage","id":"66b1cad5-02c8-4e36-94c1-452bd71d6729","status":"active","beneficiary":{"reference":"Patient/eed13aa3-a2ca-4262-b23a-940c5e576fe8"},"period":{"start":"2000-09-01T08:00:00+00:00"},"payor":[{"reference":"Organization/26111c91-b0e2-476c-a20b-e3f39799f8f5"}]},"request":{"method":"PUT","url":"Coverage/66b1cad5-02c8-4e36-94c1-452bd71d6729"}},{"fullUrl":"https://madie.cms.gov/Procedure/5e21be93f9757500009ed4e7","resource":{"resourceType":"Procedure","id":"cb64845b-e90b-4aeb-a17d-1c554d3c5545","meta":{"profile":["http://hl7.org/fhir/us/qicore/StructureDefinition/qicore-procedure"]},"extension":[{"url":"http://hl7.org/fhir/us/qicore/StructureDefinition/qicore-recorded","valueDateTime":"2012-12-04T09:35:00-04:00"}],"status":"completed","code":{"coding":[{"system":"http://www.cms.gov/Medicare/Coding/ICD10","code":"008Q0ZZ"}]},"subject":{"reference":"Patient/eed13aa3-a2ca-4262-b23a-940c5e576fe8"},"performedPeriod":{"end":"2025-11-30T08:15:00+00:00"}},"request":{"method":"PUT","url":"Procedure/cb64845b-e90b-4aeb-a17d-1c554d3c5545"}},{"fullUrl":"https://madie.cms.gov/Organization/123456","resource":{"resourceType":"Organization","id":"26111c91-b0e2-476c-a20b-e3f39799f8f5","meta":{"profile":["http://hl7.org/fhir/us/qicore/StructureDefinition/qicore-organization"]},"identifier":[{"use":"temp","system":"urn:oid:2.16.840.1.113883.4.4","value":"21-3259825"}],"active":true,"type":[{"coding":[{"system":"http://terminology.hl7.org/CodeSystem/organization-type","code":"pay","display":"Payer"}]}],"name":"Blue Cross Blue Shield of Texas","telecom":[{"system":"phone","value":"(+1) 972-766-6900"}],"address":[{"use":"billing","type":"postal","line":["P.O. Box 660044"],"city":"Dallas","state":"TX","postalCode":"75266-0044","country":"USA"}]},"request":{"method":"PUT","url":"Organization/26111c91-b0e2-476c-a20b-e3f39799f8f5"}},{"fullUrl":"https://madie.cms.gov/Practitioner/practitioner-123456","resource":{"resourceType":"Practitioner","id":"f1cf809e-b553-4537-90a1-159ab6b2eed8","identifier":[{"system":"http://hl7.org/fhir/sid/us-npi","value":"123456"}],"name":[{"family":"Evil","prefix":["Dr"]}]},"request":{"method":"PUT","url":"Practitioner/f1cf809e-b553-4537-90a1-159ab6b2eed8"}},{"fullUrl":"https://madie.cms.gov/MeasureReport/92405e40-816a-46f5-ad07-4554c9c33a24","resource":{"resourceType":"MeasureReport","id":"92405e40-816a-46f5-ad07-4554c9c33a24","meta":{"profile":["http://hl7.org/fhir/us/cqfmeasures/StructureDefinition/test-case-cqfm"]},"contained":[{"resourceType":"Parameters","id":"a0e40d59-e8b5-4eac-84cd-612cd0efd017-parameters","parameter":[{"name":"subject","valueString":"eed13aa3-a2ca-4262-b23a-940c5e576fe8"}]}],"extension":[{"url":"http://hl7.org/fhir/us/cqfmeasures/StructureDefinition/cqfm-inputParameters","valueReference":{"reference":"#a0e40d59-e8b5-4eac-84cd-612cd0efd017-parameters"}},{"url":"http://hl7.org/fhir/us/cqfmeasures/StructureDefinition/cqfm-testCaseDescription","valueMarkdown":"Patient had SCIP -GenSurg during Encounter and Rank =2 with Proc start datetime is null\n"}],"modifierExtension":[{"url":"http://hl7.org/fhir/us/cqfmeasures/StructureDefinition/cqfm-isTestCase","valueBoolean":true}],"status":"complete","type":"individual","measure":"https://madie.cms.gov/Measure/VenousThromboembolismProphylaxisFHIR","period":{"start":"2025-01-01","end":"2025-12-31"},"group":[{"population":[{"code":{"coding":[{"system":"http://terminology.hl7.org/CodeSystem/measure-population","code":"initial-population","display":"Initial Population"}]},"count":1},{"code":{"coding":[{"system":"http://terminology.hl7.org/CodeSystem/measure-population","code":"denominator","display":"Denominator"}]},"count":1},{"code":{"coding":[{"system":"http://terminology.hl7.org/CodeSystem/measure-population","code":"denominator-exclusion","display":"Denominator Exclusion"}]},"count":0},{"code":{"coding":[{"system":"http://terminology.hl7.org/CodeSystem/measure-population","code":"numerator","display":"Numerator"}]},"count":0}]}]},"request":{"method":"PUT","url":"MeasureReport/92405e40-816a-46f5-ad07-4554c9c33a24"}}]}