{"resourceType":"Bundle","id":"tests-dfc6a903-e637-4fff-8619-996099874454-bundle","type":"transaction","entry":[{"fullUrl":"https://madie.cms.gov/Patient/dfc6a903-e637-4fff-8619-996099874454","resource":{"resourceType":"Patient","id":"dfc6a903-e637-4fff-8619-996099874454","meta":{"profile":["http://hl7.org/fhir/us/qicore/StructureDefinition/qicore-patient"]},"text":{"status":"generated","div":"<div xmlns=\"http://www.w3.org/1999/xhtml\"><div class=\"hapiHeaderText\">INR_InvalidValue <b>NUMERFAIL </b></div><table class=\"hapiPropertyTable\"><tbody><tr><td>Identifier</td><td>698cb035726013399ea3ce60e92c9a6fae5c605ed7af65e4a30123b6e34d303e</td></tr><tr><td>Date of birth</td><td><span>02 January 1974</span></td></tr></tbody></table></div>"},"extension":[{"url":"http://hl7.org/fhir/us/core/StructureDefinition/us-core-race","extension":[{"url":"ombCategory","valueCoding":{"system":"urn:oid:2.16.840.1.113883.6.238","code":"1002-5","display":"American Indian or Alaska Native","userSelected":true}},{"url":"text","valueString":"American Indian or Alaska Native"}]},{"url":"http://hl7.org/fhir/us/core/StructureDefinition/us-core-ethnicity","extension":[{"url":"ombCategory","valueCoding":{"system":"urn:oid:2.16.840.1.113883.6.238","code":"2135-2","display":"Hispanic or Latino","userSelected":true}},{"url":"text","valueString":"Hispanic or Latino"}]}],"identifier":[{"type":{"coding":[{"system":"http://terminology.hl7.org/CodeSystem/v2-0203","code":"MR"}]},"system":"https://bonnie-fhir.healthit.gov/","value":"612e6aeb02c62a011f2ebbf9"}],"active":true,"name":[{"use":"usual","family":"NUMERFail","given":["INR_InvalidValue"]}],"gender":"male","birthDate":"1974-01-02"},"request":{"method":"PUT","url":"Patient/dfc6a903-e637-4fff-8619-996099874454"}},{"fullUrl":"https://madie.cms.gov/Encounter/5ca62964b8484628b8de1f24","resource":{"resourceType":"Encounter","id":"d5cd041e-3e2e-4342-9b1f-729a3db3a6f3","meta":{"profile":["http://hl7.org/fhir/us/qicore/StructureDefinition/qicore-encounter"]},"status":"finished","class":{"system":"http://terminology.hl7.org/CodeSystem/v3-ActCode","code":"IMP","display":"inpatient encounter"},"type":[{"coding":[{"system":"http://snomed.info/sct","code":"8715000"}]}],"subject":{"reference":"Patient/dfc6a903-e637-4fff-8619-996099874454"},"period":{"start":"2025-11-01T08:00:00+00:00","end":"2025-11-26T08:15:00+00:00"},"length":{"value":25.0,"unit":"days"}},"request":{"method":"PUT","url":"Encounter/d5cd041e-3e2e-4342-9b1f-729a3db3a6f3"}},{"fullUrl":"https://madie.cms.gov/Coverage/5fa041631c76ba66d995933a","resource":{"resourceType":"Coverage","id":"14557383-d4a1-43b4-80bb-278b8916010d","status":"active","beneficiary":{"reference":"Patient/dfc6a903-e637-4fff-8619-996099874454"},"period":{"start":"1974-01-02T08:00:00+00:00"},"payor":[{"reference":"Organization/26111c91-b0e2-476c-a20b-e3f39799f8f5"}]},"request":{"method":"PUT","url":"Coverage/14557383-d4a1-43b4-80bb-278b8916010d"}},{"fullUrl":"https://madie.cms.gov/Observation/5ca62964b8484628b8de1f26","resource":{"resourceType":"Observation","id":"92e7f4d8-90fe-4bf8-a897-04cc988d9b3b","meta":{"profile":["http://hl7.org/fhir/us/core/StructureDefinition/us-core-observation-lab"]},"status":"amended","category":[{"coding":[{"system":"http://terminology.hl7.org/CodeSystem/observation-category","code":"laboratory","display":"Laboratory"}]}],"code":{"coding":[{"system":"http://loinc.org","code":"34714-6"}]},"subject":{"reference":"Patient/dfc6a903-e637-4fff-8619-996099874454"},"issued":"2025-11-01T10:00:00.000+00:00","valueCodeableConcept":{"coding":[{"system":"http://cts.nlm.nih.gov/fhir/cs/cdcrec","code":"2135-2","display":"Ethnicity"}]}},"request":{"method":"PUT","url":"Observation/92e7f4d8-90fe-4bf8-a897-04cc988d9b3b"}},{"fullUrl":"https://madie.cms.gov/Procedure/5ca62964b8484628b8de1f25","resource":{"resourceType":"Procedure","id":"2d1e078f-8fd6-4804-a95e-a24c13d403c7","status":"completed","code":{"coding":[{"system":"http://www.icd10data.com/icd10pcs","code":"3E030FZ"},{"system":"http://snomed.info/sct","code":"18946005"}]},"subject":{"reference":"Patient/dfc6a903-e637-4fff-8619-996099874454"},"performedPeriod":{"start":"2025-11-01T09:00:00+00:00","end":"2025-11-01T09:15:00+00:00"}},"request":{"method":"PUT","url":"Procedure/2d1e078f-8fd6-4804-a95e-a24c13d403c7"}},{"fullUrl":"https://madie.cms.gov/Organization/123456","resource":{"resourceType":"Organization","id":"26111c91-b0e2-476c-a20b-e3f39799f8f5","meta":{"profile":["http://hl7.org/fhir/us/qicore/StructureDefinition/qicore-organization"]},"identifier":[{"use":"temp","system":"urn:oid:2.16.840.1.113883.4.4","value":"21-3259825"}],"active":true,"type":[{"coding":[{"system":"http://terminology.hl7.org/CodeSystem/organization-type","code":"pay","display":"Payer"}]}],"name":"Blue Cross Blue Shield of Texas","telecom":[{"system":"phone","value":"(+1) 972-766-6900"}],"address":[{"use":"billing","type":"postal","line":["P.O. Box 660044"],"city":"Dallas","state":"TX","postalCode":"75266-0044","country":"USA"}]},"request":{"method":"PUT","url":"Organization/26111c91-b0e2-476c-a20b-e3f39799f8f5"}},{"fullUrl":"https://madie.cms.gov/Practitioner/practitioner-123456","resource":{"resourceType":"Practitioner","id":"590c9699-02e9-4a27-9032-98b98c638ce3","identifier":[{"system":"http://hl7.org/fhir/sid/us-npi","value":"123456"}],"name":[{"family":"Evil","prefix":["Dr"]}]},"request":{"method":"PUT","url":"Practitioner/590c9699-02e9-4a27-9032-98b98c638ce3"}},{"fullUrl":"https://madie.cms.gov/MeasureReport/1eda0fa6-0c54-49bb-b664-916ad6bf790b","resource":{"resourceType":"MeasureReport","id":"1eda0fa6-0c54-49bb-b664-916ad6bf790b","meta":{"profile":["http://hl7.org/fhir/us/cqfmeasures/StructureDefinition/test-case-cqfm"]},"contained":[{"resourceType":"Parameters","id":"ac1fb871-ad12-4b37-b27c-f644793f2dbb-parameters","parameter":[{"name":"subject","valueString":"dfc6a903-e637-4fff-8619-996099874454"}]}],"extension":[{"url":"http://hl7.org/fhir/us/cqfmeasures/StructureDefinition/cqfm-inputParameters","valueReference":{"reference":"#ac1fb871-ad12-4b37-b27c-f644793f2dbb-parameters"}},{"url":"http://hl7.org/fhir/us/cqfmeasures/StructureDefinition/cqfm-testCaseDescription","valueMarkdown":">18, dx VTE, LOS<120 day,   LabResult INR is a invalid value as coded value,  < 0 day after surgery end datetime\n"}],"modifierExtension":[{"url":"http://hl7.org/fhir/us/cqfmeasures/StructureDefinition/cqfm-isTestCase","valueBoolean":true}],"status":"complete","type":"individual","measure":"https://madie.cms.gov/Measure/VenousThromboembolismProphylaxisFHIR","period":{"start":"2025-01-01","end":"2025-12-31"},"group":[{"population":[{"code":{"coding":[{"system":"http://terminology.hl7.org/CodeSystem/measure-population","code":"initial-population","display":"Initial Population"}]},"count":1},{"code":{"coding":[{"system":"http://terminology.hl7.org/CodeSystem/measure-population","code":"denominator","display":"Denominator"}]},"count":1},{"code":{"coding":[{"system":"http://terminology.hl7.org/CodeSystem/measure-population","code":"denominator-exclusion","display":"Denominator Exclusion"}]},"count":0},{"code":{"coding":[{"system":"http://terminology.hl7.org/CodeSystem/measure-population","code":"numerator","display":"Numerator"}]},"count":0}]}]},"request":{"method":"PUT","url":"MeasureReport/1eda0fa6-0c54-49bb-b664-916ad6bf790b"}}]}