{"resourceType":"Bundle","id":"tests-0306790e-8c5b-40cb-b164-e5d7f79eef8f-bundle","type":"transaction","entry":[{"fullUrl":"https://madie.cms.gov/Patient/0306790e-8c5b-40cb-b164-e5d7f79eef8f","resource":{"resourceType":"Patient","id":"0306790e-8c5b-40cb-b164-e5d7f79eef8f","meta":{"profile":["http://hl7.org/fhir/us/qicore/StructureDefinition/qicore-patient"]},"text":{"status":"generated","div":"<div xmlns=\"http://www.w3.org/1999/xhtml\"><div class=\"hapiHeaderText\">MA_Warfarin_DayOfAdmit <b>NUMERPASS </b></div><table class=\"hapiPropertyTable\"><tbody><tr><td>Identifier</td><td>f6b3ce4fb2b87a4aa5f00ca8118e0e9a</td></tr><tr><td>Date of birth</td><td><span>02 January 1974</span></td></tr></tbody></table></div>"},"extension":[{"url":"http://hl7.org/fhir/us/core/StructureDefinition/us-core-race","extension":[{"url":"ombCategory","valueCoding":{"system":"urn:oid:2.16.840.1.113883.6.238","code":"1002-5","display":"American Indian or Alaska Native","userSelected":true}},{"url":"text","valueString":"American Indian or Alaska Native"}]},{"url":"http://hl7.org/fhir/us/core/StructureDefinition/us-core-ethnicity","extension":[{"url":"ombCategory","valueCoding":{"system":"urn:oid:2.16.840.1.113883.6.238","code":"2135-2","display":"Hispanic or Latino","userSelected":true}},{"url":"text","valueString":"Hispanic or Latino"}]}],"identifier":[{"type":{"coding":[{"system":"http://terminology.hl7.org/CodeSystem/v2-0203","code":"MR"}]},"system":"https://bonnie-fhir.healthit.gov/","value":"612e6a7d02c62a011f2ea2ee"}],"active":true,"name":[{"use":"usual","family":"NUMERPass","given":["MA_Warfarin_DayOfAdmit"]}],"gender":"male","birthDate":"1974-01-02"},"request":{"method":"PUT","url":"Patient/0306790e-8c5b-40cb-b164-e5d7f79eef8f"}},{"fullUrl":"https://madie.cms.gov/Encounter/5ca6295eb8484628b8de1da2","resource":{"resourceType":"Encounter","id":"0a4d04e6-0426-43b2-9c57-4afb600d5a35","meta":{"profile":["http://hl7.org/fhir/us/qicore/StructureDefinition/qicore-encounter"]},"status":"finished","class":{"system":"http://terminology.hl7.org/CodeSystem/v3-ActCode","code":"IMP","display":"inpatient encounter"},"type":[{"coding":[{"system":"http://snomed.info/sct","code":"8715000"}]}],"subject":{"reference":"Patient/0306790e-8c5b-40cb-b164-e5d7f79eef8f"},"period":{"start":"2025-11-01T08:00:00+00:00","end":"2025-11-26T08:15:00+00:00"},"length":{"value":25.0,"unit":"days"}},"request":{"method":"PUT","url":"Encounter/0a4d04e6-0426-43b2-9c57-4afb600d5a35"}},{"fullUrl":"https://madie.cms.gov/Coverage/5fa0414e1c76ba66d99591c9","resource":{"resourceType":"Coverage","id":"dc49e2c3-c29c-4d61-8197-d94cb2f54981","status":"active","beneficiary":{"reference":"Patient/0306790e-8c5b-40cb-b164-e5d7f79eef8f"},"period":{"start":"1974-01-02T08:00:00+00:00"},"payor":[{"reference":"Organization/26111c91-b0e2-476c-a20b-e3f39799f8f5"}]},"request":{"method":"PUT","url":"Coverage/dc49e2c3-c29c-4d61-8197-d94cb2f54981"}},{"fullUrl":"https://madie.cms.gov/MedicationAdministration/5ca6295eb8484628b8de1da3","resource":{"resourceType":"MedicationAdministration","id":"26f4282b-7f2b-4257-a910-06cbda3b0b81","meta":{"profile":["http://hl7.org/fhir/us/qicore/StructureDefinition/qicore-medicationadministration"]},"status":"completed","medicationCodeableConcept":{"coding":[{"system":"http://www.nlm.nih.gov/research/umls/rxnorm","code":"855288"}]},"subject":{"reference":"Patient/0306790e-8c5b-40cb-b164-e5d7f79eef8f"},"effectivePeriod":{"start":"2025-11-01T09:00:00+00:00","end":"2025-11-01T09:15:00+00:00"}},"request":{"method":"PUT","url":"MedicationAdministration/26f4282b-7f2b-4257-a910-06cbda3b0b81"}},{"fullUrl":"https://madie.cms.gov/Organization/123456","resource":{"resourceType":"Organization","id":"26111c91-b0e2-476c-a20b-e3f39799f8f5","meta":{"profile":["http://hl7.org/fhir/us/qicore/StructureDefinition/qicore-organization"]},"identifier":[{"use":"temp","system":"urn:oid:2.16.840.1.113883.4.4","value":"21-3259825"}],"active":true,"type":[{"coding":[{"system":"http://terminology.hl7.org/CodeSystem/organization-type","code":"pay","display":"Payer"}]}],"name":"Blue Cross Blue Shield of Texas","telecom":[{"system":"phone","value":"(+1) 972-766-6900"}],"address":[{"use":"billing","type":"postal","line":["P.O. Box 660044"],"city":"Dallas","state":"TX","postalCode":"75266-0044","country":"USA"}]},"request":{"method":"PUT","url":"Organization/26111c91-b0e2-476c-a20b-e3f39799f8f5"}},{"fullUrl":"https://madie.cms.gov/Practitioner/practitioner-123456","resource":{"resourceType":"Practitioner","id":"ba186cc6-ce1f-402f-b591-d30085caaea6","identifier":[{"system":"http://hl7.org/fhir/sid/us-npi","value":"123456"}],"name":[{"family":"Evil","prefix":["Dr"]}]},"request":{"method":"PUT","url":"Practitioner/ba186cc6-ce1f-402f-b591-d30085caaea6"}},{"fullUrl":"https://madie.cms.gov/MeasureReport/fd2e7419-81e6-47d8-a5d6-684462ccf8ed","resource":{"resourceType":"MeasureReport","id":"fd2e7419-81e6-47d8-a5d6-684462ccf8ed","meta":{"profile":["http://hl7.org/fhir/us/cqfmeasures/StructureDefinition/test-case-cqfm"]},"contained":[{"resourceType":"Parameters","id":"34a4ee83-4141-47e5-ba7f-2e593dca04aa-parameters","parameter":[{"name":"subject","valueString":"0306790e-8c5b-40cb-b164-e5d7f79eef8f"}]}],"extension":[{"url":"http://hl7.org/fhir/us/cqfmeasures/StructureDefinition/cqfm-inputParameters","valueReference":{"reference":"#34a4ee83-4141-47e5-ba7f-2e593dca04aa-parameters"}},{"url":"http://hl7.org/fhir/us/cqfmeasures/StructureDefinition/cqfm-testCaseDescription","valueMarkdown":"warfarin administered during IP encounter\n"}],"modifierExtension":[{"url":"http://hl7.org/fhir/us/cqfmeasures/StructureDefinition/cqfm-isTestCase","valueBoolean":true}],"status":"complete","type":"individual","measure":"https://madie.cms.gov/Measure/VenousThromboembolismProphylaxisFHIR","period":{"start":"2025-01-01","end":"2025-12-31"},"group":[{"population":[{"code":{"coding":[{"system":"http://terminology.hl7.org/CodeSystem/measure-population","code":"initial-population","display":"Initial Population"}]},"count":1},{"code":{"coding":[{"system":"http://terminology.hl7.org/CodeSystem/measure-population","code":"denominator","display":"Denominator"}]},"count":1},{"code":{"coding":[{"system":"http://terminology.hl7.org/CodeSystem/measure-population","code":"denominator-exclusion","display":"Denominator Exclusion"}]},"count":0},{"code":{"coding":[{"system":"http://terminology.hl7.org/CodeSystem/measure-population","code":"numerator","display":"Numerator"}]},"count":1}]}]},"request":{"method":"PUT","url":"MeasureReport/fd2e7419-81e6-47d8-a5d6-684462ccf8ed"}}]}