{"resourceType":"Bundle","id":"tests-1b450176-8caa-4133-bc9a-c066969f72ce-bundle","type":"transaction","entry":[{"fullUrl":"https://madie.cms.gov/Patient/1b450176-8caa-4133-bc9a-c066969f72ce","resource":{"resourceType":"Patient","id":"1b450176-8caa-4133-bc9a-c066969f72ce","meta":{"profile":["http://hl7.org/fhir/us/qicore/StructureDefinition/qicore-patient"]},"text":{"status":"generated","div":"<div xmlns=\"http://www.w3.org/1999/xhtml\"><div class=\"hapiHeaderText\">CMPerfRvltStartDayAFAdmEndNull <b>DENEXPASS </b></div><table class=\"hapiPropertyTable\"><tbody><tr><td>Identifier</td><td>8e120c670e34f79f329b985203cc966e</td></tr><tr><td>Date of birth</td><td><span>02 January 1974</span></td></tr></tbody></table></div>"},"extension":[{"url":"http://hl7.org/fhir/us/core/StructureDefinition/us-core-race","extension":[{"url":"ombCategory","valueCoding":{"system":"urn:oid:2.16.840.1.113883.6.238","code":"1002-5","display":"American Indian or Alaska Native","userSelected":true}},{"url":"text","valueString":"American Indian or Alaska Native"}]},{"url":"http://hl7.org/fhir/us/core/StructureDefinition/us-core-ethnicity","extension":[{"url":"ombCategory","valueCoding":{"system":"urn:oid:2.16.840.1.113883.6.238","code":"2135-2","display":"Hispanic or Latino","userSelected":true}},{"url":"text","valueString":"Hispanic or Latino"}]}],"identifier":[{"type":{"coding":[{"system":"http://terminology.hl7.org/CodeSystem/v2-0203","code":"MR"}]},"system":"https://bonnie-fhir.healthit.gov/","value":"612e6b3702c62a011f2ecee0"}],"active":true,"name":[{"use":"usual","family":"DENEXPass","given":["CMPerfRvltStartDayAFAdmEndNull"]}],"gender":"male","birthDate":"1974-01-02"},"request":{"method":"PUT","url":"Patient/1b450176-8caa-4133-bc9a-c066969f72ce"}},{"fullUrl":"https://madie.cms.gov/Encounter/5ca6295eb8484628b8de1d9c","resource":{"resourceType":"Encounter","id":"b264b520-8026-4e6c-9f97-f1a07983d498","meta":{"profile":["http://hl7.org/fhir/us/qicore/StructureDefinition/qicore-encounter"]},"status":"finished","class":{"system":"http://terminology.hl7.org/CodeSystem/v3-ActCode","code":"IMP","display":"inpatient encounter"},"type":[{"coding":[{"system":"http://snomed.info/sct","code":"8715000"}]}],"subject":{"reference":"Patient/1b450176-8caa-4133-bc9a-c066969f72ce"},"period":{"start":"2025-11-01T08:00:00+00:00","end":"2025-11-26T08:15:00+00:00"},"length":{"value":25.0,"unit":"days"}},"request":{"method":"PUT","url":"Encounter/b264b520-8026-4e6c-9f97-f1a07983d498"}},{"fullUrl":"https://madie.cms.gov/Procedure/5ca6295eb8484628b8de1d9d","resource":{"resourceType":"Procedure","id":"63a1c57d-8e8d-4211-a8b8-0ca7fef92e5a","meta":{"profile":["http://hl7.org/fhir/us/qicore/StructureDefinition/qicore-procedure"]},"extension":[{"url":"http://hl7.org/fhir/us/qicore/StructureDefinition/qicore-recorded","valueDateTime":"2012-11-02T09:35:00-04:00"}],"status":"completed","code":{"coding":[{"system":"http://snomed.info/sct","code":"133918004"}]},"subject":{"reference":"Patient/1b450176-8caa-4133-bc9a-c066969f72ce"},"performedPeriod":{"start":"2025-11-02T08:00:00+00:00"}},"request":{"method":"PUT","url":"Procedure/63a1c57d-8e8d-4211-a8b8-0ca7fef92e5a"}},{"fullUrl":"https://madie.cms.gov/Coverage/5fa0414d1c76ba66d99591c3","resource":{"resourceType":"Coverage","id":"55876ca4-bee4-4b00-898f-47ad3471400f","status":"active","beneficiary":{"reference":"Patient/1b450176-8caa-4133-bc9a-c066969f72ce"},"period":{"start":"1974-01-02T08:00:00+00:00"},"payor":[{"reference":"Organization/26111c91-b0e2-476c-a20b-e3f39799f8f5"}]},"request":{"method":"PUT","url":"Coverage/55876ca4-bee4-4b00-898f-47ad3471400f"}},{"fullUrl":"https://madie.cms.gov/Organization/123456","resource":{"resourceType":"Organization","id":"26111c91-b0e2-476c-a20b-e3f39799f8f5","meta":{"profile":["http://hl7.org/fhir/us/qicore/StructureDefinition/qicore-organization"]},"identifier":[{"use":"temp","system":"urn:oid:2.16.840.1.113883.4.4","value":"21-3259825"}],"active":true,"type":[{"coding":[{"system":"http://terminology.hl7.org/CodeSystem/organization-type","code":"pay","display":"Payer"}]}],"name":"Blue Cross Blue Shield of Texas","telecom":[{"system":"phone","value":"(+1) 972-766-6900"}],"address":[{"use":"billing","type":"postal","line":["P.O. Box 660044"],"city":"Dallas","state":"TX","postalCode":"75266-0044","country":"USA"}]},"request":{"method":"PUT","url":"Organization/26111c91-b0e2-476c-a20b-e3f39799f8f5"}},{"fullUrl":"https://madie.cms.gov/Practitioner/practitioner-123456","resource":{"resourceType":"Practitioner","id":"b26a4c53-729a-49c2-8e9a-497e4931db7e","identifier":[{"system":"http://hl7.org/fhir/sid/us-npi","value":"123456"}],"name":[{"family":"Evil","prefix":["Dr"]}]},"request":{"method":"PUT","url":"Practitioner/b26a4c53-729a-49c2-8e9a-497e4931db7e"}},{"fullUrl":"https://madie.cms.gov/MeasureReport/c585c040-c848-4f1f-acab-5728bc420126","resource":{"resourceType":"MeasureReport","id":"c585c040-c848-4f1f-acab-5728bc420126","meta":{"profile":["http://hl7.org/fhir/us/cqfmeasures/StructureDefinition/test-case-cqfm"]},"contained":[{"resourceType":"Parameters","id":"c62796f3-65ff-4961-b67f-0a90560ede75-parameters","parameter":[{"name":"subject","valueString":"1b450176-8caa-4133-bc9a-c066969f72ce"}]}],"extension":[{"url":"http://hl7.org/fhir/us/cqfmeasures/StructureDefinition/cqfm-inputParameters","valueReference":{"reference":"#c62796f3-65ff-4961-b67f-0a90560ede75-parameters"}},{"url":"http://hl7.org/fhir/us/cqfmeasures/StructureDefinition/cqfm-testCaseDescription","valueMarkdown":"comfort measures performed relevantPeriod start 1 day after IP encounter and ends null\n"}],"modifierExtension":[{"url":"http://hl7.org/fhir/us/cqfmeasures/StructureDefinition/cqfm-isTestCase","valueBoolean":true}],"status":"complete","type":"individual","measure":"https://madie.cms.gov/Measure/VenousThromboembolismProphylaxisFHIR","period":{"start":"2025-01-01","end":"2025-12-31"},"group":[{"population":[{"code":{"coding":[{"system":"http://terminology.hl7.org/CodeSystem/measure-population","code":"initial-population","display":"Initial Population"}]},"count":1},{"code":{"coding":[{"system":"http://terminology.hl7.org/CodeSystem/measure-population","code":"denominator","display":"Denominator"}]},"count":1},{"code":{"coding":[{"system":"http://terminology.hl7.org/CodeSystem/measure-population","code":"denominator-exclusion","display":"Denominator Exclusion"}]},"count":1},{"code":{"coding":[{"system":"http://terminology.hl7.org/CodeSystem/measure-population","code":"numerator","display":"Numerator"}]},"count":0}]}]},"request":{"method":"PUT","url":"MeasureReport/c585c040-c848-4f1f-acab-5728bc420126"}}]}