{"resourceType":"Bundle","id":"tests-b30e1235-fe5d-4cd1-a536-4baafc680d7b-bundle","type":"transaction","entry":[{"fullUrl":"https://madie.cms.gov/Patient/b30e1235-fe5d-4cd1-a536-4baafc680d7b","resource":{"resourceType":"Patient","id":"b30e1235-fe5d-4cd1-a536-4baafc680d7b","meta":{"profile":["http://hl7.org/fhir/us/qicore/StructureDefinition/qicore-patient"]},"text":{"status":"generated","div":"<div xmlns=\"http://www.w3.org/1999/xhtml\"><div class=\"hapiHeaderText\">2Encounters_1PassIPP_DEN_DENEX <b>DENEXPASS </b></div><table class=\"hapiPropertyTable\"><tbody><tr><td>Identifier</td><td>b98ddb653cdba6f593cc49f0f466a1b86353252d04583905e9da730a49dbb7cc</td></tr><tr><td>Date of birth</td><td><span>02 September 1978</span></td></tr></tbody></table></div>"},"extension":[{"url":"http://hl7.org/fhir/us/core/StructureDefinition/us-core-race","extension":[{"url":"ombCategory","valueCoding":{"system":"urn:oid:2.16.840.1.113883.6.238","code":"1002-5","display":"American Indian or Alaska Native","userSelected":true}},{"url":"text","valueString":"American Indian or Alaska Native"}]},{"url":"http://hl7.org/fhir/us/core/StructureDefinition/us-core-ethnicity","extension":[{"url":"ombCategory","valueCoding":{"system":"urn:oid:2.16.840.1.113883.6.238","code":"2135-2","display":"Hispanic or Latino","userSelected":true}},{"url":"text","valueString":"Hispanic or Latino"}]}],"identifier":[{"type":{"coding":[{"system":"http://terminology.hl7.org/CodeSystem/v2-0203","code":"MR"}]},"system":"https://bonnie-fhir.healthit.gov/","value":"612e6ade02c62a011f2eb846"}],"active":true,"name":[{"use":"usual","family":"DENEXPass","given":["2Encounters_1PassIPP_DEN_DENEX"]}],"gender":"male","birthDate":"1978-09-02"},"request":{"method":"PUT","url":"Patient/b30e1235-fe5d-4cd1-a536-4baafc680d7b"}},{"fullUrl":"https://madie.cms.gov/Encounter/5ca62965b8484628b8de1fa8","resource":{"resourceType":"Encounter","id":"0a2c839d-6f1d-4d4a-a8f1-53d4dd60cfd9","meta":{"profile":["http://hl7.org/fhir/us/qicore/StructureDefinition/qicore-encounter"]},"status":"finished","class":{"system":"http://terminology.hl7.org/CodeSystem/v3-ActCode","code":"IMP","display":"inpatient encounter"},"type":[{"coding":[{"system":"http://snomed.info/sct","code":"183452005"}]}],"subject":{"reference":"Patient/b30e1235-fe5d-4cd1-a536-4baafc680d7b"},"period":{"start":"2025-07-04T08:00:00+00:00","end":"2025-07-04T08:15:00+00:00"},"length":{"value":0.0,"unit":"days"}},"request":{"method":"PUT","url":"Encounter/0a2c839d-6f1d-4d4a-a8f1-53d4dd60cfd9"}},{"fullUrl":"https://madie.cms.gov/Encounter/5ca62965b8484628b8de1fa9","resource":{"resourceType":"Encounter","id":"1a670f7f-fb95-45a0-97b3-2dbf64af36bd","meta":{"profile":["http://hl7.org/fhir/us/qicore/StructureDefinition/qicore-encounter"]},"status":"finished","class":{"system":"http://terminology.hl7.org/CodeSystem/v3-ActCode","code":"EMER","display":"emergency"},"type":[{"coding":[{"system":"http://snomed.info/sct","code":"4525004"}]}],"subject":{"reference":"Patient/b30e1235-fe5d-4cd1-a536-4baafc680d7b"},"period":{"start":"2025-07-05T09:00:00+00:00","end":"2025-07-05T10:00:00+00:00"},"length":{"value":0.0,"unit":"days"}},"request":{"method":"PUT","url":"Encounter/1a670f7f-fb95-45a0-97b3-2dbf64af36bd"}},{"fullUrl":"https://madie.cms.gov/Encounter/5ca62965b8484628b8de1faa","resource":{"resourceType":"Encounter","id":"8d835e0f-fa2d-4f55-ab7f-e7e26970c02c","meta":{"profile":["http://hl7.org/fhir/us/qicore/StructureDefinition/qicore-encounter"]},"status":"finished","class":{"system":"http://terminology.hl7.org/CodeSystem/v3-ActCode","code":"IMP","display":"inpatient encounter"},"type":[{"coding":[{"system":"http://snomed.info/sct","code":"183452005"}]}],"subject":{"reference":"Patient/b30e1235-fe5d-4cd1-a536-4baafc680d7b"},"period":{"start":"2025-07-05T10:00:00+00:00","end":"2025-07-07T10:00:00+00:00"},"length":{"value":2.0,"unit":"days"},"diagnosis":[{"condition":{"reference":"Condition/obstetrics-vte-b580"},"use":{"coding":[{"system":"http://snomed.info/sct","code":"13943000","display":"Obstetrics VTE"}]}}]},"request":{"method":"PUT","url":"Encounter/8d835e0f-fa2d-4f55-ab7f-e7e26970c02c"}},{"fullUrl":"https://madie.cms.gov/Coverage/5fa041611c76ba66d995931f","resource":{"resourceType":"Coverage","id":"91b9943c-911b-4c22-85e0-b1cf318ff6cf","status":"active","beneficiary":{"reference":"Patient/b30e1235-fe5d-4cd1-a536-4baafc680d7b"},"period":{"start":"1978-09-02T08:00:00+00:00"},"payor":[{"reference":"Organization/26111c91-b0e2-476c-a20b-e3f39799f8f5"}]},"request":{"method":"PUT","url":"Coverage/91b9943c-911b-4c22-85e0-b1cf318ff6cf"}},{"fullUrl":"https://madie.cms.gov/Condition/obstetrics-vte-b580","resource":{"resourceType":"Condition","id":"f4baf9fc-e512-4b94-af49-a09d910d6750","meta":{"profile":["http://hl7.org/fhir/us/qicore/StructureDefinition/qicore-condition"]},"category":[{"coding":[{"system":"http://terminology.hl7.org/CodeSystem/condition-category","code":"encounter-diagnosis","display":"Encounter Diagnosis"}]}],"code":{"coding":[{"system":"http://snomed.info/sct","version":"2025-03","code":"13943000","display":"Failed attempted abortion complicated by embolism (disorder)","userSelected":true}]},"subject":{"reference":"Patient/b30e1235-fe5d-4cd1-a536-4baafc680d7b"},"recordedDate":"2025-07-12T08:00:00.000+00:00"},"request":{"method":"PUT","url":"Condition/f4baf9fc-e512-4b94-af49-a09d910d6750"}},{"fullUrl":"https://madie.cms.gov/Organization/123456","resource":{"resourceType":"Organization","id":"26111c91-b0e2-476c-a20b-e3f39799f8f5","meta":{"profile":["http://hl7.org/fhir/us/qicore/StructureDefinition/qicore-organization"]},"identifier":[{"use":"temp","system":"urn:oid:2.16.840.1.113883.4.4","value":"21-3259825"}],"active":true,"type":[{"coding":[{"system":"http://terminology.hl7.org/CodeSystem/organization-type","code":"pay","display":"Payer"}]}],"name":"Blue Cross Blue Shield of Texas","telecom":[{"system":"phone","value":"(+1) 972-766-6900"}],"address":[{"use":"billing","type":"postal","line":["P.O. Box 660044"],"city":"Dallas","state":"TX","postalCode":"75266-0044","country":"USA"}]},"request":{"method":"PUT","url":"Organization/26111c91-b0e2-476c-a20b-e3f39799f8f5"}},{"fullUrl":"https://madie.cms.gov/Practitioner/practitioner-123456","resource":{"resourceType":"Practitioner","id":"209ccc83-7c1c-4b00-ab20-5a83c2775309","identifier":[{"system":"http://hl7.org/fhir/sid/us-npi","value":"123456"}],"name":[{"family":"Evil","prefix":["Dr"]}]},"request":{"method":"PUT","url":"Practitioner/209ccc83-7c1c-4b00-ab20-5a83c2775309"}},{"fullUrl":"https://madie.cms.gov/MeasureReport/d87fbc98-d5d2-4719-a2da-ae57483b38bc","resource":{"resourceType":"MeasureReport","id":"d87fbc98-d5d2-4719-a2da-ae57483b38bc","meta":{"profile":["http://hl7.org/fhir/us/cqfmeasures/StructureDefinition/test-case-cqfm"]},"contained":[{"resourceType":"Parameters","id":"f2c63e73-b58a-45f1-9e7e-2e69a626f698-parameters","parameter":[{"name":"subject","valueString":"b30e1235-fe5d-4cd1-a536-4baafc680d7b"}]}],"extension":[{"url":"http://hl7.org/fhir/us/cqfmeasures/StructureDefinition/cqfm-inputParameters","valueReference":{"reference":"#f2c63e73-b58a-45f1-9e7e-2e69a626f698-parameters"}},{"url":"http://hl7.org/fhir/us/cqfmeasures/StructureDefinition/cqfm-testCaseDescription","valueMarkdown":"Testing Multiple Encounters - one (7/5 - 7/7) fails the IPP Due to OB VTE starts in ED and another pass IPP, DEN and DENEX due to LOS = 0 day\n"}],"modifierExtension":[{"url":"http://hl7.org/fhir/us/cqfmeasures/StructureDefinition/cqfm-isTestCase","valueBoolean":true}],"status":"complete","type":"individual","measure":"https://madie.cms.gov/Measure/VenousThromboembolismProphylaxisFHIR","period":{"start":"2025-01-01","end":"2025-12-31"},"group":[{"population":[{"code":{"coding":[{"system":"http://terminology.hl7.org/CodeSystem/measure-population","code":"initial-population","display":"Initial Population"}]},"count":1},{"code":{"coding":[{"system":"http://terminology.hl7.org/CodeSystem/measure-population","code":"denominator","display":"Denominator"}]},"count":1},{"code":{"coding":[{"system":"http://terminology.hl7.org/CodeSystem/measure-population","code":"denominator-exclusion","display":"Denominator Exclusion"}]},"count":1},{"code":{"coding":[{"system":"http://terminology.hl7.org/CodeSystem/measure-population","code":"numerator","display":"Numerator"}]},"count":0}]}]},"request":{"method":"PUT","url":"MeasureReport/d87fbc98-d5d2-4719-a2da-ae57483b38bc"}}]}