{"resourceType":"Bundle","id":"tests-96744bfd-c149-412a-8578-fb3f8c91e874-bundle","type":"transaction","entry":[{"fullUrl":"https://madie.cms.gov/Patient/96744bfd-c149-412a-8578-fb3f8c91e874","resource":{"resourceType":"Patient","id":"96744bfd-c149-412a-8578-fb3f8c91e874","meta":{"profile":["http://hl7.org/fhir/us/qicore/StructureDefinition/qicore-patient"]},"text":{"status":"generated","div":"<div xmlns=\"http://www.w3.org/1999/xhtml\"><div class=\"hapiHeaderText\">INR3_DayAFAnes2DayAFAdm <b>NUMERFAIL </b></div><table class=\"hapiPropertyTable\"><tbody><tr><td>Identifier</td><td>8bd671bd3428c0f81ecc641fa9a09fe5</td></tr><tr><td>Date of birth</td><td><span>02 January 1974</span></td></tr></tbody></table></div>"},"extension":[{"url":"http://hl7.org/fhir/us/core/StructureDefinition/us-core-race","extension":[{"url":"ombCategory","valueCoding":{"system":"urn:oid:2.16.840.1.113883.6.238","code":"1002-5","display":"American Indian or Alaska Native","userSelected":true}},{"url":"text","valueString":"American Indian or Alaska Native"}]},{"url":"http://hl7.org/fhir/us/core/StructureDefinition/us-core-ethnicity","extension":[{"url":"ombCategory","valueCoding":{"system":"urn:oid:2.16.840.1.113883.6.238","code":"2135-2","display":"Hispanic or Latino","userSelected":true}},{"url":"text","valueString":"Hispanic or Latino"}]}],"identifier":[{"type":{"coding":[{"system":"http://terminology.hl7.org/CodeSystem/v2-0203","code":"MR"}]},"system":"https://bonnie-fhir.healthit.gov/","value":"612e6b4d02c62a011f2ed391"}],"active":true,"name":[{"use":"usual","family":"NUMERFail","given":["INR3_DayAFAnes2DayAFAdm"]}],"gender":"male","birthDate":"1974-01-02"},"request":{"method":"PUT","url":"Patient/96744bfd-c149-412a-8578-fb3f8c91e874"}},{"fullUrl":"https://madie.cms.gov/Encounter/5ca62960b8484628b8de1e74","resource":{"resourceType":"Encounter","id":"b9f05f9d-dbf2-46c8-89a5-d47a2a351095","meta":{"profile":["http://hl7.org/fhir/us/qicore/StructureDefinition/qicore-encounter"]},"status":"finished","class":{"system":"http://terminology.hl7.org/CodeSystem/v3-ActCode","code":"IMP","display":"inpatient encounter"},"type":[{"coding":[{"system":"http://snomed.info/sct","code":"8715000"}]}],"subject":{"reference":"Patient/96744bfd-c149-412a-8578-fb3f8c91e874"},"period":{"start":"2025-11-01T08:00:00+00:00","end":"2025-11-26T08:15:00+00:00"},"length":{"value":25.0,"unit":"days"}},"request":{"method":"PUT","url":"Encounter/b9f05f9d-dbf2-46c8-89a5-d47a2a351095"}},{"fullUrl":"https://madie.cms.gov/Coverage/5fa041591c76ba66d9959286","resource":{"resourceType":"Coverage","id":"806e47c8-a62c-44e6-b509-a58395789d94","status":"active","beneficiary":{"reference":"Patient/96744bfd-c149-412a-8578-fb3f8c91e874"},"period":{"start":"1974-01-02T08:00:00+00:00"},"payor":[{"reference":"Organization/26111c91-b0e2-476c-a20b-e3f39799f8f5"}]},"request":{"method":"PUT","url":"Coverage/806e47c8-a62c-44e6-b509-a58395789d94"}},{"fullUrl":"https://madie.cms.gov/Observation/5ca62960b8484628b8de1e76","resource":{"resourceType":"Observation","id":"d3eea7f7-2f90-4bce-8356-8c3a3653bf84","meta":{"profile":["http://hl7.org/fhir/us/core/StructureDefinition/us-core-observation-lab"]},"status":"final","category":[{"coding":[{"system":"http://terminology.hl7.org/CodeSystem/observation-category","code":"laboratory","display":"Laboratory"}]}],"code":{"coding":[{"system":"http://loinc.org","code":"34714-6"}]},"subject":{"reference":"Patient/96744bfd-c149-412a-8578-fb3f8c91e874"},"issued":"2025-11-03T11:00:00.000+00:00","valueQuantity":{"value":3.0,"unit":"{INR}"}},"request":{"method":"PUT","url":"Observation/d3eea7f7-2f90-4bce-8356-8c3a3653bf84"}},{"fullUrl":"https://madie.cms.gov/Procedure/5ca62960b8484628b8de1e75","resource":{"resourceType":"Procedure","id":"b8f3cf50-0f17-4fca-8345-25ba4a1899e8","meta":{"profile":["http://hl7.org/fhir/us/qicore/StructureDefinition/qicore-procedure"]},"extension":[{"url":"http://hl7.org/fhir/us/qicore/StructureDefinition/qicore-recorded","valueDateTime":"2012-12-04T09:35:00-04:00"}],"status":"completed","code":{"coding":[{"system":"http://www.icd10data.com/icd10pcs","code":"3E030FZ"},{"system":"http://snomed.info/sct","code":"18946005"}]},"subject":{"reference":"Patient/96744bfd-c149-412a-8578-fb3f8c91e874"},"performedPeriod":{"start":"2025-11-02T09:00:00+00:00","end":"2025-11-02T09:15:00+00:00"}},"request":{"method":"PUT","url":"Procedure/b8f3cf50-0f17-4fca-8345-25ba4a1899e8"}},{"fullUrl":"https://madie.cms.gov/Organization/123456","resource":{"resourceType":"Organization","id":"26111c91-b0e2-476c-a20b-e3f39799f8f5","meta":{"profile":["http://hl7.org/fhir/us/qicore/StructureDefinition/qicore-organization"]},"identifier":[{"use":"temp","system":"urn:oid:2.16.840.1.113883.4.4","value":"21-3259825"}],"active":true,"type":[{"coding":[{"system":"http://terminology.hl7.org/CodeSystem/organization-type","code":"pay","display":"Payer"}]}],"name":"Blue Cross Blue Shield of Texas","telecom":[{"system":"phone","value":"(+1) 972-766-6900"}],"address":[{"use":"billing","type":"postal","line":["P.O. Box 660044"],"city":"Dallas","state":"TX","postalCode":"75266-0044","country":"USA"}]},"request":{"method":"PUT","url":"Organization/26111c91-b0e2-476c-a20b-e3f39799f8f5"}},{"fullUrl":"https://madie.cms.gov/Practitioner/practitioner-123456","resource":{"resourceType":"Practitioner","id":"85130152-50b5-4132-8263-d578fa82a204","identifier":[{"system":"http://hl7.org/fhir/sid/us-npi","value":"123456"}],"name":[{"family":"Evil","prefix":["Dr"]}]},"request":{"method":"PUT","url":"Practitioner/85130152-50b5-4132-8263-d578fa82a204"}},{"fullUrl":"https://madie.cms.gov/MeasureReport/4e18054e-96ae-4816-9295-afb768b866ab","resource":{"resourceType":"MeasureReport","id":"4e18054e-96ae-4816-9295-afb768b866ab","meta":{"profile":["http://hl7.org/fhir/us/cqfmeasures/StructureDefinition/test-case-cqfm"]},"contained":[{"resourceType":"Parameters","id":"b11cc304-8b8e-4cc3-84ad-bda4c8061b01-parameters","parameter":[{"name":"subject","valueString":"96744bfd-c149-412a-8578-fb3f8c91e874"}]}],"extension":[{"url":"http://hl7.org/fhir/us/cqfmeasures/StructureDefinition/cqfm-inputParameters","valueReference":{"reference":"#b11cc304-8b8e-4cc3-84ad-bda4c8061b01-parameters"}},{"url":"http://hl7.org/fhir/us/cqfmeasures/StructureDefinition/cqfm-testCaseDescription","valueMarkdown":">18, dx VTE, LOS<120 day,   LabResult INR=3 no decimal,  day After surgery, 2 day after Adm\n"}],"modifierExtension":[{"url":"http://hl7.org/fhir/us/cqfmeasures/StructureDefinition/cqfm-isTestCase","valueBoolean":true}],"status":"complete","type":"individual","measure":"https://madie.cms.gov/Measure/VenousThromboembolismProphylaxisFHIR","period":{"start":"2025-01-01","end":"2025-12-31"},"group":[{"population":[{"code":{"coding":[{"system":"http://terminology.hl7.org/CodeSystem/measure-population","code":"initial-population","display":"Initial Population"}]},"count":1},{"code":{"coding":[{"system":"http://terminology.hl7.org/CodeSystem/measure-population","code":"denominator","display":"Denominator"}]},"count":1},{"code":{"coding":[{"system":"http://terminology.hl7.org/CodeSystem/measure-population","code":"denominator-exclusion","display":"Denominator Exclusion"}]},"count":0},{"code":{"coding":[{"system":"http://terminology.hl7.org/CodeSystem/measure-population","code":"numerator","display":"Numerator"}]},"count":0}]}]},"request":{"method":"PUT","url":"MeasureReport/4e18054e-96ae-4816-9295-afb768b866ab"}}]}