{"resourceType":"Bundle","id":"tests-bc83eb4d-4953-4995-9a14-5e2a764a6728-bundle","type":"transaction","entry":[{"fullUrl":"https://madie.cms.gov/Patient/bc83eb4d-4953-4995-9a14-5e2a764a6728","resource":{"resourceType":"Patient","id":"bc83eb4d-4953-4995-9a14-5e2a764a6728","meta":{"profile":["http://hl7.org/fhir/us/qicore/StructureDefinition/qicore-patient"]},"text":{"status":"generated","div":"<div xmlns=\"http://www.w3.org/1999/xhtml\"><div class=\"hapiHeaderText\">TestMultipleOccur_1inExcl1inNum <b>NUMERPASS </b></div><table class=\"hapiPropertyTable\"><tbody><tr><td>Identifier</td><td>c25140d0e4b4dc40f8f038d62a9837e3e354787555978149ab2cc0d8c8c47525</td></tr><tr><td>Date of birth</td><td><span>02 January 1974</span></td></tr></tbody></table></div>"},"extension":[{"url":"http://hl7.org/fhir/us/core/StructureDefinition/us-core-race","extension":[{"url":"ombCategory","valueCoding":{"system":"urn:oid:2.16.840.1.113883.6.238","code":"1002-5","display":"American Indian or Alaska Native","userSelected":true}},{"url":"text","valueString":"American Indian or Alaska Native"}]},{"url":"http://hl7.org/fhir/us/core/StructureDefinition/us-core-ethnicity","extension":[{"url":"ombCategory","valueCoding":{"system":"urn:oid:2.16.840.1.113883.6.238","code":"2135-2","display":"Hispanic or Latino","userSelected":true}},{"url":"text","valueString":"Hispanic or Latino"}]}],"identifier":[{"type":{"coding":[{"system":"http://terminology.hl7.org/CodeSystem/v2-0203","code":"MR"}]},"system":"https://bonnie-fhir.healthit.gov/","value":"612e6aef02c62a011f2ebd2e"}],"active":true,"name":[{"use":"usual","family":"NUMERPass","given":["TestMultipleOccur_1inExcl1inNum"]}],"gender":"male","birthDate":"1974-01-02"},"request":{"method":"PUT","url":"Patient/bc83eb4d-4953-4995-9a14-5e2a764a6728"}},{"fullUrl":"https://madie.cms.gov/Encounter/5ca62965b8484628b8de1fd9","resource":{"resourceType":"Encounter","id":"366f524d-0659-4c7d-8156-0b4b3446ae01","meta":{"profile":["http://hl7.org/fhir/us/qicore/StructureDefinition/qicore-encounter"]},"status":"finished","class":{"system":"http://terminology.hl7.org/CodeSystem/v3-ActCode","code":"IMP","display":"inpatient encounter"},"type":[{"coding":[{"system":"http://snomed.info/sct","code":"183452005"}]}],"subject":{"reference":"Patient/bc83eb4d-4953-4995-9a14-5e2a764a6728"},"period":{"start":"2025-04-01T08:00:00+00:00","end":"2025-04-05T08:15:00+00:00"},"length":{"value":4.0,"unit":"days"}},"request":{"method":"PUT","url":"Encounter/366f524d-0659-4c7d-8156-0b4b3446ae01"}},{"fullUrl":"https://madie.cms.gov/Encounter/5ca62965b8484628b8de1fda","resource":{"resourceType":"Encounter","id":"fce334ce-5f02-4d08-8343-dd9290c33766","meta":{"profile":["http://hl7.org/fhir/us/qicore/StructureDefinition/qicore-encounter"]},"status":"finished","class":{"system":"http://terminology.hl7.org/CodeSystem/v3-ActCode","code":"IMP","display":"inpatient encounter"},"type":[{"coding":[{"system":"http://snomed.info/sct","code":"8715000"}]}],"subject":{"reference":"Patient/bc83eb4d-4953-4995-9a14-5e2a764a6728"},"period":{"start":"2025-11-01T08:00:00+00:00","end":"2025-11-26T08:15:00+00:00"},"length":{"value":25.0,"unit":"days"}},"request":{"method":"PUT","url":"Encounter/fce334ce-5f02-4d08-8343-dd9290c33766"}},{"fullUrl":"https://madie.cms.gov/Procedure/5ca62965b8484628b8de1fdd","resource":{"resourceType":"Procedure","id":"64dd6ae1-5a94-45fb-a0a2-79bd50369b7c","meta":{"profile":["http://hl7.org/fhir/us/qicore/StructureDefinition/qicore-procedure"]},"extension":[{"url":"http://hl7.org/fhir/us/qicore/StructureDefinition/qicore-recorded","valueDateTime":"2012-04-03T09:35:00-04:00"}],"status":"completed","code":{"coding":[{"system":"http://snomed.info/sct","code":"133918004"}]},"subject":{"reference":"Patient/bc83eb4d-4953-4995-9a14-5e2a764a6728"},"performedPeriod":{"start":"2025-04-01T08:00:00+00:00","end":"2025-04-01T08:15:00+00:00"}},"request":{"method":"PUT","url":"Procedure/64dd6ae1-5a94-45fb-a0a2-79bd50369b7c"}},{"fullUrl":"https://madie.cms.gov/Coverage/5fa041641c76ba66d9959343","resource":{"resourceType":"Coverage","id":"1d471474-fd1f-41f6-ad3b-7fc981b211ed","status":"active","beneficiary":{"reference":"Patient/bc83eb4d-4953-4995-9a14-5e2a764a6728"},"period":{"start":"1974-01-02T08:00:00+00:00"},"payor":[{"reference":"Organization/26111c91-b0e2-476c-a20b-e3f39799f8f5"}]},"request":{"method":"PUT","url":"Coverage/1d471474-fd1f-41f6-ad3b-7fc981b211ed"}},{"fullUrl":"https://madie.cms.gov/MedicationAdministration/warfarin-2500","resource":{"resourceType":"MedicationAdministration","id":"b9b1b4da-9bd3-42c9-99b5-c2a98f418fa2","meta":{"profile":["http://hl7.org/fhir/us/qicore/StructureDefinition/qicore-medicationadministration"]},"status":"completed","medicationCodeableConcept":{"coding":[{"system":"http://www.nlm.nih.gov/research/umls/rxnorm","code":"855288","display":"warfarin sodium 1 MG Oral Tablet","userSelected":true}]},"subject":{"reference":"Patient/bc83eb4d-4953-4995-9a14-5e2a764a6728"},"effectiveDateTime":"2025-11-01T10:00:00.000+00:00"},"request":{"method":"PUT","url":"MedicationAdministration/b9b1b4da-9bd3-42c9-99b5-c2a98f418fa2"}},{"fullUrl":"https://madie.cms.gov/Organization/123456","resource":{"resourceType":"Organization","id":"26111c91-b0e2-476c-a20b-e3f39799f8f5","meta":{"profile":["http://hl7.org/fhir/us/qicore/StructureDefinition/qicore-organization"]},"identifier":[{"use":"temp","system":"urn:oid:2.16.840.1.113883.4.4","value":"21-3259825"}],"active":true,"type":[{"coding":[{"system":"http://terminology.hl7.org/CodeSystem/organization-type","code":"pay","display":"Payer"}]}],"name":"Blue Cross Blue Shield of Texas","telecom":[{"system":"phone","value":"(+1) 972-766-6900"}],"address":[{"use":"billing","type":"postal","line":["P.O. Box 660044"],"city":"Dallas","state":"TX","postalCode":"75266-0044","country":"USA"}]},"request":{"method":"PUT","url":"Organization/26111c91-b0e2-476c-a20b-e3f39799f8f5"}},{"fullUrl":"https://madie.cms.gov/Practitioner/practitioner-123456","resource":{"resourceType":"Practitioner","id":"b4eddf9d-9bd3-4fdf-a0f6-3353f96c6572","identifier":[{"system":"http://hl7.org/fhir/sid/us-npi","value":"123456"}],"name":[{"family":"Evil","prefix":["Dr"]}]},"request":{"method":"PUT","url":"Practitioner/b4eddf9d-9bd3-4fdf-a0f6-3353f96c6572"}},{"fullUrl":"https://madie.cms.gov/MeasureReport/0021f2c2-9196-4dca-8fc6-584c904581b1","resource":{"resourceType":"MeasureReport","id":"0021f2c2-9196-4dca-8fc6-584c904581b1","meta":{"profile":["http://hl7.org/fhir/us/cqfmeasures/StructureDefinition/test-case-cqfm"]},"contained":[{"resourceType":"Parameters","id":"33d81974-9cf3-4b76-a02d-e8b03f423301-parameters","parameter":[{"name":"subject","valueString":"bc83eb4d-4953-4995-9a14-5e2a764a6728"}]}],"extension":[{"url":"http://hl7.org/fhir/us/cqfmeasures/StructureDefinition/cqfm-inputParameters","valueReference":{"reference":"#33d81974-9cf3-4b76-a02d-e8b03f423301-parameters"}},{"url":"http://hl7.org/fhir/us/cqfmeasures/StructureDefinition/cqfm-testCaseDescription","valueMarkdown":"TestMultipleOccur - 2 occurrences one is excluded due to COMP and one pass numerator\n"}],"modifierExtension":[{"url":"http://hl7.org/fhir/us/cqfmeasures/StructureDefinition/cqfm-isTestCase","valueBoolean":true}],"status":"complete","type":"individual","measure":"https://madie.cms.gov/Measure/VenousThromboembolismProphylaxisFHIR","period":{"start":"2025-01-01","end":"2025-12-31"},"group":[{"population":[{"code":{"coding":[{"system":"http://terminology.hl7.org/CodeSystem/measure-population","code":"initial-population","display":"Initial Population"}]},"count":2},{"code":{"coding":[{"system":"http://terminology.hl7.org/CodeSystem/measure-population","code":"denominator","display":"Denominator"}]},"count":2},{"code":{"coding":[{"system":"http://terminology.hl7.org/CodeSystem/measure-population","code":"denominator-exclusion","display":"Denominator Exclusion"}]},"count":1},{"code":{"coding":[{"system":"http://terminology.hl7.org/CodeSystem/measure-population","code":"numerator","display":"Numerator"}]},"count":1}]}]},"request":{"method":"PUT","url":"MeasureReport/0021f2c2-9196-4dca-8fc6-584c904581b1"}}]}