{"resourceType":"Bundle","id":"tests-3dcb32cf-6ad1-4a44-89da-1125e19b5c8c-bundle","type":"transaction","entry":[{"fullUrl":"https://madie.cms.gov/Patient/3dcb32cf-6ad1-4a44-89da-1125e19b5c8c","resource":{"resourceType":"Patient","id":"3dcb32cf-6ad1-4a44-89da-1125e19b5c8c","meta":{"profile":["http://hl7.org/fhir/us/qicore/StructureDefinition/qicore-patient"]},"text":{"status":"generated","div":"<div xmlns=\"http://www.w3.org/1999/xhtml\"><div class=\"hapiHeaderText\">PtRef_DO_GCS=1DayAFAnes <b>NUMERPASS </b></div><table class=\"hapiPropertyTable\"><tbody><tr><td>Identifier</td><td>24fc1ce85ce14557dd4d9eba17df9f17</td></tr><tr><td>Date of birth</td><td><span>02 January 1974</span></td></tr></tbody></table></div>"},"extension":[{"url":"http://hl7.org/fhir/us/core/StructureDefinition/us-core-race","extension":[{"url":"ombCategory","valueCoding":{"system":"urn:oid:2.16.840.1.113883.6.238","code":"1002-5","display":"American Indian or Alaska Native","userSelected":true}},{"url":"text","valueString":"American Indian or Alaska Native"}]},{"url":"http://hl7.org/fhir/us/core/StructureDefinition/us-core-ethnicity","extension":[{"url":"ombCategory","valueCoding":{"system":"urn:oid:2.16.840.1.113883.6.238","code":"2135-2","display":"Hispanic or Latino","userSelected":true}},{"url":"text","valueString":"Hispanic or Latino"}]}],"identifier":[{"type":{"coding":[{"system":"http://terminology.hl7.org/CodeSystem/v2-0203","code":"MR"}]},"system":"https://bonnie-fhir.healthit.gov/","value":"612e6b9302c62a011f2ee63c"}],"active":true,"name":[{"use":"usual","family":"NUMERPass","given":["PtRef_DO_IPC=1DayAFAnes"]}],"gender":"male","birthDate":"1974-01-02"},"request":{"method":"PUT","url":"Patient/3dcb32cf-6ad1-4a44-89da-1125e19b5c8c"}},{"fullUrl":"https://madie.cms.gov/Encounter/5ca6295eb8484628b8de1d83","resource":{"resourceType":"Encounter","id":"b875d09f-0504-4448-a315-7bc8bf18cc1f","meta":{"profile":["http://hl7.org/fhir/us/qicore/StructureDefinition/qicore-encounter"]},"status":"finished","class":{"system":"http://terminology.hl7.org/CodeSystem/v3-ActCode","code":"IMP","display":"inpatient encounter"},"type":[{"coding":[{"system":"http://snomed.info/sct","code":"8715000"}]}],"subject":{"reference":"Patient/3dcb32cf-6ad1-4a44-89da-1125e19b5c8c"},"period":{"start":"2025-11-01T08:00:00+00:00","end":"2025-11-26T08:15:00+00:00"},"length":{"value":25,"unit":"days"}},"request":{"method":"PUT","url":"Encounter/b875d09f-0504-4448-a315-7bc8bf18cc1f"}},{"fullUrl":"https://madie.cms.gov/Coverage/5fa0414d1c76ba66d99591ba","resource":{"resourceType":"Coverage","id":"493e0cf0-7a62-4800-8f40-b0c851f6f0b5","status":"active","beneficiary":{"reference":"Patient/3dcb32cf-6ad1-4a44-89da-1125e19b5c8c"},"period":{"start":"1974-01-02T08:00:00+00:00"},"payor":[{"reference":"Organization/26111c91-b0e2-476c-a20b-e3f39799f8f5"}]},"request":{"method":"PUT","url":"Coverage/493e0cf0-7a62-4800-8f40-b0c851f6f0b5"}},{"fullUrl":"https://madie.cms.gov/Procedure/5ca6295eb8484628b8de1d85","resource":{"resourceType":"Procedure","id":"ecc086eb-ab44-4965-8481-42f0c8173dd0","meta":{"profile":["http://hl7.org/fhir/us/qicore/StructureDefinition/qicore-procedure"]},"extension":[{"url":"http://hl7.org/fhir/us/qicore/StructureDefinition/qicore-recorded","valueDateTime":"2012-11-03T09:35:00-04:00"}],"status":"completed","code":{"coding":[{"system":"http://www.icd10data.com/icd10pcs","code":"3E030FZ"},{"system":"http://snomed.info/sct","code":"18946005"}]},"subject":{"reference":"Patient/3dcb32cf-6ad1-4a44-89da-1125e19b5c8c"},"performedPeriod":{"start":"2025-11-02T09:00:00+00:00","end":"2025-11-02T09:15:00+00:00"}},"request":{"method":"PUT","url":"Procedure/ecc086eb-ab44-4965-8481-42f0c8173dd0"}},{"fullUrl":"https://madie.cms.gov/ServiceRequest/intermittent-pneumatic-compression-devices-ipc-24fb","resource":{"resourceType":"ServiceRequest","id":"5cdd579e-78a2-410d-93ad-cbc93b521540","meta":{"profile":["http://hl7.org/fhir/us/qicore/StructureDefinition/qicore-servicenotrequested"]},"extension":[{"url":"http://hl7.org/fhir/us/qicore/StructureDefinition/qicore-doNotPerformReason","valueCodeableConcept":{"coding":[{"system":"http://snomed.info/sct","code":"443390004","display":"Refusal of treatment by patient (situation)"}]}}],"status":"completed","intent":"order","doNotPerform":true,"code":{"coding":[{"system":"http://snomed.info/sct","version":"2025-03","code":"428411000124104","display":"Intermittent pneumatic compression boot (physical object)","userSelected":true}]},"subject":{"reference":"Patient/3dcb32cf-6ad1-4a44-89da-1125e19b5c8c"},"authoredOn":"2025-11-02T11:00:00.000+00:00"},"request":{"method":"PUT","url":"ServiceRequest/5cdd579e-78a2-410d-93ad-cbc93b521540"}},{"fullUrl":"https://madie.cms.gov/Organization/123456","resource":{"resourceType":"Organization","id":"26111c91-b0e2-476c-a20b-e3f39799f8f5","meta":{"profile":["http://hl7.org/fhir/us/qicore/StructureDefinition/qicore-organization"]},"identifier":[{"use":"temp","system":"urn:oid:2.16.840.1.113883.4.4","value":"21-3259825"}],"active":true,"type":[{"coding":[{"system":"http://terminology.hl7.org/CodeSystem/organization-type","code":"pay","display":"Payer"}]}],"name":"Blue Cross Blue Shield of Texas","telecom":[{"system":"phone","value":"(+1) 972-766-6900"}],"address":[{"use":"billing","type":"postal","line":["P.O. Box 660044"],"city":"Dallas","state":"TX","postalCode":"75266-0044","country":"USA"}]},"request":{"method":"PUT","url":"Organization/26111c91-b0e2-476c-a20b-e3f39799f8f5"}},{"fullUrl":"https://madie.cms.gov/Practitioner/practitioner-123456","resource":{"resourceType":"Practitioner","id":"ed0cecd3-7364-4b78-96f6-ce4328a6389e","identifier":[{"system":"http://hl7.org/fhir/sid/us-npi","value":"123456"}],"name":[{"family":"Evil","prefix":["Dr"]}]},"request":{"method":"PUT","url":"Practitioner/ed0cecd3-7364-4b78-96f6-ce4328a6389e"}},{"fullUrl":"https://madie.cms.gov/MeasureReport/1015158c-bf82-4413-9696-82ad91b18dab","resource":{"resourceType":"MeasureReport","id":"1015158c-bf82-4413-9696-82ad91b18dab","meta":{"profile":["http://hl7.org/fhir/us/cqfmeasures/StructureDefinition/test-case-cqfm"]},"contained":[{"resourceType":"Parameters","id":"65f72200-6b5e-4b5e-99dc-0e2a3daba9a6-parameters","parameter":[{"name":"subject","valueString":"3dcb32cf-6ad1-4a44-89da-1125e19b5c8c"}]}],"extension":[{"url":"http://hl7.org/fhir/us/cqfmeasures/StructureDefinition/cqfm-inputParameters","valueReference":{"reference":"#65f72200-6b5e-4b5e-99dc-0e2a3daba9a6-parameters"}},{"url":"http://hl7.org/fhir/us/cqfmeasures/StructureDefinition/cqfm-testCaseDescription","valueMarkdown":"patient refused IPC order on 1 day after start of IP encounter and same day with Aneth\n"}],"modifierExtension":[{"url":"http://hl7.org/fhir/us/cqfmeasures/StructureDefinition/cqfm-isTestCase","valueBoolean":true}],"status":"complete","type":"individual","measure":"https://madie.cms.gov/Measure/VenousThromboembolismProphylaxisFHIR","period":{"start":"2025-01-01","end":"2025-12-31"},"group":[{"population":[{"code":{"coding":[{"system":"http://terminology.hl7.org/CodeSystem/measure-population","code":"initial-population","display":"Initial Population"}]},"count":1},{"code":{"coding":[{"system":"http://terminology.hl7.org/CodeSystem/measure-population","code":"denominator","display":"Denominator"}]},"count":1},{"code":{"coding":[{"system":"http://terminology.hl7.org/CodeSystem/measure-population","code":"denominator-exclusion","display":"Denominator Exclusion"}]},"count":0},{"code":{"coding":[{"system":"http://terminology.hl7.org/CodeSystem/measure-population","code":"numerator","display":"Numerator"}]},"count":1}]}]},"request":{"method":"PUT","url":"MeasureReport/1015158c-bf82-4413-9696-82ad91b18dab"}}]}