{"resourceType":"Bundle","id":"tests-73673965-9b35-446e-bad7-1701991e6906-bundle","type":"transaction","entry":[{"fullUrl":"https://madie.cms.gov/Patient/73673965-9b35-446e-bad7-1701991e6906","resource":{"resourceType":"Patient","id":"73673965-9b35-446e-bad7-1701991e6906","meta":{"profile":["http://hl7.org/fhir/us/qicore/StructureDefinition/qicore-patient"]},"text":{"status":"generated","div":"<div xmlns=\"http://www.w3.org/1999/xhtml\"><div class=\"hapiHeaderText\">VTERiskAssStartEDendOnIPEncStart <b>NUMERPASS </b></div><table class=\"hapiPropertyTable\"><tbody><tr><td>Identifier</td><td>9eeaae30f2c13f342ba722a8c92cd6bf</td></tr><tr><td>Date of birth</td><td><span>02 January 1974</span></td></tr></tbody></table></div>"},"extension":[{"url":"http://hl7.org/fhir/us/core/StructureDefinition/us-core-race","extension":[{"url":"ombCategory","valueCoding":{"system":"urn:oid:2.16.840.1.113883.6.238","code":"1002-5","display":"American Indian or Alaska Native","userSelected":true}},{"url":"text","valueString":"American Indian or Alaska Native"}]},{"url":"http://hl7.org/fhir/us/core/StructureDefinition/us-core-ethnicity","extension":[{"url":"ombCategory","valueCoding":{"system":"urn:oid:2.16.840.1.113883.6.238","code":"2135-2","display":"Hispanic or Latino","userSelected":true}},{"url":"text","valueString":"Hispanic or Latino"}]}],"identifier":[{"type":{"coding":[{"system":"http://terminology.hl7.org/CodeSystem/v2-0203","code":"MR"}]},"system":"https://bonnie-fhir.healthit.gov/","value":"612e6b2902c62a011f2ecaf3"}],"active":true,"name":[{"use":"usual","family":"NUMERPass","given":["VTERiskAssStartEDendOnIPEncStart"]}],"gender":"male","birthDate":"1974-01-02"},"request":{"method":"PUT","url":"Patient/73673965-9b35-446e-bad7-1701991e6906"}},{"fullUrl":"https://madie.cms.gov/Encounter/5ca6295cb8484628b8de1d13","resource":{"resourceType":"Encounter","id":"299cb8b2-9178-4353-8149-45f4e1131120","meta":{"profile":["http://hl7.org/fhir/us/qicore/StructureDefinition/qicore-encounter"]},"status":"finished","class":{"system":"http://terminology.hl7.org/CodeSystem/v3-ActCode","code":"EMER","display":"emergency"},"type":[{"coding":[{"system":"http://snomed.info/sct","code":"4525004"}]}],"subject":{"reference":"Patient/73673965-9b35-446e-bad7-1701991e6906"},"period":{"start":"2025-11-01T06:00:00+00:00","end":"2025-11-01T08:00:00+00:00"},"length":{"value":0.0,"unit":"days"}},"request":{"method":"PUT","url":"Encounter/299cb8b2-9178-4353-8149-45f4e1131120"}},{"fullUrl":"https://madie.cms.gov/Encounter/5ca6295cb8484628b8de1d14","resource":{"resourceType":"Encounter","id":"07912b59-8155-48ac-b1e3-e9e2cf86dbf5","meta":{"profile":["http://hl7.org/fhir/us/qicore/StructureDefinition/qicore-encounter"]},"status":"finished","class":{"system":"http://terminology.hl7.org/CodeSystem/v3-ActCode","code":"IMP","display":"inpatient encounter"},"type":[{"coding":[{"system":"http://snomed.info/sct","code":"8715000"}]}],"subject":{"reference":"Patient/73673965-9b35-446e-bad7-1701991e6906"},"period":{"start":"2025-11-01T08:00:00+00:00","end":"2025-11-26T08:15:00+00:00"},"length":{"value":25.0,"unit":"days"}},"request":{"method":"PUT","url":"Encounter/07912b59-8155-48ac-b1e3-e9e2cf86dbf5"}},{"fullUrl":"https://madie.cms.gov/Observation/5ca6295cb8484628b8de1d15","resource":{"resourceType":"Observation","id":"fd8fabe4-4d0f-4c1a-9fd8-9eb682ee6486","meta":{"profile":["http://hl7.org/fhir/us/qicore/StructureDefinition/qicore-observation"]},"status":"final","category":[{"coding":[{"system":"http://terminology.hl7.org/CodeSystem/observation-category","code":"exam","display":"Exam","userSelected":true}]}],"code":{"coding":[{"system":"http://loinc.org","code":"72136-5"}]},"subject":{"reference":"Patient/73673965-9b35-446e-bad7-1701991e6906"},"effectivePeriod":{"start":"2025-11-01T07:15:00.000+00:00"},"valueCodeableConcept":{"coding":[{"system":"http://snomed.info/sct","code":"260362008","display":"Low Risk"}]}},"request":{"method":"PUT","url":"Observation/fd8fabe4-4d0f-4c1a-9fd8-9eb682ee6486"}},{"fullUrl":"https://madie.cms.gov/Coverage/5fa041581c76ba66d995927a","resource":{"resourceType":"Coverage","id":"e8b9db9f-d8d1-4123-882a-84ad8923f391","status":"active","beneficiary":{"reference":"Patient/73673965-9b35-446e-bad7-1701991e6906"},"period":{"start":"1974-01-02T08:00:00+00:00"},"payor":[{"reference":"Organization/26111c91-b0e2-476c-a20b-e3f39799f8f5"}]},"request":{"method":"PUT","url":"Coverage/e8b9db9f-d8d1-4123-882a-84ad8923f391"}},{"fullUrl":"https://madie.cms.gov/Organization/123456","resource":{"resourceType":"Organization","id":"26111c91-b0e2-476c-a20b-e3f39799f8f5","meta":{"profile":["http://hl7.org/fhir/us/qicore/StructureDefinition/qicore-organization"]},"identifier":[{"use":"temp","system":"urn:oid:2.16.840.1.113883.4.4","value":"21-3259825"}],"active":true,"type":[{"coding":[{"system":"http://terminology.hl7.org/CodeSystem/organization-type","code":"pay","display":"Payer"}]}],"name":"Blue Cross Blue Shield of Texas","telecom":[{"system":"phone","value":"(+1) 972-766-6900"}],"address":[{"use":"billing","type":"postal","line":["P.O. Box 660044"],"city":"Dallas","state":"TX","postalCode":"75266-0044","country":"USA"}]},"request":{"method":"PUT","url":"Organization/26111c91-b0e2-476c-a20b-e3f39799f8f5"}},{"fullUrl":"https://madie.cms.gov/Practitioner/practitioner-123456","resource":{"resourceType":"Practitioner","id":"5de5556e-8f21-4cae-a991-a1bd20700864","identifier":[{"system":"http://hl7.org/fhir/sid/us-npi","value":"123456"}],"name":[{"family":"Evil","prefix":["Dr"]}]},"request":{"method":"PUT","url":"Practitioner/5de5556e-8f21-4cae-a991-a1bd20700864"}},{"fullUrl":"https://madie.cms.gov/MeasureReport/f1948bed-a9c1-44f2-b4ef-225afc6bcbfc","resource":{"resourceType":"MeasureReport","id":"f1948bed-a9c1-44f2-b4ef-225afc6bcbfc","meta":{"profile":["http://hl7.org/fhir/us/cqfmeasures/StructureDefinition/test-case-cqfm"]},"contained":[{"resourceType":"Parameters","id":"0af38de5-04bf-4fc0-8422-e3014fe670da-parameters","parameter":[{"name":"subject","valueString":"73673965-9b35-446e-bad7-1701991e6906"}]}],"extension":[{"url":"http://hl7.org/fhir/us/cqfmeasures/StructureDefinition/cqfm-inputParameters","valueReference":{"reference":"#0af38de5-04bf-4fc0-8422-e3014fe670da-parameters"}},{"url":"http://hl7.org/fhir/us/cqfmeasures/StructureDefinition/cqfm-testCaseDescription","valueMarkdown":"\">18, LOS<120 day,Risk, RCA period start in ED (RCA endtime is null, and ED.end = IP.start\n\"\n"}],"modifierExtension":[{"url":"http://hl7.org/fhir/us/cqfmeasures/StructureDefinition/cqfm-isTestCase","valueBoolean":true}],"status":"complete","type":"individual","measure":"https://madie.cms.gov/Measure/VenousThromboembolismProphylaxisFHIR","period":{"start":"2025-01-01","end":"2025-12-31"},"group":[{"population":[{"code":{"coding":[{"system":"http://terminology.hl7.org/CodeSystem/measure-population","code":"initial-population","display":"Initial Population"}]},"count":1},{"code":{"coding":[{"system":"http://terminology.hl7.org/CodeSystem/measure-population","code":"denominator","display":"Denominator"}]},"count":1},{"code":{"coding":[{"system":"http://terminology.hl7.org/CodeSystem/measure-population","code":"denominator-exclusion","display":"Denominator Exclusion"}]},"count":0},{"code":{"coding":[{"system":"http://terminology.hl7.org/CodeSystem/measure-population","code":"numerator","display":"Numerator"}]},"count":1}]}]},"request":{"method":"PUT","url":"MeasureReport/f1948bed-a9c1-44f2-b4ef-225afc6bcbfc"}}]}