{
  "resourceType": "Bundle",
  "id": "64946654d09ece2c2e9bf919",
  "type": "transaction",
  "entry": [ {
    "fullUrl": "https://madie.cms.gov/Patient/c1ac2e8a-6c58-4c63-943c-e73bc94e209a",
    "resource": {
      "resourceType": "Patient",
      "id": "c1ac2e8a-6c58-4c63-943c-e73bc94e209a",
      "meta": {
        "profile": [ "http://hl7.org/fhir/us/qicore/StructureDefinition/qicore-patient" ]
      },
      "extension": [ {
        "url": "http://hl7.org/fhir/us/core/StructureDefinition/us-core-race",
        "extension": [ {
          "url": "ombCategory",
          "valueCoding": {
            "system": "urn:oid:2.16.840.1.113883.6.238",
            "code": "2106-3",
            "display": "White",
            "userSelected": true
          }
        }, {
          "url": "text",
          "valueString": "White"
        } ]
      }, {
        "url": "http://hl7.org/fhir/us/core/StructureDefinition/us-core-ethnicity",
        "extension": [ {
          "url": "ombCategory",
          "valueCoding": {
            "system": "urn:oid:2.16.840.1.113883.6.238",
            "code": "2186-5",
            "display": "Not Hispanic or Latino",
            "userSelected": true
          }
        }, {
          "url": "text",
          "valueString": "Not Hispanic or Latino"
        } ]
      } ],
      "identifier": [ {
        "type": {
          "coding": [ {
            "system": "http://terminology.hl7.org/CodeSystem/v2-0203",
            "code": "MR"
          } ]
        },
        "system": "https://bonnie-fhir.healthit.gov/",
        "value": "64946654d09ece2c2e9bf919"
      } ],
      "name": [ {
        "family": "11NumPass",
        "given": [ "EncEachMonthVLEachMonth" ]
      } ],
      "gender": "male",
      "birthDate": "1976-10-01"
    },
    "request": {
      "method": "POST",
      "url": "Patient/c1ac2e8a-6c58-4c63-943c-e73bc94e209a"
    }
  }, {
    "fullUrl": "https://madie.cms.gov/Condition/hiv-f91a",
    "resource": {
      "resourceType": "Condition",
      "id": "hiv-f91a",
      "meta": {
        "profile": [ "http://hl7.org/fhir/us/qicore/StructureDefinition/qicore-condition" ]
      },
      "clinicalStatus": {
        "coding": [ {
          "system": "http://terminology.hl7.org/CodeSystem/condition-clinical",
          "code": "active",
          "display": "active",
          "userSelected": true
        } ]
      },
      "category": [ {
        "coding": [ {
          "system": "http://terminology.hl7.org/CodeSystem/condition-category",
          "code": "problem-list-item",
          "display": "Problem List Item"
        } ]
      } ],
      "code": {
        "coding": [ {
          "system": "http://hl7.org/fhir/sid/icd-9-cm",
          "version": "2013",
          "code": "042",
          "display": "Human immunodeficiency virus [HIV] disease",
          "userSelected": true
        }, {
          "system": "http://snomed.info/sct",
          "code": "165816005",
          "userSelected": true
        } ]
      },
      "subject": {
        "reference": "Patient/c1ac2e8a-6c58-4c63-943c-e73bc94e209a"
      },
      "onsetDateTime": "2021-06-13T08:00:00.000+00:00",
      "recordedDate": "2021-06-13T08:00:00.000+00:00"
    },
    "request": {
      "method": "POST",
      "url": "Condition/hiv-f91a"
    }
  }, {
    "fullUrl": "https://madie.cms.gov/Encounter/face-to-face-interaction-f91b",
    "resource": {
      "resourceType": "Encounter",
      "id": "face-to-face-interaction-f91b",
      "meta": {
        "profile": [ "http://hl7.org/fhir/us/qicore/StructureDefinition/qicore-encounter" ]
      },
      "status": "finished",
      "class": {
        "system": "http://terminology.hl7.org/CodeSystem/v3-ActCode",
        "code": "AMB",
        "display": "ambulatory"
      },
      "type": [ {
        "coding": [ {
          "system": "http://snomed.info/sct",
          "version": "2022-09",
          "code": "12843005",
          "display": "Subsequent hospital visit by physician (procedure)",
          "userSelected": true
        } ]
      } ],
      "subject": {
        "reference": "Patient/c1ac2e8a-6c58-4c63-943c-e73bc94e209a"
      },
      "period": {
        "start": "2025-01-01T08:00:00.000+00:00",
        "end": "2025-01-01T08:15:00.000+00:00"
      }
    },
    "request": {
      "method": "POST",
      "url": "Encounter/face-to-face-interaction-f91b"
    }
  }, {
    "fullUrl": "https://madie.cms.gov/Encounter/outpatient-consultation-f91c",
    "resource": {
      "resourceType": "Encounter",
      "id": "outpatient-consultation-f91c",
      "meta": {
        "profile": [ "http://hl7.org/fhir/us/qicore/StructureDefinition/qicore-encounter" ]
      },
      "status": "finished",
      "class": {
        "system": "http://terminology.hl7.org/CodeSystem/v3-ActCode",
        "code": "AMB",
        "display": "ambulatory"
      },
      "type": [ {
        "coding": [ {
          "system": "http://snomed.info/sct",
          "version": "2022-09",
          "code": "281036007",
          "display": "Follow-up consultation (procedure)",
          "userSelected": true
        } ]
      } ],
      "subject": {
        "reference": "Patient/c1ac2e8a-6c58-4c63-943c-e73bc94e209a"
      },
      "period": {
        "start": "2025-02-01T08:00:00.000+00:00",
        "end": "2025-02-01T08:15:00.000+00:00"
      }
    },
    "request": {
      "method": "POST",
      "url": "Encounter/outpatient-consultation-f91c"
    }
  }, {
    "fullUrl": "https://madie.cms.gov/Encounter/outpatient-consultation-f91d",
    "resource": {
      "resourceType": "Encounter",
      "id": "outpatient-consultation-f91d",
      "meta": {
        "profile": [ "http://hl7.org/fhir/us/qicore/StructureDefinition/qicore-encounter" ]
      },
      "status": "finished",
      "class": {
        "system": "http://terminology.hl7.org/CodeSystem/v3-ActCode",
        "code": "AMB",
        "display": "ambulatory"
      },
      "type": [ {
        "coding": [ {
          "system": "http://snomed.info/sct",
          "version": "2022-09",
          "code": "281036007",
          "display": "Follow-up consultation (procedure)",
          "userSelected": true
        } ]
      } ],
      "subject": {
        "reference": "Patient/c1ac2e8a-6c58-4c63-943c-e73bc94e209a"
      },
      "period": {
        "start": "2025-03-01T08:00:00.000+00:00",
        "end": "2025-03-01T08:15:00.000+00:00"
      }
    },
    "request": {
      "method": "POST",
      "url": "Encounter/outpatient-consultation-f91d"
    }
  }, {
    "fullUrl": "https://madie.cms.gov/Encounter/annual-wellness-visit-f91e",
    "resource": {
      "resourceType": "Encounter",
      "id": "annual-wellness-visit-f91e",
      "meta": {
        "profile": [ "http://hl7.org/fhir/us/qicore/StructureDefinition/qicore-encounter" ]
      },
      "status": "finished",
      "class": {
        "system": "http://terminology.hl7.org/CodeSystem/v3-ActCode",
        "code": "AMB",
        "display": "ambulatory"
      },
      "type": [ {
        "coding": [ {
          "system": "http://snomed.info/sct",
          "version": "2022-09",
          "code": "444971000124105",
          "display": "Annual wellness visit (procedure)",
          "userSelected": true
        } ]
      } ],
      "subject": {
        "reference": "Patient/c1ac2e8a-6c58-4c63-943c-e73bc94e209a"
      },
      "period": {
        "start": "2025-04-01T08:00:00.000+00:00",
        "end": "2025-04-01T08:15:00.000+00:00"
      }
    },
    "request": {
      "method": "POST",
      "url": "Encounter/annual-wellness-visit-f91e"
    }
  }, {
    "fullUrl": "https://madie.cms.gov/Encounter/preventive-care-services-established-office-visit-18-and-up-f91f",
    "resource": {
      "resourceType": "Encounter",
      "id": "preventive-care-services-established-office-visit-18-and-up-f91f",
      "meta": {
        "profile": [ "http://hl7.org/fhir/us/qicore/StructureDefinition/qicore-encounter" ]
      },
      "status": "finished",
      "class": {
        "system": "http://terminology.hl7.org/CodeSystem/v3-ActCode",
        "code": "AMB",
        "display": "ambulatory"
      },
      "type": [ {
        "coding": [ {
          "system": "http://www.ama-assn.org/go/cpt",
          "version": "2023",
          "code": "99395",
          "display": "Periodic comprehensive preventive medicine reevaluation and management of an individual including an age and gender appropriate history, examination, counseling/anticipatory guidance/risk factor reduction interventions, and the ordering of laboratory/diagnostic procedures, established patient; 18-39 years",
          "userSelected": true
        } ]
      } ],
      "subject": {
        "reference": "Patient/c1ac2e8a-6c58-4c63-943c-e73bc94e209a"
      },
      "period": {
        "start": "2025-05-01T08:00:00.000+00:00",
        "end": "2025-05-01T08:15:00.000+00:00"
      }
    },
    "request": {
      "method": "POST",
      "url": "Encounter/preventive-care-services-established-office-visit-18-and-up-f91f"
    }
  }, {
    "fullUrl": "https://madie.cms.gov/Encounter/preventive-care-services-established-office-visit-18-and-up-f920",
    "resource": {
      "resourceType": "Encounter",
      "id": "preventive-care-services-established-office-visit-18-and-up-f920",
      "meta": {
        "profile": [ "http://hl7.org/fhir/us/qicore/StructureDefinition/qicore-encounter" ]
      },
      "status": "finished",
      "class": {
        "system": "http://terminology.hl7.org/CodeSystem/v3-ActCode",
        "code": "AMB",
        "display": "ambulatory"
      },
      "type": [ {
        "coding": [ {
          "system": "http://www.ama-assn.org/go/cpt",
          "version": "2023",
          "code": "99395",
          "display": "Periodic comprehensive preventive medicine reevaluation and management of an individual including an age and gender appropriate history, examination, counseling/anticipatory guidance/risk factor reduction interventions, and the ordering of laboratory/diagnostic procedures, established patient; 18-39 years",
          "userSelected": true
        } ]
      } ],
      "subject": {
        "reference": "Patient/c1ac2e8a-6c58-4c63-943c-e73bc94e209a"
      },
      "period": {
        "start": "2025-06-01T08:00:00.000+00:00",
        "end": "2025-06-01T08:15:00.000+00:00"
      }
    },
    "request": {
      "method": "POST",
      "url": "Encounter/preventive-care-services-established-office-visit-18-and-up-f920"
    }
  }, {
    "fullUrl": "https://madie.cms.gov/Encounter/telephone-visits-f921",
    "resource": {
      "resourceType": "Encounter",
      "id": "telephone-visits-f921",
      "meta": {
        "profile": [ "http://hl7.org/fhir/us/qicore/StructureDefinition/qicore-encounter" ]
      },
      "status": "finished",
      "class": {
        "system": "http://terminology.hl7.org/CodeSystem/v3-ActCode",
        "code": "AMB",
        "display": "ambulatory"
      },
      "type": [ {
        "coding": [ {
          "system": "http://snomed.info/sct",
          "version": "2022-09",
          "code": "185317003",
          "display": "Telephone encounter (procedure)",
          "userSelected": true
        } ]
      } ],
      "subject": {
        "reference": "Patient/c1ac2e8a-6c58-4c63-943c-e73bc94e209a"
      },
      "period": {
        "start": "2025-07-01T08:00:00.000+00:00",
        "end": "2025-07-01T08:15:00.000+00:00"
      }
    },
    "request": {
      "method": "POST",
      "url": "Encounter/telephone-visits-f921"
    }
  }, {
    "fullUrl": "https://madie.cms.gov/Encounter/telephone-visits-f922",
    "resource": {
      "resourceType": "Encounter",
      "id": "telephone-visits-f922",
      "meta": {
        "profile": [ "http://hl7.org/fhir/us/qicore/StructureDefinition/qicore-encounter" ]
      },
      "status": "finished",
      "class": {
        "system": "http://terminology.hl7.org/CodeSystem/v3-ActCode",
        "code": "AMB",
        "display": "ambulatory"
      },
      "type": [ {
        "coding": [ {
          "system": "http://snomed.info/sct",
          "version": "2022-09",
          "code": "185317003",
          "display": "Telephone encounter (procedure)",
          "userSelected": true
        } ]
      } ],
      "subject": {
        "reference": "Patient/c1ac2e8a-6c58-4c63-943c-e73bc94e209a"
      },
      "period": {
        "start": "2025-08-01T08:00:00.000+00:00",
        "end": "2025-08-01T08:15:00.000+00:00"
      }
    },
    "request": {
      "method": "POST",
      "url": "Encounter/telephone-visits-f922"
    }
  }, {
    "fullUrl": "https://madie.cms.gov/Encounter/encounter-inpatient-f923",
    "resource": {
      "resourceType": "Encounter",
      "id": "encounter-inpatient-f923",
      "meta": {
        "profile": [ "http://hl7.org/fhir/us/qicore/StructureDefinition/qicore-encounter" ]
      },
      "status": "finished",
      "class": {
        "system": "http://terminology.hl7.org/CodeSystem/v3-ActCode",
        "code": "EMER",
        "display": "emergency"
      },
      "type": [ {
        "coding": [ {
          "system": "http://snomed.info/sct",
          "version": "2022-09",
          "code": "183452005",
          "display": "Emergency hospital admission (procedure)",
          "userSelected": true
        } ]
      } ],
      "subject": {
        "reference": "Patient/c1ac2e8a-6c58-4c63-943c-e73bc94e209a"
      },
      "period": {
        "start": "2025-09-01T08:00:00.000+00:00",
        "end": "2025-09-01T08:15:00.000+00:00"
      }
    },
    "request": {
      "method": "POST",
      "url": "Encounter/encounter-inpatient-f923"
    }
  }, {
    "fullUrl": "https://madie.cms.gov/Encounter/observation-services-f924",
    "resource": {
      "resourceType": "Encounter",
      "id": "observation-services-f924",
      "meta": {
        "profile": [ "http://hl7.org/fhir/us/qicore/StructureDefinition/qicore-encounter" ]
      },
      "status": "finished",
      "class": {
        "system": "http://terminology.hl7.org/CodeSystem/v3-ActCode",
        "code": "OBSENC",
        "display": "observation encounter"
      },
      "type": [ {
        "coding": [ {
          "system": "http://snomed.info/sct",
          "version": "2022-09",
          "code": "448951000124107",
          "display": "Admission to observation unit (procedure)",
          "userSelected": true
        } ]
      } ],
      "subject": {
        "reference": "Patient/c1ac2e8a-6c58-4c63-943c-e73bc94e209a"
      },
      "period": {
        "start": "2025-10-01T08:00:00.000+00:00",
        "end": "2025-10-01T08:15:00.000+00:00"
      }
    },
    "request": {
      "method": "POST",
      "url": "Encounter/observation-services-f924"
    }
  }, {
    "fullUrl": "https://madie.cms.gov/Encounter/outpatient-surgery-service-f925",
    "resource": {
      "resourceType": "Encounter",
      "id": "outpatient-surgery-service-f925",
      "meta": {
        "profile": [ "http://hl7.org/fhir/us/qicore/StructureDefinition/qicore-encounter" ]
      },
      "status": "finished",
      "class": {
        "system": "http://terminology.hl7.org/CodeSystem/v3-ActCode",
        "code": "AMB",
        "display": "ambulatory"
      },
      "type": [ {
        "coding": [ {
          "system": "http://snomed.info/sct",
          "version": "2022-09",
          "code": "110468005",
          "display": "Ambulatory surgery (procedure)",
          "userSelected": true
        } ]
      } ],
      "subject": {
        "reference": "Patient/c1ac2e8a-6c58-4c63-943c-e73bc94e209a"
      },
      "period": {
        "start": "2025-11-01T08:00:00.000+00:00",
        "end": "2025-11-01T08:15:00.000+00:00"
      }
    },
    "request": {
      "method": "POST",
      "url": "Encounter/outpatient-surgery-service-f925"
    }
  }, {
    "fullUrl": "https://madie.cms.gov/Encounter/encounter-inpatient-f926",
    "resource": {
      "resourceType": "Encounter",
      "id": "encounter-inpatient-f926",
      "meta": {
        "profile": [ "http://hl7.org/fhir/us/qicore/StructureDefinition/qicore-encounter" ]
      },
      "status": "finished",
      "class": {
        "system": "http://terminology.hl7.org/CodeSystem/v3-ActCode",
        "code": "EMER",
        "display": "emergency"
      },
      "type": [ {
        "coding": [ {
          "system": "http://snomed.info/sct",
          "version": "2022-09",
          "code": "183452005",
          "display": "Emergency hospital admission (procedure)",
          "userSelected": true
        } ]
      } ],
      "subject": {
        "reference": "Patient/c1ac2e8a-6c58-4c63-943c-e73bc94e209a"
      },
      "period": {
        "start": "2025-12-01T08:00:00.000+00:00",
        "end": "2025-12-01T08:15:00.000+00:00"
      }
    },
    "request": {
      "method": "POST",
      "url": "Encounter/encounter-inpatient-f926"
    }
  }, {
    "fullUrl": "https://madie.cms.gov/Observation/hiv-viral-load-f927",
    "resource": {
      "resourceType": "Observation",
      "id": "hiv-viral-load-f927",
      "meta": {
        "profile": [ "http://hl7.org/fhir/us/qicore/StructureDefinition/qicore-observation" ]
      },
      "status": "final",
      "category": [ {
        "coding": [ {
          "system": "http://terminology.hl7.org/CodeSystem/observation-category"
        } ]
      } ],
      "code": {
        "coding": [ {
          "system": "http://loinc.org",
          "version": "2.73",
          "code": "10351-5",
          "display": "HIV 1 RNA [Units/volume] (viral load) in Serum or Plasma by Probe with amplification",
          "userSelected": true
        } ]
      },
      "subject": {
        "reference": "Patient/c1ac2e8a-6c58-4c63-943c-e73bc94e209a"
      },
      "effectivePeriod": {
        "start": "2025-06-02T10:30:10+01:00",
        "end": "2025-06-05T10:30:10+01:00"
      },
      "issued": "2025-06-01T08:00:00.000+00:00"
    },
    "request": {
      "method": "POST",
      "url": "Observation/hiv-viral-load-f927"
    }
  }, {
    "fullUrl": "https://madie.cms.gov/Observation/hiv-viral-load-f928",
    "resource": {
      "resourceType": "Observation",
      "id": "hiv-viral-load-f928",
      "meta": {
        "profile": [ "http://hl7.org/fhir/us/qicore/StructureDefinition/qicore-observation" ]
      },
      "status": "final",
      "category": [ {
        "coding": [ {
          "system": "http://terminology.hl7.org/CodeSystem/observation-category"
        } ]
      } ],
      "code": {
        "coding": [ {
          "system": "http://loinc.org",
          "version": "2.73",
          "code": "10351-5",
          "display": "HIV 1 RNA [Units/volume] (viral load) in Serum or Plasma by Probe with amplification",
          "userSelected": true
        } ]
      },
      "subject": {
        "reference": "Patient/c1ac2e8a-6c58-4c63-943c-e73bc94e209a"
      },
      "issued": "2025-02-01T08:00:00.000+00:00"
    },
    "request": {
      "method": "POST",
      "url": "Observation/hiv-viral-load-f928"
    }
  }, {
    "fullUrl": "https://madie.cms.gov/Observation/hiv-viral-load-f929",
    "resource": {
      "resourceType": "Observation",
      "id": "hiv-viral-load-f929",
      "meta": {
        "profile": [ "http://hl7.org/fhir/us/qicore/StructureDefinition/qicore-observation" ]
      },
      "status": "final",
      "category": [ {
        "coding": [ {
          "system": "http://terminology.hl7.org/CodeSystem/observation-category"
        } ]
      } ],
      "code": {
        "coding": [ {
          "system": "http://loinc.org",
          "version": "2.73",
          "code": "10351-5",
          "display": "HIV 1 RNA [Units/volume] (viral load) in Serum or Plasma by Probe with amplification",
          "userSelected": true
        } ]
      },
      "subject": {
        "reference": "Patient/c1ac2e8a-6c58-4c63-943c-e73bc94e209a"
      },
      "issued": "2025-03-01T08:00:00.000+00:00"
    },
    "request": {
      "method": "POST",
      "url": "Observation/hiv-viral-load-f929"
    }
  }, {
    "fullUrl": "https://madie.cms.gov/Observation/hiv-viral-load-f92a",
    "resource": {
      "resourceType": "Observation",
      "id": "hiv-viral-load-f92a",
      "meta": {
        "profile": [ "http://hl7.org/fhir/us/qicore/StructureDefinition/qicore-observation" ]
      },
      "status": "final",
      "category": [ {
        "coding": [ {
          "system": "http://terminology.hl7.org/CodeSystem/observation-category"
        } ]
      } ],
      "code": {
        "coding": [ {
          "system": "http://loinc.org",
          "version": "2.73",
          "code": "10351-5",
          "display": "HIV 1 RNA [Units/volume] (viral load) in Serum or Plasma by Probe with amplification",
          "userSelected": true
        } ]
      },
      "subject": {
        "reference": "Patient/c1ac2e8a-6c58-4c63-943c-e73bc94e209a"
      },
      "issued": "2025-04-01T08:00:00.000+00:00"
    },
    "request": {
      "method": "POST",
      "url": "Observation/hiv-viral-load-f92a"
    }
  }, {
    "fullUrl": "https://madie.cms.gov/Observation/hiv-viral-load-f92b",
    "resource": {
      "resourceType": "Observation",
      "id": "hiv-viral-load-f92b",
      "meta": {
        "profile": [ "http://hl7.org/fhir/us/qicore/StructureDefinition/qicore-observation" ]
      },
      "status": "final",
      "category": [ {
        "coding": [ {
          "system": "http://terminology.hl7.org/CodeSystem/observation-category"
        } ]
      } ],
      "code": {
        "coding": [ {
          "system": "http://loinc.org",
          "version": "2.73",
          "code": "10351-5",
          "display": "HIV 1 RNA [Units/volume] (viral load) in Serum or Plasma by Probe with amplification",
          "userSelected": true
        } ]
      },
      "subject": {
        "reference": "Patient/c1ac2e8a-6c58-4c63-943c-e73bc94e209a"
      },
      "issued": "2025-05-01T08:00:00.000+00:00"
    },
    "request": {
      "method": "POST",
      "url": "Observation/hiv-viral-load-f92b"
    }
  }, {
    "fullUrl": "https://madie.cms.gov/Observation/hiv-viral-load-f92c",
    "resource": {
      "resourceType": "Observation",
      "id": "hiv-viral-load-f92c",
      "meta": {
        "profile": [ "http://hl7.org/fhir/us/qicore/StructureDefinition/qicore-observation" ]
      },
      "status": "final",
      "category": [ {
        "coding": [ {
          "system": "http://terminology.hl7.org/CodeSystem/observation-category"
        } ]
      } ],
      "code": {
        "coding": [ {
          "system": "http://loinc.org",
          "version": "2.73",
          "code": "10351-5",
          "display": "HIV 1 RNA [Units/volume] (viral load) in Serum or Plasma by Probe with amplification",
          "userSelected": true
        } ]
      },
      "subject": {
        "reference": "Patient/c1ac2e8a-6c58-4c63-943c-e73bc94e209a"
      },
      "issued": "2025-06-01T08:00:00.000+00:00"
    },
    "request": {
      "method": "POST",
      "url": "Observation/hiv-viral-load-f92c"
    }
  }, {
    "fullUrl": "https://madie.cms.gov/Observation/hiv-viral-load-f92d",
    "resource": {
      "resourceType": "Observation",
      "id": "hiv-viral-load-f92d",
      "meta": {
        "profile": [ "http://hl7.org/fhir/us/qicore/StructureDefinition/qicore-observation" ]
      },
      "status": "final",
      "category": [ {
        "coding": [ {
          "system": "http://terminology.hl7.org/CodeSystem/observation-category"
        } ]
      } ],
      "code": {
        "coding": [ {
          "system": "http://loinc.org",
          "version": "2.73",
          "code": "10351-5",
          "display": "HIV 1 RNA [Units/volume] (viral load) in Serum or Plasma by Probe with amplification",
          "userSelected": true
        } ]
      },
      "subject": {
        "reference": "Patient/c1ac2e8a-6c58-4c63-943c-e73bc94e209a"
      },
      "issued": "2025-07-01T08:00:00.000+00:00"
    },
    "request": {
      "method": "POST",
      "url": "Observation/hiv-viral-load-f92d"
    }
  }, {
    "fullUrl": "https://madie.cms.gov/Observation/hiv-viral-load-f92e",
    "resource": {
      "resourceType": "Observation",
      "id": "hiv-viral-load-f92e",
      "meta": {
        "profile": [ "http://hl7.org/fhir/us/qicore/StructureDefinition/qicore-observation" ]
      },
      "status": "final",
      "category": [ {
        "coding": [ {
          "system": "http://terminology.hl7.org/CodeSystem/observation-category"
        } ]
      } ],
      "code": {
        "coding": [ {
          "system": "http://loinc.org",
          "version": "2.73",
          "code": "10351-5",
          "display": "HIV 1 RNA [Units/volume] (viral load) in Serum or Plasma by Probe with amplification",
          "userSelected": true
        } ]
      },
      "subject": {
        "reference": "Patient/c1ac2e8a-6c58-4c63-943c-e73bc94e209a"
      },
      "issued": "2025-08-01T08:00:00.000+00:00"
    },
    "request": {
      "method": "POST",
      "url": "Observation/hiv-viral-load-f92e"
    }
  }, {
    "fullUrl": "https://madie.cms.gov/Observation/hiv-viral-load-f92f",
    "resource": {
      "resourceType": "Observation",
      "id": "hiv-viral-load-f92f",
      "meta": {
        "profile": [ "http://hl7.org/fhir/us/qicore/StructureDefinition/qicore-observation" ]
      },
      "status": "final",
      "category": [ {
        "coding": [ {
          "system": "http://terminology.hl7.org/CodeSystem/observation-category"
        } ]
      } ],
      "code": {
        "coding": [ {
          "system": "http://loinc.org",
          "version": "2.73",
          "code": "10351-5",
          "display": "HIV 1 RNA [Units/volume] (viral load) in Serum or Plasma by Probe with amplification",
          "userSelected": true
        } ]
      },
      "subject": {
        "reference": "Patient/c1ac2e8a-6c58-4c63-943c-e73bc94e209a"
      },
      "issued": "2025-09-01T08:00:00.000+00:00"
    },
    "request": {
      "method": "POST",
      "url": "Observation/hiv-viral-load-f92f"
    }
  }, {
    "fullUrl": "https://madie.cms.gov/Observation/hiv-viral-load-f930",
    "resource": {
      "resourceType": "Observation",
      "id": "hiv-viral-load-f930",
      "meta": {
        "profile": [ "http://hl7.org/fhir/us/qicore/StructureDefinition/qicore-observation" ]
      },
      "status": "final",
      "category": [ {
        "coding": [ {
          "system": "http://terminology.hl7.org/CodeSystem/observation-category"
        } ]
      } ],
      "code": {
        "coding": [ {
          "system": "http://loinc.org",
          "version": "2.73",
          "code": "10351-5",
          "display": "HIV 1 RNA [Units/volume] (viral load) in Serum or Plasma by Probe with amplification",
          "userSelected": true
        } ]
      },
      "subject": {
        "reference": "Patient/c1ac2e8a-6c58-4c63-943c-e73bc94e209a"
      },
      "issued": "2025-10-01T08:00:00.000+00:00"
    },
    "request": {
      "method": "POST",
      "url": "Observation/hiv-viral-load-f930"
    }
  }, {
    "fullUrl": "https://madie.cms.gov/Observation/hiv-viral-load-f931",
    "resource": {
      "resourceType": "Observation",
      "id": "hiv-viral-load-f931",
      "meta": {
        "profile": [ "http://hl7.org/fhir/us/qicore/StructureDefinition/qicore-observation" ]
      },
      "status": "final",
      "category": [ {
        "coding": [ {
          "system": "http://terminology.hl7.org/CodeSystem/observation-category"
        } ]
      } ],
      "code": {
        "coding": [ {
          "system": "http://loinc.org",
          "version": "2.73",
          "code": "10351-5",
          "display": "HIV 1 RNA [Units/volume] (viral load) in Serum or Plasma by Probe with amplification",
          "userSelected": true
        } ]
      },
      "subject": {
        "reference": "Patient/c1ac2e8a-6c58-4c63-943c-e73bc94e209a"
      },
      "issued": "2025-11-01T08:00:00.000+00:00"
    },
    "request": {
      "method": "POST",
      "url": "Observation/hiv-viral-load-f931"
    }
  }, {
    "fullUrl": "https://madie.cms.gov/Observation/hiv-viral-load-f932",
    "resource": {
      "resourceType": "Observation",
      "id": "hiv-viral-load-f932",
      "meta": {
        "profile": [ "http://hl7.org/fhir/us/qicore/StructureDefinition/qicore-observation" ]
      },
      "status": "final",
      "category": [ {
        "coding": [ {
          "system": "http://terminology.hl7.org/CodeSystem/observation-category"
        } ]
      } ],
      "code": {
        "coding": [ {
          "system": "http://loinc.org",
          "version": "2.73",
          "code": "10351-5",
          "display": "HIV 1 RNA [Units/volume] (viral load) in Serum or Plasma by Probe with amplification",
          "userSelected": true
        } ]
      },
      "subject": {
        "reference": "Patient/c1ac2e8a-6c58-4c63-943c-e73bc94e209a"
      },
      "issued": "2025-12-01T08:00:00.000+00:00"
    },
    "request": {
      "method": "POST",
      "url": "Observation/hiv-viral-load-f932"
    }
  }, {
    "fullUrl": "https://madie.cms.gov/Coverage/1",
    "resource": {
      "resourceType": "Coverage",
      "id": "1",
      "meta": {
        "profile": [ "http://hl7.org/fhir/us/qicore/StructureDefinition/qicore-coverage" ]
      },
      "status": "active",
      "beneficiary": {
        "reference": "Patient/c1ac2e8a-6c58-4c63-943c-e73bc94e209a"
      },
      "payor": [ {
        "reference": "Organization/123456"
      } ]
    },
    "request": {
      "method": "POST",
      "url": "Coverage/1"
    }
  }, {
    "fullUrl": "https://madie.cms.gov/Organization/123456",
    "resource": {
      "resourceType": "Organization",
      "id": "123456",
      "meta": {
        "profile": [ "http://hl7.org/fhir/us/qicore/StructureDefinition/qicore-organization" ]
      },
      "identifier": [ {
        "use": "temp",
        "system": "urn:oid:2.16.840.1.113883.4.4",
        "value": "21-3259825"
      } ],
      "active": true,
      "type": [ {
        "coding": [ {
          "system": "http://terminology.hl7.org/CodeSystem/organization-type",
          "code": "pay",
          "display": "Payer"
        } ]
      } ],
      "name": "Blue Cross Blue Shield of Texas",
      "telecom": [ {
        "system": "phone",
        "value": "(+1) 972-766-6900"
      } ],
      "address": [ {
        "use": "billing",
        "type": "postal",
        "line": [ "P.O. Box 660044" ],
        "city": "Dallas",
        "state": "TX",
        "postalCode": "75266-0044",
        "country": "USA"
      } ]
    },
    "request": {
      "method": "POST",
      "url": "Organization/123456"
    }
  }, {
    "fullUrl": "https://madie.cms.gov/Practitioner/practitioner-123456",
    "resource": {
      "resourceType": "Practitioner",
      "id": "practitioner-123456",
      "meta": {
        "profile": [ "http://hl7.org/fhir/us/qicore/StructureDefinition/qicore-practitioner" ]
      },
      "identifier": [ {
        "system": "http://hl7.org/fhir/sid/us-npi",
        "value": "123456"
      } ],
      "name": [ {
        "family": "Evil",
        "prefix": [ "Dr" ]
      } ]
    },
    "request": {
      "method": "POST",
      "url": "Practitioner/practitioner-123456"
    }
  }, {
    "fullUrl": "https://madie.cms.gov/MeasureReport/9e814a9b-b41e-410c-bfe3-8b22bb701d32",
    "resource": {
      "resourceType": "MeasureReport",
      "id": "9e814a9b-b41e-410c-bfe3-8b22bb701d32",
      "meta": {
        "profile": [ "http://hl7.org/fhir/us/cqfmeasures/StructureDefinition/test-case-cqfm" ]
      },
      "contained": [ {
        "resourceType": "Parameters",
        "id": "33f60b88-b00e-44b3-8149-3c89e8d43594-parameters",
        "parameter": [ {
          "name": "subject",
          "valueString": "c1ac2e8a-6c58-4c63-943c-e73bc94e209a"
        } ]
      } ],
      "extension": [ {
        "url": "http://hl7.org/fhir/us/cqfmeasures/StructureDefinition/cqfm-inputParameters",
        "valueReference": {
          "reference": "#33f60b88-b00e-44b3-8149-3c89e8d43594-parameters"
        }
      }, {
        "url": "http://hl7.org/fhir/us/cqfmeasures/StructureDefinition/cqfm-testCaseDescription",
        "valueMarkdown": "Patient has an encounter each month and a VL test each month"
      } ],
      "modifierExtension": [ {
        "url": "http://hl7.org/fhir/us/cqfmeasures/StructureDefinition/cqfm-isTestCase",
        "valueBoolean": true
      } ],
      "status": "complete",
      "type": "individual",
      "measure": "https://madie.cms.gov/Measure/HIVRetentionFHIR",
      "period": {
        "start": "2025-01-01",
        "end": "2025-12-31"
      },
      "group": [ {
        "population": [ {
          "code": {
            "coding": [ {
              "system": "http://terminology.hl7.org/CodeSystem/measure-population",
              "code": "initial-population",
              "display": "Initial Population"
            } ]
          },
          "count": 1
        }, {
          "code": {
            "coding": [ {
              "system": "http://terminology.hl7.org/CodeSystem/measure-population",
              "code": "denominator",
              "display": "Denominator"
            } ]
          },
          "count": 1
        }, {
          "code": {
            "coding": [ {
              "system": "http://terminology.hl7.org/CodeSystem/measure-population",
              "code": "numerator",
              "display": "Numerator"
            } ]
          },
          "count": 1
        } ]
      } ],
      "evaluatedResource": [ {
        "reference": "Patient/c1ac2e8a-6c58-4c63-943c-e73bc94e209a"
      }, {
        "reference": "Condition/hiv-f91a"
      }, {
        "reference": "Encounter/face-to-face-interaction-f91b"
      }, {
        "reference": "Encounter/outpatient-consultation-f91c"
      }, {
        "reference": "Encounter/outpatient-consultation-f91d"
      }, {
        "reference": "Encounter/annual-wellness-visit-f91e"
      }, {
        "reference": "Encounter/preventive-care-services-established-office-visit-18-and-up-f91f"
      }, {
        "reference": "Encounter/preventive-care-services-established-office-visit-18-and-up-f920"
      }, {
        "reference": "Encounter/telephone-visits-f921"
      }, {
        "reference": "Encounter/telephone-visits-f922"
      }, {
        "reference": "Encounter/encounter-inpatient-f923"
      }, {
        "reference": "Encounter/observation-services-f924"
      }, {
        "reference": "Encounter/outpatient-surgery-service-f925"
      }, {
        "reference": "Encounter/encounter-inpatient-f926"
      }, {
        "reference": "Observation/hiv-viral-load-f927"
      }, {
        "reference": "Observation/hiv-viral-load-f928"
      }, {
        "reference": "Observation/hiv-viral-load-f929"
      }, {
        "reference": "Observation/hiv-viral-load-f92a"
      }, {
        "reference": "Observation/hiv-viral-load-f92b"
      }, {
        "reference": "Observation/hiv-viral-load-f92c"
      }, {
        "reference": "Observation/hiv-viral-load-f92d"
      }, {
        "reference": "Observation/hiv-viral-load-f92e"
      }, {
        "reference": "Observation/hiv-viral-load-f92f"
      }, {
        "reference": "Observation/hiv-viral-load-f930"
      }, {
        "reference": "Observation/hiv-viral-load-f931"
      }, {
        "reference": "Observation/hiv-viral-load-f932"
      }, {
        "reference": "Coverage/1"
      }, {
        "reference": "Organization/123456"
      }, {
        "reference": "Practitioner/practitioner-123456"
      } ]
    },
    "request": {
      "method": "POST",
      "url": "MeasureReport/9e814a9b-b41e-410c-bfe3-8b22bb701d32"
    }
  } ]
}