{
  "resourceType": "Bundle",
  "id": "DENEXFail-PregnancyAfterMP",
  "type": "transaction",
  "entry": [ {
    "fullUrl": "https://madie.cms.gov/Patient/23004f44-4848-4e62-8813-2a56d900613c",
    "resource": {
      "resourceType": "Patient",
      "id": "23004f44-4848-4e62-8813-2a56d900613c",
      "meta": {
        "profile": [ "http://hl7.org/fhir/us/qicore/StructureDefinition/qicore-patient" ]
      },
      "extension": [ {
        "url": "http://hl7.org/fhir/us/core/StructureDefinition/us-core-race",
        "extension": [ {
          "url": "ombCategory",
          "valueCoding": {
            "system": "urn:oid:2.16.840.1.113883.6.238",
            "code": "2028-9",
            "display": "Asian"
          }
        }, {
          "url": "text",
          "valueString": "Asian"
        } ]
      }, {
        "url": "http://hl7.org/fhir/us/core/StructureDefinition/us-core-ethnicity",
        "extension": [ {
          "url": "ombCategory",
          "valueCoding": {
            "system": "urn:oid:2.16.840.1.113883.6.238",
            "code": "2135-2",
            "display": "Hispanic or Latino"
          }
        }, {
          "url": "text",
          "valueString": "Hispanic or Latino"
        } ]
      } ],
      "identifier": [ {
        "system": "http://hospital.smarthealthit.org",
        "value": "999999995"
      } ],
      "name": [ {
        "family": "DENEXFail",
        "given": [ "PregnancyAfterMP" ]
      } ],
      "gender": "female",
      "birthDate": "2006-12-31"
    },
    "request": {
      "method": "POST",
      "url": "Patient/23004f44-4848-4e62-8813-2a56d900613c"
    }
  }, {
    "fullUrl": "https://madie.cms.gov/Encounter/Encounter-4",
    "resource": {
      "resourceType": "Encounter",
      "id": "Encounter-4",
      "meta": {
        "profile": [ "http://hl7.org/fhir/us/qicore/StructureDefinition/qicore-encounter" ]
      },
      "status": "finished",
      "class": {
        "system": "http://terminology.hl7.org/CodeSystem/v3-ActCode",
        "code": "AMB",
        "display": "ambulatory"
      },
      "type": [ {
        "coding": [ {
          "system": "http://snomed.info/sct",
          "code": "3391000175108",
          "display": "Office visit for pediatric care and assessment (procedure)"
        } ]
      } ],
      "subject": {
        "reference": "Patient/23004f44-4848-4e62-8813-2a56d900613c"
      },
      "period": {
        "start": "2025-01-01T00:00:00.000Z",
        "end": "2025-01-01T01:00:00.000Z"
      }
    },
    "request": {
      "method": "POST",
      "url": "Encounter/Encounter-4"
    }
  }, {
    "fullUrl": "https://madie.cms.gov/Condition/Condition-4-0",
    "resource": {
      "resourceType": "Condition",
      "id": "Condition-4-0",
      "meta": {
        "profile": [ "http://hl7.org/fhir/us/qicore/StructureDefinition/qicore-condition" ]
      },
      "clinicalStatus": {
        "coding": [ {
          "system": "http://terminology.hl7.org/CodeSystem/condition-clinical",
          "code": "active"
        } ]
      },
      "category": [ {
        "coding": [ {
          "system": "http://terminology.hl7.org/CodeSystem/condition-category",
          "code": "problem-list-item",
          "display": "Problem List Item"
        } ]
      } ],
      "code": {
        "coding": [ {
          "system": "http://snomed.info/sct",
          "code": "371125006",
          "display": "Labile essential hypertension (disorder)"
        } ]
      },
      "subject": {
        "reference": "Patient/23004f44-4848-4e62-8813-2a56d900613c"
      },
      "onsetDateTime": "2025-06-30T23:59:59.000Z"
    },
    "request": {
      "method": "POST",
      "url": "Condition/Condition-4-0"
    }
  }, {
    "fullUrl": "https://madie.cms.gov/Condition/Condition-4-1",
    "resource": {
      "resourceType": "Condition",
      "id": "Condition-4-1",
      "meta": {
        "profile": [ "http://hl7.org/fhir/us/qicore/StructureDefinition/qicore-condition" ]
      },
      "clinicalStatus": {
        "coding": [ {
          "system": "http://terminology.hl7.org/CodeSystem/condition-clinical",
          "code": "active"
        } ]
      },
      "category": [ {
        "coding": [ {
          "system": "http://terminology.hl7.org/CodeSystem/condition-category",
          "code": "problem-list-item",
          "display": "Problem List Item"
        } ]
      } ],
      "code": {
        "coding": [ {
          "system": "http://snomed.info/sct",
          "code": "10231000132102",
          "display": "In-vitro fertilization pregnancy (finding)"
        } ]
      },
      "subject": {
        "reference": "Patient/23004f44-4848-4e62-8813-2a56d900613c"
      },
      "onsetDateTime": "2026-01-01T00:00:00.000Z"
    },
    "request": {
      "method": "POST",
      "url": "Condition/Condition-4-1"
    }
  }, {
    "fullUrl": "https://madie.cms.gov/MeasureReport/02f495ce-7182-4995-8316-21ff015ef3bc",
    "resource": {
      "resourceType": "MeasureReport",
      "id": "02f495ce-7182-4995-8316-21ff015ef3bc",
      "meta": {
        "profile": [ "http://hl7.org/fhir/us/cqfmeasures/StructureDefinition/test-case-cqfm" ]
      },
      "contained": [ {
        "resourceType": "Parameters",
        "id": "fc0a8815-08b0-4eec-bb8a-de769f374219-parameters",
        "parameter": [ {
          "name": "subject",
          "valueString": "23004f44-4848-4e62-8813-2a56d900613c"
        } ]
      } ],
      "extension": [ {
        "url": "http://hl7.org/fhir/us/cqfmeasures/StructureDefinition/cqfm-inputParameters",
        "valueReference": {
          "reference": "#fc0a8815-08b0-4eec-bb8a-de769f374219-parameters"
        }
      }, {
        "url": "http://hl7.org/fhir/us/cqfmeasures/StructureDefinition/cqfm-testCaseDescription",
        "valueMarkdown": "Pregnancy starts 1/1 of next MP"
      } ],
      "modifierExtension": [ {
        "url": "http://hl7.org/fhir/us/cqfmeasures/StructureDefinition/cqfm-isTestCase",
        "valueBoolean": true
      } ],
      "status": "complete",
      "type": "individual",
      "measure": "https://madie.cms.gov/Measure/ControllingHighBloodPressureFHIR",
      "period": {
        "start": "2025-01-01",
        "end": "2025-12-31"
      },
      "group": [ {
        "population": [ {
          "code": {
            "coding": [ {
              "system": "http://terminology.hl7.org/CodeSystem/measure-population",
              "code": "initial-population",
              "display": "Initial Population"
            } ]
          },
          "count": 1
        }, {
          "code": {
            "coding": [ {
              "system": "http://terminology.hl7.org/CodeSystem/measure-population",
              "code": "denominator",
              "display": "Denominator"
            } ]
          },
          "count": 1
        }, {
          "code": {
            "coding": [ {
              "system": "http://terminology.hl7.org/CodeSystem/measure-population",
              "code": "denominator-exclusion",
              "display": "Denominator Exclusion"
            } ]
          },
          "count": 0
        }, {
          "code": {
            "coding": [ {
              "system": "http://terminology.hl7.org/CodeSystem/measure-population",
              "code": "numerator",
              "display": "Numerator"
            } ]
          },
          "count": 0
        } ]
      } ],
      "evaluatedResource": [ {
        "reference": "https://madie.cms.gov/Patient/23004f44-4848-4e62-8813-2a56d900613c"
      }, {
        "reference": "https://madie.cms.gov/Encounter/Encounter-4"
      }, {
        "reference": "https://madie.cms.gov/Condition/Condition-4-0"
      }, {
        "reference": "https://madie.cms.gov/Condition/Condition-4-1"
      } ]
    },
    "request": {
      "method": "POST",
      "url": "MeasureReport/02f495ce-7182-4995-8316-21ff015ef3bc"
    }
  } ]
}