{
  "resourceType": "Bundle",
  "id": "131516513134563413",
  "type": "transaction",
  "entry": [ {
    "fullUrl": "https://madie.cms.gov/Patient/34ad7cd6-0ca2-4d24-bbfe-aed7134235ea",
    "resource": {
      "resourceType": "Patient",
      "id": "34ad7cd6-0ca2-4d24-bbfe-aed7134235ea",
      "meta": {
        "profile": [ "http://hl7.org/fhir/us/qicore/StructureDefinition/qicore-patient" ]
      },
      "extension": [ {
        "url": "http://hl7.org/fhir/us/core/StructureDefinition/us-core-race",
        "extension": [ {
          "url": "ombCategory",
          "valueCoding": {
            "system": "urn:oid:2.16.840.1.113883.6.238",
            "code": "2106-3",
            "display": "White"
          }
        }, {
          "url": "text",
          "valueString": "White"
        } ]
      }, {
        "url": "http://hl7.org/fhir/us/core/StructureDefinition/us-core-ethnicity",
        "extension": [ {
          "url": "ombCategory",
          "valueCoding": {
            "system": "urn:oid:2.16.840.1.113883.6.238",
            "code": "2186-5",
            "display": "Not Hispanic or Latino"
          }
        }, {
          "url": "text",
          "valueString": "Not Hispanic or Latino"
        } ]
      } ],
      "identifier": [ {
        "type": {
          "coding": [ {
            "system": "http://terminology.hl7.org/CodeSystem/v2-0203",
            "code": "MR"
          } ]
        },
        "system": "https://bonnie-fhir.healthit.gov/",
        "value": "6067461d98086b57ea5acf1b"
      } ],
      "active": true,
      "name": [ {
        "use": "usual",
        "family": "NUMERPass",
        "given": [ "BetaBlockOrdDuringEncLVSDEF" ]
      } ],
      "gender": "male",
      "birthDate": "1952-04-17"
    },
    "request": {
      "method": "POST",
      "url": "Patient/34ad7cd6-0ca2-4d24-bbfe-aed7134235ea"
    }
  }, {
    "fullUrl": "https://madie.cms.gov/Encounter/5ce4bd6cb8484631adbc3dee",
    "resource": {
      "resourceType": "Encounter",
      "id": "5ce4bd6cb8484631adbc3dee",
      "meta": {
        "profile": [ "http://hl7.org/fhir/us/qicore/StructureDefinition/qicore-encounter" ]
      },
      "status": "finished",
      "class": {
        "system": "http://terminology.hl7.org/CodeSystem/v3-ActCode",
        "code": "AMB",
        "display": "ambulatory"
      },
      "type": [ {
        "coding": [ {
          "system": "http://www.ama-assn.org/go/cpt",
          "version": "2024",
          "code": "99213"
        } ]
      } ],
      "subject": {
        "reference": "Patient/34ad7cd6-0ca2-4d24-bbfe-aed7134235ea"
      },
      "period": {
        "start": "2025-05-19T14:40:00+00:00",
        "end": "2025-05-19T14:40:00+00:00"
      },
      "length": {
        "value": 0,
        "unit": "days"
      }
    },
    "request": {
      "method": "POST",
      "url": "Encounter/5ce4bd6cb8484631adbc3dee"
    }
  }, {
    "fullUrl": "https://madie.cms.gov/Encounter/5ce4bd6cb8484631adbc3def",
    "resource": {
      "resourceType": "Encounter",
      "id": "5ce4bd6cb8484631adbc3def",
      "meta": {
        "profile": [ "http://hl7.org/fhir/us/qicore/StructureDefinition/qicore-encounter" ]
      },
      "status": "finished",
      "class": {
        "system": "http://terminology.hl7.org/CodeSystem/v3-ActCode",
        "code": "AMB",
        "display": "ambulatory"
      },
      "type": [ {
        "coding": [ {
          "system": "http://www.ama-assn.org/go/cpt",
          "version": "2024",
          "code": "99212"
        } ]
      } ],
      "subject": {
        "reference": "Patient/34ad7cd6-0ca2-4d24-bbfe-aed7134235ea"
      },
      "period": {
        "start": "2025-07-03T11:50:00+00:00",
        "end": "2025-07-03T11:50:00+00:00"
      },
      "length": {
        "value": 0,
        "unit": "days"
      }
    },
    "request": {
      "method": "POST",
      "url": "Encounter/5ce4bd6cb8484631adbc3def"
    }
  }, {
    "fullUrl": "https://madie.cms.gov/Condition/5ce4bd6cb8484631adbc3deb",
    "resource": {
      "resourceType": "Condition",
      "id": "5ce4bd6cb8484631adbc3deb",
      "meta": {
        "profile": [ "http://hl7.org/fhir/us/qicore/StructureDefinition/qicore-condition" ]
      },
      "clinicalStatus": {
        "coding": [ {
          "system": "http://terminology.hl7.org/CodeSystem/condition-clinical",
          "code": "active",
          "display": "Active"
        } ]
      },
      "category": [ {
        "coding": [ {
          "system": "http://terminology.hl7.org/CodeSystem/condition-category",
          "code": "problem-list-item",
          "display": "Problem List Item"
        } ]
      } ],
      "code": {
        "coding": [ {
          "system": "http://hl7.org/fhir/sid/icd-10-cm",
          "version": "2024",
          "code": "I44.1"
        } ]
      },
      "subject": {
        "reference": "Patient/34ad7cd6-0ca2-4d24-bbfe-aed7134235ea"
      },
      "onsetPeriod": {
        "start": "2025-02-03T14:40:00+00:00"
      }
    },
    "request": {
      "method": "POST",
      "url": "Condition/5ce4bd6cb8484631adbc3deb"
    }
  }, {
    "fullUrl": "https://madie.cms.gov/Condition/5ce4bd6cb8484631adbc3dec",
    "resource": {
      "resourceType": "Condition",
      "id": "5ce4bd6cb8484631adbc3dec",
      "meta": {
        "profile": [ "http://hl7.org/fhir/us/qicore/StructureDefinition/qicore-condition" ]
      },
      "clinicalStatus": {
        "coding": [ {
          "system": "http://terminology.hl7.org/CodeSystem/condition-clinical",
          "code": "active",
          "display": "Active"
        } ]
      },
      "verificationStatus": {
        "coding": [ {
          "system": "http://terminology.hl7.org/CodeSystem/condition-ver-status",
          "code": "confirmed",
          "display": "Confirmed",
          "userSelected": true
        } ]
      },
      "category": [ {
        "coding": [ {
          "system": "http://terminology.hl7.org/CodeSystem/condition-category",
          "code": "problem-list-item",
          "display": "Problem List Item"
        } ]
      } ],
      "code": {
        "coding": [ {
          "system": "http://hl7.org/fhir/sid/icd-10-cm",
          "version": "2024",
          "code": "I11.0"
        } ]
      },
      "subject": {
        "reference": "Patient/34ad7cd6-0ca2-4d24-bbfe-aed7134235ea"
      },
      "onsetPeriod": {
        "start": "2025-04-16T10:00:00+00:00"
      }
    },
    "request": {
      "method": "POST",
      "url": "Condition/5ce4bd6cb8484631adbc3dec"
    }
  }, {
    "fullUrl": "https://madie.cms.gov/Observation/5ce4bd6cb8484631adbc3df1",
    "resource": {
      "resourceType": "Observation",
      "id": "5ce4bd6cb8484631adbc3df1",
      "meta": {
        "profile": [ "http://hl7.org/fhir/us/qicore/StructureDefinition/qicore-observation" ]
      },
      "status": "final",
      "category": [ {
        "coding": [ {
          "system": "http://terminology.hl7.org/CodeSystem/observation-category",
          "code": "imaging",
          "display": "Imaging"
        } ]
      } ],
      "code": {
        "coding": [ {
          "system": "http://loinc.org",
          "version": "2.76",
          "code": "8807-0"
        } ]
      },
      "subject": {
        "reference": "Patient/34ad7cd6-0ca2-4d24-bbfe-aed7134235ea"
      },
      "effectivePeriod": {
        "start": "2025-04-01T11:50:00+00:00",
        "end": "2025-04-01T11:50:00+00:00"
      },
      "valueQuantity": {
        "value": 39,
        "unit": "%"
      }
    },
    "request": {
      "method": "POST",
      "url": "Observation/5ce4bd6cb8484631adbc3df1"
    }
  }, {
    "fullUrl": "https://madie.cms.gov/MedicationRequest/5ce4bd6cb8484631adbc3df0",
    "resource": {
      "resourceType": "MedicationRequest",
      "id": "5ce4bd6cb8484631adbc3df0",
      "meta": {
        "profile": [ "http://hl7.org/fhir/us/qicore/StructureDefinition/qicore-medicationrequest" ]
      },
      "status": "active",
      "intent": "order",
      "medicationCodeableConcept": {
        "coding": [ {
          "system": "http://www.nlm.nih.gov/research/umls/rxnorm",
          "version": "04012024",
          "code": "854916"
        } ]
      },
      "subject": {
        "reference": "Patient/34ad7cd6-0ca2-4d24-bbfe-aed7134235ea"
      },
      "authoredOn": "2025-05-19T14:40:00+00:00",
      "requester": {
        "reference": "Practitioner/64646464"
      },
      "dosageInstruction": [ {
        "timing": {
          "repeat": {
            "boundsPeriod": {
              "end": "2025-05-19T14:40:00+00:00"
            }
          }
        }
      } ]
    },
    "request": {
      "method": "POST",
      "url": "MedicationRequest/5ce4bd6cb8484631adbc3df0"
    }
  }, {
    "fullUrl": "https://madie.cms.gov/Practitioner/64646464",
    "resource": {
      "resourceType": "Practitioner",
      "id": "64646464",
      "meta": {
        "profile": [ "http://hl7.org/fhir/us/qicore/StructureDefinition/qicore-practitioner" ]
      },
      "identifier": [ {
        "use": "temp",
        "system": "urn:oid:2.16.840.1.113883.4.336",
        "value": "Practitioner-23"
      } ],
      "active": true,
      "name": [ {
        "family": "Careful",
        "given": [ "Adam" ],
        "prefix": [ "Dr" ]
      } ],
      "address": [ {
        "use": "home",
        "line": [ "534 Erewhon St" ],
        "city": "PleasantVille",
        "state": "UT",
        "postalCode": "84414"
      } ],
      "qualification": [ {
        "identifier": [ {
          "system": "http://example.org/UniversityIdentifier",
          "value": "12345"
        } ],
        "code": {
          "coding": [ {
            "system": "http://terminology.hl7.org/CodeSystem/v2-0360|2.7",
            "code": "BS",
            "display": "Bachelor of Science"
          } ],
          "text": "Bachelor of Science"
        },
        "period": {
          "start": "1995"
        },
        "issuer": {
          "display": "Example University"
        }
      } ]
    },
    "request": {
      "method": "POST",
      "url": "Practitioner/64646464"
    }
  }, {
    "fullUrl": "https://madie.cms.gov/Condition/1659800",
    "resource": {
      "resourceType": "Condition",
      "id": "1659800",
      "meta": {
        "profile": [ "http://hl7.org/fhir/us/qicore/StructureDefinition/qicore-condition" ]
      },
      "category": [ {
        "coding": [ {
          "system": "http://terminology.hl7.org/CodeSystem/condition-category",
          "code": "problem-list-item",
          "display": "Problem List Item"
        } ]
      } ],
      "code": {
        "coding": [ {
          "system": "http://snomed.info/sct",
          "version": "http://snomed.info/sct/731000124108/version/20240301",
          "code": "981000124106",
          "display": "Moderate left ventricular systolic dysfunction (disorder)"
        } ]
      },
      "subject": {
        "reference": "Patient/34ad7cd6-0ca2-4d24-bbfe-aed7134235ea"
      }
    },
    "request": {
      "method": "POST",
      "url": "Condition/1659800"
    }
  }, {
    "fullUrl": "https://madie.cms.gov/Condition/189747020",
    "resource": {
      "resourceType": "Condition",
      "id": "189747020",
      "meta": {
        "profile": [ "http://hl7.org/fhir/us/qicore/StructureDefinition/qicore-condition" ]
      },
      "clinicalStatus": {
        "coding": [ {
          "system": "http://terminology.hl7.org/CodeSystem/condition-clinical",
          "code": "active",
          "display": "Active"
        } ]
      },
      "category": [ {
        "coding": [ {
          "system": "http://terminology.hl7.org/CodeSystem/condition-category",
          "code": "problem-list-item",
          "display": "Problem List Item"
        } ]
      } ],
      "code": {
        "coding": [ {
          "system": "http://snomed.info/sct",
          "version": "http://snomed.info/sct/731000124108/version/20240301",
          "code": "981000124106",
          "display": "Moderate left ventricular systolic dysfunction (disorder)"
        } ]
      },
      "subject": {
        "reference": "Patient/34ad7cd6-0ca2-4d24-bbfe-aed7134235ea"
      },
      "onsetPeriod": {
        "start": "2025-05-13T14:40:00.000+00:00"
      }
    },
    "request": {
      "method": "POST",
      "url": "Condition/189747020"
    }
  }, {
    "fullUrl": "https://madie.cms.gov/Coverage/6846813516441",
    "resource": {
      "resourceType": "Coverage",
      "id": "6846813516441",
      "meta": {
        "profile": [ "http://hl7.org/fhir/us/qicore/StructureDefinition/qicore-coverage" ]
      },
      "identifier": [ {
        "system": "http://benefitsinc.com/certificate",
        "value": "12345"
      } ],
      "status": "active",
      "type": {
        "coding": [ {
          "system": "https://nahdo.org/sopt",
          "version": "9.2",
          "code": "59",
          "display": "Other Private Insurance"
        } ]
      },
      "beneficiary": {
        "reference": "Patient/34ad7cd6-0ca2-4d24-bbfe-aed7134235ea"
      },
      "dependent": "0",
      "relationship": {
        "coding": [ {
          "system": "http://terminology.hl7.org/CodeSystem/subscriber-relationship",
          "code": "self"
        } ]
      },
      "period": {
        "start": "2016-05-23",
        "end": "2025-05-23"
      },
      "payor": [ {
        "reference": "Organization/4654531645616"
      } ],
      "order": 9
    },
    "request": {
      "method": "POST",
      "url": "Coverage/6846813516441"
    }
  }, {
    "fullUrl": "https://madie.cms.gov/Organization/4654531645616",
    "resource": {
      "resourceType": "Organization",
      "id": "4654531645616",
      "meta": {
        "profile": [ "http://hl7.org/fhir/us/qicore/StructureDefinition/qicore-organization" ]
      },
      "identifier": [ {
        "use": "temp",
        "system": "http://terminology.hl7.org/NamingSystem/USEIN",
        "value": "48915164351354"
      } ],
      "active": true,
      "type": [ {
        "coding": [ {
          "system": "http://terminology.hl7.org/CodeSystem/organization-type",
          "code": "team",
          "display": "Organizational team"
        } ]
      } ],
      "name": "Good Healthcare, LLC",
      "telecom": [ {
        "system": "phone",
        "value": "(+1) 901-683-7777"
      }, {
        "system": "fax",
        "value": "(+1) 901-683-6622"
      }, {
        "system": "email",
        "value": "BetterYourHealth@GoodHealthcare.com"
      } ],
      "address": [ {
        "line": [ "3651 Wentrow Blvd, Suite 227" ],
        "city": "Germantown",
        "state": "TN",
        "postalCode": "38138",
        "country": "USA"
      } ]
    },
    "request": {
      "method": "POST",
      "url": "Organization/4654531645616"
    }
  }, {
    "fullUrl": "https://madie.cms.gov/MeasureReport/57af06ad-7bb8-41b6-8430-9486a8455db5",
    "resource": {
      "resourceType": "MeasureReport",
      "id": "57af06ad-7bb8-41b6-8430-9486a8455db5",
      "meta": {
        "profile": [ "http://hl7.org/fhir/us/cqfmeasures/StructureDefinition/test-case-cqfm" ]
      },
      "contained": [ {
        "resourceType": "Parameters",
        "id": "8e95b304-a63f-48ec-9fdd-d4f4462f890a-parameters",
        "parameter": [ {
          "name": "subject",
          "valueString": "34ad7cd6-0ca2-4d24-bbfe-aed7134235ea"
        } ]
      } ],
      "extension": [ {
        "url": "http://hl7.org/fhir/us/cqfmeasures/StructureDefinition/cqfm-inputParameters",
        "valueReference": {
          "reference": "#8e95b304-a63f-48ec-9fdd-d4f4462f890a-parameters"
        }
      }, {
        "url": "http://hl7.org/fhir/us/cqfmeasures/StructureDefinition/cqfm-testCaseDescription",
        "valueMarkdown": "Patient with beta blocker medication order during encounter."
      } ],
      "modifierExtension": [ {
        "url": "http://hl7.org/fhir/us/cqfmeasures/StructureDefinition/cqfm-isTestCase",
        "valueBoolean": true
      } ],
      "status": "complete",
      "type": "individual",
      "measure": "https://madie.cms.gov/Measure/HFBetaBlockerTherapyforLVSDFHIR",
      "period": {
        "start": "2025-01-01",
        "end": "2025-12-31"
      },
      "group": [ {
        "population": [ {
          "code": {
            "coding": [ {
              "system": "http://terminology.hl7.org/CodeSystem/measure-population",
              "code": "initial-population",
              "display": "Initial Population"
            } ]
          },
          "count": 1
        }, {
          "code": {
            "coding": [ {
              "system": "http://terminology.hl7.org/CodeSystem/measure-population",
              "code": "denominator",
              "display": "Denominator"
            } ]
          },
          "count": 1
        }, {
          "code": {
            "coding": [ {
              "system": "http://terminology.hl7.org/CodeSystem/measure-population",
              "code": "denominator-exclusion",
              "display": "Denominator Exclusion"
            } ]
          },
          "count": 0
        }, {
          "code": {
            "coding": [ {
              "system": "http://terminology.hl7.org/CodeSystem/measure-population",
              "code": "numerator",
              "display": "Numerator"
            } ]
          },
          "count": 1
        }, {
          "code": {
            "coding": [ {
              "system": "http://terminology.hl7.org/CodeSystem/measure-population",
              "code": "denominator-exception",
              "display": "Denominator Exception"
            } ]
          },
          "count": 0
        } ]
      } ],
      "evaluatedResource": [ {
        "reference": "https://madie.cms.gov/Patient/34ad7cd6-0ca2-4d24-bbfe-aed7134235ea"
      }, {
        "reference": "https://madie.cms.gov/Encounter/5ce4bd6cb8484631adbc3dee"
      }, {
        "reference": "https://madie.cms.gov/Encounter/5ce4bd6cb8484631adbc3def"
      }, {
        "reference": "https://madie.cms.gov/Condition/5ce4bd6cb8484631adbc3deb"
      }, {
        "reference": "https://madie.cms.gov/Condition/5ce4bd6cb8484631adbc3dec"
      }, {
        "reference": "https://madie.cms.gov/Observation/5ce4bd6cb8484631adbc3df1"
      }, {
        "reference": "https://madie.cms.gov/MedicationRequest/5ce4bd6cb8484631adbc3df0"
      }, {
        "reference": "https://madie.cms.gov/Practitioner/64646464"
      }, {
        "reference": "https://madie.cms.gov/Condition/1659800"
      }, {
        "reference": "https://madie.cms.gov/Condition/189747020"
      }, {
        "reference": "https://madie.cms.gov/Coverage/6846813516441"
      }, {
        "reference": "https://madie.cms.gov/Organization/4654531645616"
      } ]
    },
    "request": {
      "method": "POST",
      "url": "MeasureReport/57af06ad-7bb8-41b6-8430-9486a8455db5"
    }
  } ]
}