{"resourceType":"Bundle","id":"tests-26255213-0c5c-49a1-b3b6-1011faebe918-bundle","type":"transaction","entry":[{"fullUrl":"https://madie.cms.gov/Patient/26255213-0c5c-49a1-b3b6-1011faebe918","resource":{"resourceType":"Patient","id":"26255213-0c5c-49a1-b3b6-1011faebe918","meta":{"profile":["http://hl7.org/fhir/us/qicore/StructureDefinition/qicore-patient"]},"text":{"status":"generated","div":"<div xmlns=\"http://www.w3.org/1999/xhtml\"><div class=\"hapiHeaderText\">LabTestAfterMP <b>NUMERFAIL </b></div><table class=\"hapiPropertyTable\"><tbody><tr><td>Date of birth</td><td><span>31 July 1992</span></td></tr></tbody></table></div>"},"extension":[{"url":"http://hl7.org/fhir/us/core/StructureDefinition/us-core-race","extension":[{"url":"ombCategory","valueCoding":{"system":"urn:oid:2.16.840.1.113883.6.238","code":"2106-3","display":"White","userSelected":true}},{"url":"text","valueString":"White"}]},{"url":"http://hl7.org/fhir/us/core/StructureDefinition/us-core-ethnicity","extension":[{"url":"ombCategory","valueCoding":{"system":"urn:oid:2.16.840.1.113883.6.238","code":"2186-5","display":"Not Hispanic or Latino","userSelected":true}},{"url":"text","valueString":"Not Hispanic or Latino"}]}],"identifier":[{"type":{"coding":[{"system":"http://terminology.hl7.org/CodeSystem/v2-0203","code":"MR"}]},"system":"https://bonnie-fhir.healthit.gov/","value":"610965b998086b538055c155"}],"active":true,"name":[{"use":"usual","family":"NUMERFail","given":["LabTestAfterMP"]}],"gender":"male","birthDate":"2003-07-31"},"request":{"method":"PUT","url":"Patient/26255213-0c5c-49a1-b3b6-1011faebe918"}},{"fullUrl":"https://madie.cms.gov/Condition/5e5966f59ec84a00005dbc9a","resource":{"resourceType":"Condition","id":"bcc11e23-4875-4707-a33b-2eaac2224a31","meta":{"profile":["http://hl7.org/fhir/us/qicore/StructureDefinition/qicore-condition"]},"clinicalStatus":{"coding":[{"system":"http://terminology.hl7.org/CodeSystem/condition-clinical","code":"active","display":"Active","userSelected":true}]},"category":[{"coding":[{"system":"http://terminology.hl7.org/CodeSystem/condition-category","code":"encounter-diagnosis","display":"Encounter Diagnosis","userSelected":true}]}],"code":{"coding":[{"system":"http://hl7.org/fhir/sid/icd-9-cm","code":"042"}]},"subject":{"reference":"Patient/26255213-0c5c-49a1-b3b6-1011faebe918"},"onsetDateTime":"2025-04-06T08:00:00.000+00:00"},"request":{"method":"PUT","url":"Condition/bcc11e23-4875-4707-a33b-2eaac2224a31"}},{"fullUrl":"https://madie.cms.gov/Encounter/5dd6b917eeabfe0000a7c490","resource":{"resourceType":"Encounter","id":"ddec3d02-c382-4b6e-85c7-1695f15c5f22","meta":{"profile":["http://hl7.org/fhir/us/qicore/StructureDefinition/qicore-encounter"]},"status":"finished","class":{"system":"http://terminology.hl7.org/CodeSystem/v3-ActCode","code":"AMB","display":"ambulatory","userSelected":true},"type":[{"coding":[{"system":"http://snomed.info/sct","code":"185463005"}]}],"subject":{"reference":"Patient/26255213-0c5c-49a1-b3b6-1011faebe918"},"period":{"start":"2025-10-24T08:00:00.000+00:00","end":"2025-10-24T08:15:00.000+00:00"}},"request":{"method":"PUT","url":"Encounter/ddec3d02-c382-4b6e-85c7-1695f15c5f22"}},{"fullUrl":"https://madie.cms.gov/Observation/5dd6b9a7eeabfe0000a7c4f5","resource":{"resourceType":"Observation","id":"572ec71c-4374-4df1-9bd0-ca0ad685d58d","meta":{"profile":["http://hl7.org/fhir/us/qicore/StructureDefinition/qicore-observation"]},"status":"amended","category":[{"coding":[{"system":"http://terminology.hl7.org/CodeSystem/observation-category","code":"laboratory","display":"Laboratory","userSelected":true}]}],"code":{"coding":[{"system":"http://loinc.org","code":"75622-1"}]},"subject":{"reference":"Patient/26255213-0c5c-49a1-b3b6-1011faebe918"},"effectiveDateTime":"2026-01-01T08:00:00.000+00:00","valueBoolean":true},"request":{"method":"PUT","url":"Observation/572ec71c-4374-4df1-9bd0-ca0ad685d58d"}},{"fullUrl":"https://madie.cms.gov/MeasureReport/e7830e7a-eade-43cc-af1d-38f6d237f814","resource":{"resourceType":"MeasureReport","id":"e7830e7a-eade-43cc-af1d-38f6d237f814","meta":{"profile":["http://hl7.org/fhir/us/cqfmeasures/StructureDefinition/test-case-cqfm"]},"contained":[{"resourceType":"Parameters","id":"1b04f5b3-7bee-4b5d-b961-91d7b15b9155-parameters","parameter":[{"name":"subject","valueString":"26255213-0c5c-49a1-b3b6-1011faebe918"}]}],"extension":[{"url":"http://hl7.org/fhir/us/cqfmeasures/StructureDefinition/cqfm-inputParameters","valueReference":{"reference":"#1b04f5b3-7bee-4b5d-b961-91d7b15b9155-parameters"}},{"url":"http://hl7.org/fhir/us/cqfmeasures/StructureDefinition/cqfm-testCaseDescription","valueMarkdown":"Patient 20 at start of MP,  qual encounter during MP, HIV diagnosis starts during MP, lab test at 20 after MP."}],"modifierExtension":[{"url":"http://hl7.org/fhir/us/cqfmeasures/StructureDefinition/cqfm-isTestCase","valueBoolean":true}],"status":"complete","type":"individual","measure":"https://madie.cms.gov/Measure/HIVScreeningFHIR","period":{"start":"2025-01-01","end":"2025-12-31"},"group":[{"population":[{"code":{"coding":[{"system":"http://terminology.hl7.org/CodeSystem/measure-population","code":"initial-population","display":"Initial Population"}]},"count":1},{"code":{"coding":[{"system":"http://terminology.hl7.org/CodeSystem/measure-population","code":"denominator","display":"Denominator"}]},"count":1},{"code":{"coding":[{"system":"http://terminology.hl7.org/CodeSystem/measure-population","code":"denominator-exclusion","display":"Denominator Exclusion"}]},"count":0},{"code":{"coding":[{"system":"http://terminology.hl7.org/CodeSystem/measure-population","code":"numerator","display":"Numerator"}]},"count":0}]}]},"request":{"method":"PUT","url":"MeasureReport/e7830e7a-eade-43cc-af1d-38f6d237f814"}}]}