{"resourceType":"Bundle","id":"tests-3b956fce-b7d6-44c6-ac9f-11260fec4d71-bundle","type":"transaction","entry":[{"fullUrl":"https://madie.cms.gov/Patient/3b956fce-b7d6-44c6-ac9f-11260fec4d71","resource":{"resourceType":"Patient","id":"3b956fce-b7d6-44c6-ac9f-11260fec4d71","meta":{"profile":["http://hl7.org/fhir/us/qicore/StructureDefinition/qicore-patient"]},"text":{"status":"generated","div":"<div xmlns=\"http://www.w3.org/1999/xhtml\"><div class=\"hapiHeaderText\">TwoHIVDxBothInvalidTiming <b>DENEXFAIL </b></div><table class=\"hapiPropertyTable\"><tbody><tr><td>Identifier</td><td>9c54a4dd540c4bea149b36532d75fcb36030130b66a16274ae97dc73d2d880c3</td></tr><tr><td>Date of birth</td><td><span>31 July 1992</span></td></tr></tbody></table></div>"},"extension":[{"url":"http://hl7.org/fhir/us/core/StructureDefinition/us-core-race","extension":[{"url":"ombCategory","valueCoding":{"system":"urn:oid:2.16.840.1.113883.6.238","code":"2106-3","display":"White","userSelected":true}},{"url":"text","valueString":"White"}]},{"url":"http://hl7.org/fhir/us/core/StructureDefinition/us-core-ethnicity","extension":[{"url":"ombCategory","valueCoding":{"system":"urn:oid:2.16.840.1.113883.6.238","code":"2135-2","display":"Hispanic or Latino","userSelected":true}},{"url":"text","valueString":"Hispanic or Latino"}]}],"identifier":[{"type":{"coding":[{"system":"http://terminology.hl7.org/CodeSystem/v2-0203","code":"MR"}]},"system":"https://bonnie-fhir.healthit.gov/","value":"610965b998086b538055c15b"}],"active":true,"name":[{"use":"usual","family":"DENEXFail","given":["TwoHIVDxBothInvalidTiming"]}],"gender":"male","birthDate":"1993-07-31"},"request":{"method":"PUT","url":"Patient/3b956fce-b7d6-44c6-ac9f-11260fec4d71"}},{"fullUrl":"https://madie.cms.gov/Condition/5e4d6d5e20c7500000c66ac7","resource":{"resourceType":"Condition","id":"df12474a-b7c3-4686-a472-aed0243070a6","meta":{"profile":["http://hl7.org/fhir/us/qicore/StructureDefinition/qicore-condition"]},"clinicalStatus":{"coding":[{"system":"http://terminology.hl7.org/CodeSystem/condition-clinical","code":"active","display":"Active","userSelected":true}]},"category":[{"coding":[{"system":"http://terminology.hl7.org/CodeSystem/condition-category","code":"encounter-diagnosis","display":"Encounter Diagnosis","userSelected":true}]}],"code":{"coding":[{"system":"http://hl7.org/fhir/sid/icd-9-cm","code":"042"}]},"subject":{"reference":"Patient/3b956fce-b7d6-44c6-ac9f-11260fec4d71"},"recordedDate":"2012-10-24T08:00:00+00:00"},"request":{"method":"PUT","url":"Condition/df12474a-b7c3-4686-a472-aed0243070a6"}},{"fullUrl":"https://madie.cms.gov/Condition/5e5978c39ec84a00005dc7d1","resource":{"resourceType":"Condition","id":"a75b500d-ecbc-4e62-b52b-8e04c31f68da","meta":{"profile":["http://hl7.org/fhir/us/qicore/StructureDefinition/qicore-condition"]},"clinicalStatus":{"coding":[{"system":"http://terminology.hl7.org/CodeSystem/condition-clinical","code":"active","display":"active","userSelected":true}]},"category":[{"coding":[{"system":"http://terminology.hl7.org/CodeSystem/condition-category","code":"encounter-diagnosis","display":"Encounter Diagnosis","userSelected":true}]}],"code":{"coding":[{"system":"http://hl7.org/fhir/sid/icd-9-cm","code":"042"}]},"subject":{"reference":"Patient/3b956fce-b7d6-44c6-ac9f-11260fec4d71"},"onsetDateTime":"2025-05-10T08:00:00.000+00:00"},"request":{"method":"PUT","url":"Condition/a75b500d-ecbc-4e62-b52b-8e04c31f68da"}},{"fullUrl":"https://madie.cms.gov/Encounter/5c9e578cb8484602c2f92241","resource":{"resourceType":"Encounter","id":"5ae822ab-a1ca-4248-9843-2d466d1b434d","meta":{"profile":["http://hl7.org/fhir/us/qicore/StructureDefinition/qicore-encounter"]},"status":"finished","class":{"system":"http://terminology.hl7.org/CodeSystem/v3-ActCode","code":"AMB","display":"ambulatory","userSelected":true},"type":[{"coding":[{"system":"http://www.ama-assn.org/go/cpt","code":"99395"}]}],"subject":{"reference":"Patient/3b956fce-b7d6-44c6-ac9f-11260fec4d71"},"period":{"start":"2025-10-24T08:00:00.000+00:00","end":"2025-10-24T08:30:00.000+00:00"}},"request":{"method":"PUT","url":"Encounter/5ae822ab-a1ca-4248-9843-2d466d1b434d"}},{"fullUrl":"https://madie.cms.gov/MeasureReport/1588ec85-c870-42bf-b833-adaae14d8138","resource":{"resourceType":"MeasureReport","id":"1588ec85-c870-42bf-b833-adaae14d8138","meta":{"profile":["http://hl7.org/fhir/us/cqfmeasures/StructureDefinition/test-case-cqfm"]},"contained":[{"resourceType":"Parameters","id":"87a646e0-972a-4e7a-a980-c28a4c99c919-parameters","parameter":[{"name":"subject","valueString":"3b956fce-b7d6-44c6-ac9f-11260fec4d71"}]}],"extension":[{"url":"http://hl7.org/fhir/us/cqfmeasures/StructureDefinition/cqfm-inputParameters","valueReference":{"reference":"#87a646e0-972a-4e7a-a980-c28a4c99c919-parameters"}},{"url":"http://hl7.org/fhir/us/cqfmeasures/StructureDefinition/cqfm-testCaseDescription","valueMarkdown":"Patient 20 at start of MP, qual encounter during MP, two HIV diagnoses, one authorDatetime before MP, one valid during MP."}],"modifierExtension":[{"url":"http://hl7.org/fhir/us/cqfmeasures/StructureDefinition/cqfm-isTestCase","valueBoolean":true}],"status":"complete","type":"individual","measure":"https://madie.cms.gov/Measure/HIVScreeningFHIR","period":{"start":"2025-01-01","end":"2025-12-31"},"group":[{"population":[{"code":{"coding":[{"system":"http://terminology.hl7.org/CodeSystem/measure-population","code":"initial-population","display":"Initial Population"}]},"count":1},{"code":{"coding":[{"system":"http://terminology.hl7.org/CodeSystem/measure-population","code":"denominator","display":"Denominator"}]},"count":1},{"code":{"coding":[{"system":"http://terminology.hl7.org/CodeSystem/measure-population","code":"denominator-exclusion","display":"Denominator Exclusion"}]},"count":0},{"code":{"coding":[{"system":"http://terminology.hl7.org/CodeSystem/measure-population","code":"numerator","display":"Numerator"}]},"count":0}]}]},"request":{"method":"PUT","url":"MeasureReport/1588ec85-c870-42bf-b833-adaae14d8138"}}]}