{"resourceType":"Bundle","id":"tests-6844d823-07b3-4b55-8572-892f8df76c20-bundle","type":"transaction","entry":[{"fullUrl":"https://madie.cms.gov/Patient/6844d823-07b3-4b55-8572-892f8df76c20","resource":{"resourceType":"Patient","id":"6844d823-07b3-4b55-8572-892f8df76c20","meta":{"profile":["http://hl7.org/fhir/us/qicore/StructureDefinition/qicore-patient"]},"extension":[{"url":"http://hl7.org/fhir/us/core/StructureDefinition/us-core-race","extension":[{"url":"ombCategory","valueCoding":{"system":"urn:oid:2.16.840.1.113883.6.238","code":"2054-5","display":"Black or African American","userSelected":true}},{"url":"text","valueString":"Black or African American"}]},{"url":"http://hl7.org/fhir/us/core/StructureDefinition/us-core-ethnicity","extension":[{"url":"ombCategory","valueCoding":{"system":"urn:oid:2.16.840.1.113883.6.238","code":"2135-2","display":"Hispanic or Latino","userSelected":true}},{"url":"text","valueString":"Hispanic or Latino"}]}],"identifier":[{"type":{"coding":[{"system":"http://terminology.hl7.org/CodeSystem/v2-0203","code":"MR"}]},"system":"https://bonnie-fhir.healthit.gov/","value":"60f84557a6b2848d9bc604f1"}],"name":[{"family":"DENEXFail","given":["HIVDxInvalid"]}],"gender":"female","birthDate":"1993-07-31"},"request":{"method":"PUT","url":"Patient/6844d823-07b3-4b55-8572-892f8df76c20"}},{"fullUrl":"https://madie.cms.gov/Condition/indicators-of-human-immunodeficiency-virus-hiv-04f2","resource":{"resourceType":"Condition","id":"0943adc8-b4a5-4692-a724-ad22eff1f7f8","meta":{"profile":["http://hl7.org/fhir/us/qicore/StructureDefinition/qicore-condition"]},"clinicalStatus":{"coding":[{"system":"http://terminology.hl7.org/CodeSystem/condition-clinical","code":"inactive","display":"inactive","userSelected":true}]},"category":[{"coding":[{"system":"http://terminology.hl7.org/CodeSystem/condition-category","code":"encounter-diagnosis","display":"Encounter Diagnosis","userSelected":true}]}],"code":{"coding":[{"system":"http://hl7.org/fhir/sid/icd-9-cm","code":"040","userSelected":true}]},"subject":{"reference":"Patient/6844d823-07b3-4b55-8572-892f8df76c20"},"onsetDateTime":"2023-10-24T08:00:00.000+00:00","abatementDateTime":"2024-10-24T08:15:00.000+00:00"},"request":{"method":"PUT","url":"Condition/0943adc8-b4a5-4692-a724-ad22eff1f7f8"}},{"fullUrl":"https://madie.cms.gov/Encounter/preventive-care-services-established-office-visit-18-and-up-04f3","resource":{"resourceType":"Encounter","id":"7cad9f1c-e345-4196-9e16-954f9edd3927","meta":{"profile":["http://hl7.org/fhir/us/qicore/StructureDefinition/qicore-encounter"]},"status":"finished","class":{"system":"http://terminology.hl7.org/CodeSystem/v3-ActCode","code":"AMB","display":"ambulatory","userSelected":true},"type":[{"coding":[{"system":"http://www.ama-assn.org/go/cpt","version":"2021","code":"99395","display":"Periodic comprehensive preventive medicine reevaluation and management of an individual including an age and gender appropriate history, examination, counseling/anticipatory guidance/risk factor reduction interventions, and the ordering of laboratory/diagnostic procedures, established patient; 18-39 years","userSelected":true}]}],"subject":{"reference":"Patient/6844d823-07b3-4b55-8572-892f8df76c20"},"period":{"start":"2025-10-24T08:00:00.000+00:00","end":"2025-10-24T08:15:00.000+00:00"}},"request":{"method":"PUT","url":"Encounter/7cad9f1c-e345-4196-9e16-954f9edd3927"}},{"fullUrl":"https://madie.cms.gov/Coverage/medicare","resource":{"resourceType":"Coverage","id":"68e9fcb6-4db8-4bc4-bfab-b4b7aad151d1","meta":{"profile":["http://hl7.org/fhir/us/qicore/StructureDefinition/qicore-coverage"]},"status":"active","type":{"coding":[{"system":"https://nahdo.org/sopt","version":"9.2","code":"1","display":"MEDICARE"}]},"beneficiary":{"reference":"Patient/6844d823-07b3-4b55-8572-892f8df76c20"},"period":{"start":"2024-12-01T00:00:00+00:00"},"payor":[{"reference":"Organization/4b5a882f-1f43-485c-85c6-f5ad2337d5b1"}]},"request":{"method":"PUT","url":"Coverage/68e9fcb6-4db8-4bc4-bfab-b4b7aad151d1"}},{"fullUrl":"https://madie.cms.gov/MeasureReport/2b98790c-2f52-4439-9f19-c7f1a495cbbe","resource":{"resourceType":"MeasureReport","id":"2b98790c-2f52-4439-9f19-c7f1a495cbbe","meta":{"profile":["http://hl7.org/fhir/us/cqfmeasures/StructureDefinition/test-case-cqfm"]},"contained":[{"resourceType":"Parameters","id":"72acab99-bcb4-46da-9a78-c54fd1c98e2f-parameters","parameter":[{"name":"subject","valueString":"6844d823-07b3-4b55-8572-892f8df76c20"}]}],"extension":[{"url":"http://hl7.org/fhir/us/cqfmeasures/StructureDefinition/cqfm-inputParameters","valueReference":{"reference":"#72acab99-bcb4-46da-9a78-c54fd1c98e2f-parameters"}},{"url":"http://hl7.org/fhir/us/cqfmeasures/StructureDefinition/cqfm-testCaseDescription","valueMarkdown":"Patient 20 at start of MP, qualifying encounter during MP, invalid HIV diagnosis starts before MP."}],"modifierExtension":[{"url":"http://hl7.org/fhir/us/cqfmeasures/StructureDefinition/cqfm-isTestCase","valueBoolean":true}],"status":"complete","type":"individual","measure":"https://madie.cms.gov/Measure/HIVScreeningFHIR","period":{"start":"2025-01-01","end":"2025-12-31"},"group":[{"population":[{"code":{"coding":[{"system":"http://terminology.hl7.org/CodeSystem/measure-population","code":"initial-population","display":"Initial Population"}]},"count":1},{"code":{"coding":[{"system":"http://terminology.hl7.org/CodeSystem/measure-population","code":"denominator","display":"Denominator"}]},"count":1},{"code":{"coding":[{"system":"http://terminology.hl7.org/CodeSystem/measure-population","code":"denominator-exclusion","display":"Denominator Exclusion"}]},"count":0},{"code":{"coding":[{"system":"http://terminology.hl7.org/CodeSystem/measure-population","code":"numerator","display":"Numerator"}]},"count":0}]}]},"request":{"method":"PUT","url":"MeasureReport/2b98790c-2f52-4439-9f19-c7f1a495cbbe"}}]}