{"resourceType":"Bundle","id":"tests-85b40cb7-0686-4e70-b4c9-dffa10491ebc-bundle","type":"transaction","entry":[{"fullUrl":"https://madie.cms.gov/Patient/85b40cb7-0686-4e70-b4c9-dffa10491ebc","resource":{"resourceType":"Patient","id":"85b40cb7-0686-4e70-b4c9-dffa10491ebc","meta":{"profile":["http://hl7.org/fhir/us/qicore/StructureDefinition/qicore-patient"]},"text":{"status":"generated","div":"<div xmlns=\"http://www.w3.org/1999/xhtml\"><div class=\"hapiHeaderText\">HIVDxJan2duringMP <b>DENEXFAIL </b></div><table class=\"hapiPropertyTable\"><tbody><tr><td>Date of birth</td><td><span>04 January 1992</span></td></tr></tbody></table></div>"},"extension":[{"url":"http://hl7.org/fhir/us/core/StructureDefinition/us-core-race","extension":[{"url":"ombCategory","valueCoding":{"system":"urn:oid:2.16.840.1.113883.6.238","code":"2054-5","display":"Black or African American","userSelected":true}},{"url":"text","valueString":"Black or African American"}]},{"url":"http://hl7.org/fhir/us/core/StructureDefinition/us-core-ethnicity","extension":[{"url":"ombCategory","valueCoding":{"system":"urn:oid:2.16.840.1.113883.6.238","code":"2186-5","display":"Not Hispanic or Latino","userSelected":true}},{"url":"text","valueString":"Not Hispanic or Latino"}]}],"identifier":[{"type":{"coding":[{"system":"http://terminology.hl7.org/CodeSystem/v2-0203","code":"MR"}]},"system":"https://bonnie-fhir.healthit.gov/","value":"610965b998086b538055c163"}],"active":true,"name":[{"use":"usual","family":"DENEXFail","given":["HIVDxJan2duringMP"]}],"gender":"female","birthDate":"1993-01-04"},"request":{"method":"PUT","url":"Patient/85b40cb7-0686-4e70-b4c9-dffa10491ebc"}},{"fullUrl":"https://madie.cms.gov/Condition/602abf9537c1b30000556ae8","resource":{"resourceType":"Condition","id":"0f59cee4-6276-4295-9443-cbf8c399a1f4","meta":{"profile":["http://hl7.org/fhir/us/qicore/StructureDefinition/qicore-condition"]},"clinicalStatus":{"coding":[{"system":"http://terminology.hl7.org/CodeSystem/condition-clinical","code":"active","display":"Active","userSelected":true}]},"category":[{"coding":[{"system":"http://terminology.hl7.org/CodeSystem/condition-category","code":"encounter-diagnosis","display":"Encounter Diagnosis","userSelected":true}]}],"code":{"coding":[{"system":"http://hl7.org/fhir/sid/icd-9-cm","code":"042"}]},"subject":{"reference":"Patient/85b40cb7-0686-4e70-b4c9-dffa10491ebc"},"onsetDateTime":"2025-01-02T08:00:00.000+00:00"},"request":{"method":"PUT","url":"Condition/0f59cee4-6276-4295-9443-cbf8c399a1f4"}},{"fullUrl":"https://madie.cms.gov/Encounter/602ac00137c1b30000556b95","resource":{"resourceType":"Encounter","id":"1b9d976b-c67e-45ec-a9db-2ef0a3c0a6f1","meta":{"profile":["http://hl7.org/fhir/us/qicore/StructureDefinition/qicore-encounter"]},"status":"finished","class":{"system":"http://terminology.hl7.org/CodeSystem/v3-ActCode","code":"AMB","display":"ambulatory","userSelected":true},"type":[{"coding":[{"system":"http://www.ama-assn.org/go/cpt","code":"99393"}]}],"subject":{"reference":"Patient/85b40cb7-0686-4e70-b4c9-dffa10491ebc"},"period":{"start":"2025-04-15T09:00:00.000+00:00","end":"2025-04-15T10:15:00.000+00:00"}},"request":{"method":"PUT","url":"Encounter/1b9d976b-c67e-45ec-a9db-2ef0a3c0a6f1"}},{"fullUrl":"https://madie.cms.gov/MeasureReport/07dc8b34-0e0d-46ba-a0d6-753c527d113d","resource":{"resourceType":"MeasureReport","id":"07dc8b34-0e0d-46ba-a0d6-753c527d113d","meta":{"profile":["http://hl7.org/fhir/us/cqfmeasures/StructureDefinition/test-case-cqfm"]},"contained":[{"resourceType":"Parameters","id":"b20ae640-7402-4ddf-81c7-2edeef9b5bbe-parameters","parameter":[{"name":"subject","valueString":"85b40cb7-0686-4e70-b4c9-dffa10491ebc"}]}],"extension":[{"url":"http://hl7.org/fhir/us/cqfmeasures/StructureDefinition/cqfm-inputParameters","valueReference":{"reference":"#b20ae640-7402-4ddf-81c7-2edeef9b5bbe-parameters"}},{"url":"http://hl7.org/fhir/us/cqfmeasures/StructureDefinition/cqfm-testCaseDescription","valueMarkdown":"Patient is 31 with a diagnosis of HIV on January 2nd of MP."}],"modifierExtension":[{"url":"http://hl7.org/fhir/us/cqfmeasures/StructureDefinition/cqfm-isTestCase","valueBoolean":true}],"status":"complete","type":"individual","measure":"https://madie.cms.gov/Measure/HIVScreeningFHIR","period":{"start":"2025-01-01","end":"2025-12-31"},"group":[{"population":[{"code":{"coding":[{"system":"http://terminology.hl7.org/CodeSystem/measure-population","code":"initial-population","display":"Initial Population"}]},"count":1},{"code":{"coding":[{"system":"http://terminology.hl7.org/CodeSystem/measure-population","code":"denominator","display":"Denominator"}]},"count":1},{"code":{"coding":[{"system":"http://terminology.hl7.org/CodeSystem/measure-population","code":"denominator-exclusion","display":"Denominator Exclusion"}]},"count":0},{"code":{"coding":[{"system":"http://terminology.hl7.org/CodeSystem/measure-population","code":"numerator","display":"Numerator"}]},"count":0}]}]},"request":{"method":"PUT","url":"MeasureReport/07dc8b34-0e0d-46ba-a0d6-753c527d113d"}}]}