{"resourceType":"Bundle","id":"tests-cc3f7a61-ba3c-4456-86c6-260ad0c3123c-bundle","type":"transaction","entry":[{"fullUrl":"https://madie.cms.gov/Patient/cc3f7a61-ba3c-4456-86c6-260ad0c3123c","resource":{"resourceType":"Patient","id":"cc3f7a61-ba3c-4456-86c6-260ad0c3123c","meta":{"profile":["http://hl7.org/fhir/us/qicore/StructureDefinition/qicore-patient"]},"text":{"status":"generated","div":"<div xmlns=\"http://www.w3.org/1999/xhtml\"><div class=\"hapiHeaderText\">LabTestInvalid <b>NUMERFAIL </b></div><table class=\"hapiPropertyTable\"><tbody><tr><td>Date of birth</td><td><span>31 July 1992</span></td></tr></tbody></table></div>"},"extension":[{"url":"http://hl7.org/fhir/us/core/StructureDefinition/us-core-race","extension":[{"url":"ombCategory","valueCoding":{"system":"urn:oid:2.16.840.1.113883.6.238","code":"2076-8","display":"Native Hawaiian or Other Pacific Islander","userSelected":true}},{"url":"text","valueString":"Native Hawaiian or Other Pacific Islander"}]},{"url":"http://hl7.org/fhir/us/core/StructureDefinition/us-core-ethnicity","extension":[{"url":"ombCategory","valueCoding":{"system":"urn:oid:2.16.840.1.113883.6.238","code":"2135-2","display":"Hispanic or Latino","userSelected":true}},{"url":"text","valueString":"Hispanic or Latino"}]}],"identifier":[{"type":{"coding":[{"system":"http://terminology.hl7.org/CodeSystem/v2-0203","code":"MR"}]},"system":"https://bonnie-fhir.healthit.gov/","value":"610965b898086b538055c151"}],"active":true,"name":[{"use":"usual","family":"NUMERFail","given":["LabTestInvalid"]}],"gender":"female","birthDate":"2003-07-31"},"request":{"method":"PUT","url":"Patient/cc3f7a61-ba3c-4456-86c6-260ad0c3123c"}},{"fullUrl":"https://madie.cms.gov/Condition/5e5966f59ec84a00005dbc9a","resource":{"resourceType":"Condition","id":"b4afc289-90b3-44ac-886f-67b2f36816d3","meta":{"profile":["http://hl7.org/fhir/us/qicore/StructureDefinition/qicore-condition"]},"clinicalStatus":{"coding":[{"system":"http://terminology.hl7.org/CodeSystem/condition-clinical","version":"4.0.1","code":"inactive","display":"Inactive","userSelected":true}]},"category":[{"coding":[{"system":"http://terminology.hl7.org/CodeSystem/condition-category","code":"encounter-diagnosis","display":"Encounter Diagnosis","userSelected":true}]}],"code":{"coding":[{"system":"http://hl7.org/fhir/sid/icd-9-cm","code":"042"}]},"subject":{"reference":"Patient/cc3f7a61-ba3c-4456-86c6-260ad0c3123c"},"onsetDateTime":"2025-04-06T08:00:00.000+00:00","abatementDateTime":"2025-10-24T08:00:00.000+00:00"},"request":{"method":"PUT","url":"Condition/b4afc289-90b3-44ac-886f-67b2f36816d3"}},{"fullUrl":"https://madie.cms.gov/Encounter/5dd6b917eeabfe0000a7c490","resource":{"resourceType":"Encounter","id":"a98858a7-733a-4c37-a8e5-a3221ec20934","meta":{"profile":["http://hl7.org/fhir/us/qicore/StructureDefinition/qicore-encounter"]},"status":"finished","class":{"system":"http://terminology.hl7.org/CodeSystem/v3-ActCode","code":"AMB","display":"ambulatory","userSelected":true},"type":[{"coding":[{"system":"http://snomed.info/sct","code":"185463005"},{"system":"http://www.ama-assn.org/go/cpt","code":"99203"}]}],"subject":{"reference":"Patient/cc3f7a61-ba3c-4456-86c6-260ad0c3123c"},"period":{"start":"2025-10-24T08:00:00.000+00:00","end":"2025-10-24T08:15:00.000+00:00"}},"request":{"method":"PUT","url":"Encounter/a98858a7-733a-4c37-a8e5-a3221ec20934"}},{"fullUrl":"https://madie.cms.gov/Observation/5dd6b9a7eeabfe0000a7c4f5","resource":{"resourceType":"Observation","id":"e402914c-782d-4906-8943-068366a4b430","meta":{"profile":["http://hl7.org/fhir/us/qicore/StructureDefinition/qicore-observation"]},"status":"final","category":[{"coding":[{"system":"http://terminology.hl7.org/CodeSystem/observation-category","code":"laboratory","display":"Laboratory","userSelected":true}]}],"code":{"coding":[{"system":"http://hl7.org/fhir/sid/icd-9-cm","code":"040"}]},"subject":{"reference":"Patient/cc3f7a61-ba3c-4456-86c6-260ad0c3123c"},"effectiveDateTime":"2025-04-06T08:00:00.000+00:00","valueBoolean":true},"request":{"method":"PUT","url":"Observation/e402914c-782d-4906-8943-068366a4b430"}},{"fullUrl":"https://madie.cms.gov/MeasureReport/156a0e45-3822-4ae2-8c68-0670b0ddaaa4","resource":{"resourceType":"MeasureReport","id":"156a0e45-3822-4ae2-8c68-0670b0ddaaa4","meta":{"profile":["http://hl7.org/fhir/us/cqfmeasures/StructureDefinition/test-case-cqfm"]},"contained":[{"resourceType":"Parameters","id":"658edbbf-05fd-436b-886f-be4a659886ec-parameters","parameter":[{"name":"subject","valueString":"cc3f7a61-ba3c-4456-86c6-260ad0c3123c"}]}],"extension":[{"url":"http://hl7.org/fhir/us/cqfmeasures/StructureDefinition/cqfm-inputParameters","valueReference":{"reference":"#658edbbf-05fd-436b-886f-be4a659886ec-parameters"}},{"url":"http://hl7.org/fhir/us/cqfmeasures/StructureDefinition/cqfm-testCaseDescription","valueMarkdown":"Patient 20 at start of MP, qual encounter during MP, HIV diagnosis starts during MP, invalid lab test at 20 during MP."}],"modifierExtension":[{"url":"http://hl7.org/fhir/us/cqfmeasures/StructureDefinition/cqfm-isTestCase","valueBoolean":true}],"status":"complete","type":"individual","measure":"https://madie.cms.gov/Measure/HIVScreeningFHIR","period":{"start":"2025-01-01","end":"2025-12-31"},"group":[{"population":[{"code":{"coding":[{"system":"http://terminology.hl7.org/CodeSystem/measure-population","code":"initial-population","display":"Initial Population"}]},"count":1},{"code":{"coding":[{"system":"http://terminology.hl7.org/CodeSystem/measure-population","code":"denominator","display":"Denominator"}]},"count":1},{"code":{"coding":[{"system":"http://terminology.hl7.org/CodeSystem/measure-population","code":"denominator-exclusion","display":"Denominator Exclusion"}]},"count":0},{"code":{"coding":[{"system":"http://terminology.hl7.org/CodeSystem/measure-population","code":"numerator","display":"Numerator"}]},"count":0}]}]},"request":{"method":"PUT","url":"MeasureReport/156a0e45-3822-4ae2-8c68-0670b0ddaaa4"}}]}