{"resourceType":"Bundle","id":"tests-2ca6fcbd-127d-4186-b65e-9b685f860f8d-bundle","type":"transaction","entry":[{"fullUrl":"https://madie.cms.gov/Patient/2ca6fcbd-127d-4186-b65e-9b685f860f8d","resource":{"resourceType":"Patient","id":"2ca6fcbd-127d-4186-b65e-9b685f860f8d","meta":{"profile":["http://hl7.org/fhir/us/qicore/StructureDefinition/qicore-patient"]},"text":{"status":"generated","div":"<div xmlns=\"http://www.w3.org/1999/xhtml\"><div class=\"hapiHeaderText\">HIVDxDec31BeforeMP <b>DENEXPASS </b></div><table class=\"hapiPropertyTable\"><tbody><tr><td>Date of birth</td><td><span>04 January 1992</span></td></tr></tbody></table></div>"},"extension":[{"url":"http://hl7.org/fhir/us/core/StructureDefinition/us-core-race","extension":[{"url":"ombCategory","valueCoding":{"system":"urn:oid:2.16.840.1.113883.6.238","code":"1002-5","display":"American Indian or Alaska Native","userSelected":true}},{"url":"text","valueString":"American Indian or Alaska Native"}]},{"url":"http://hl7.org/fhir/us/core/StructureDefinition/us-core-ethnicity","extension":[{"url":"ombCategory","valueCoding":{"system":"urn:oid:2.16.840.1.113883.6.238","code":"2135-2","display":"Hispanic or Latino","userSelected":true}},{"url":"text","valueString":"Hispanic or Latino"}]}],"identifier":[{"type":{"coding":[{"system":"http://terminology.hl7.org/CodeSystem/v2-0203","code":"MR"}]},"system":"https://bonnie-fhir.healthit.gov/","value":"610965b998086b538055c160"}],"active":true,"name":[{"use":"usual","family":"DENEXPass","given":["HIVDxDec31BeforeMP"]}],"gender":"female","birthDate":"1993-01-04"},"request":{"method":"PUT","url":"Patient/2ca6fcbd-127d-4186-b65e-9b685f860f8d"}},{"fullUrl":"https://madie.cms.gov/Encounter/602ac00137c1b30000556b95","resource":{"resourceType":"Encounter","id":"4bc990d1-73c3-469a-9e13-d6329cff920e","meta":{"profile":["http://hl7.org/fhir/us/qicore/StructureDefinition/qicore-encounter"]},"status":"finished","class":{"system":"http://terminology.hl7.org/CodeSystem/v3-ActCode","code":"AMB","display":"ambulatory","userSelected":true},"type":[{"coding":[{"system":"http://www.ama-assn.org/go/cpt","code":"99393"}]}],"subject":{"reference":"Patient/2ca6fcbd-127d-4186-b65e-9b685f860f8d"},"period":{"start":"2025-04-15T09:00:00.000+00:00","end":"2025-04-15T10:15:00.000+00:00"}},"request":{"method":"PUT","url":"Encounter/4bc990d1-73c3-469a-9e13-d6329cff920e"}},{"fullUrl":"https://madie.cms.gov/Condition/hiv-5f4f","resource":{"resourceType":"Condition","id":"019334ce-26dc-4c6f-bfaa-f0381ef00608","meta":{"profile":["http://hl7.org/fhir/us/qicore/StructureDefinition/qicore-condition"]},"clinicalStatus":{"coding":[{"system":"http://terminology.hl7.org/CodeSystem/condition-clinical","code":"active","display":"Active","userSelected":true}]},"category":[{"coding":[{"system":"http://terminology.hl7.org/CodeSystem/condition-category","code":"encounter-diagnosis","display":"Encounter Diagnosis","userSelected":true}]}],"code":{"coding":[{"system":"http://hl7.org/fhir/sid/icd-9-cm","version":"2013","code":"042","display":"Human immunodeficiency virus [HIV] disease","userSelected":true},{"system":"http://snomed.info/sct","code":"165816005","userSelected":true}]},"subject":{"reference":"Patient/2ca6fcbd-127d-4186-b65e-9b685f860f8d"},"onsetDateTime":"2023-12-31T08:00:00.000+00:00"},"request":{"method":"PUT","url":"Condition/019334ce-26dc-4c6f-bfaa-f0381ef00608"}},{"fullUrl":"https://madie.cms.gov/MeasureReport/141b2eca-e649-4fb4-b01e-6decbab07f8a","resource":{"resourceType":"MeasureReport","id":"141b2eca-e649-4fb4-b01e-6decbab07f8a","meta":{"profile":["http://hl7.org/fhir/us/cqfmeasures/StructureDefinition/test-case-cqfm"]},"contained":[{"resourceType":"Parameters","id":"d7c6d237-161e-4833-9b96-e085185ee9f9-parameters","parameter":[{"name":"subject","valueString":"2ca6fcbd-127d-4186-b65e-9b685f860f8d"}]}],"extension":[{"url":"http://hl7.org/fhir/us/cqfmeasures/StructureDefinition/cqfm-inputParameters","valueReference":{"reference":"#d7c6d237-161e-4833-9b96-e085185ee9f9-parameters"}},{"url":"http://hl7.org/fhir/us/cqfmeasures/StructureDefinition/cqfm-testCaseDescription","valueMarkdown":"Patient is 31 with a diagnosis of HIV prior to the start of the measurement period [HIV does not end, active]"}],"modifierExtension":[{"url":"http://hl7.org/fhir/us/cqfmeasures/StructureDefinition/cqfm-isTestCase","valueBoolean":true}],"status":"complete","type":"individual","measure":"https://madie.cms.gov/Measure/HIVScreeningFHIR","period":{"start":"2025-01-01","end":"2025-12-31"},"group":[{"population":[{"code":{"coding":[{"system":"http://terminology.hl7.org/CodeSystem/measure-population","code":"initial-population","display":"Initial Population"}]},"count":1},{"code":{"coding":[{"system":"http://terminology.hl7.org/CodeSystem/measure-population","code":"denominator","display":"Denominator"}]},"count":1},{"code":{"coding":[{"system":"http://terminology.hl7.org/CodeSystem/measure-population","code":"denominator-exclusion","display":"Denominator Exclusion"}]},"count":1},{"code":{"coding":[{"system":"http://terminology.hl7.org/CodeSystem/measure-population","code":"numerator","display":"Numerator"}]},"count":0}]}]},"request":{"method":"PUT","url":"MeasureReport/141b2eca-e649-4fb4-b01e-6decbab07f8a"}}]}