{"resourceType":"Bundle","id":"tests-8e9a6beb-2485-4aff-8fbc-d8f62c43be97-bundle","type":"transaction","entry":[{"fullUrl":"https://madie.cms.gov/Patient/8e9a6beb-2485-4aff-8fbc-d8f62c43be97","resource":{"resourceType":"Patient","id":"8e9a6beb-2485-4aff-8fbc-d8f62c43be97","meta":{"profile":["http://hl7.org/fhir/us/qicore/StructureDefinition/qicore-patient"]},"text":{"status":"generated","div":"<div xmlns=\"http://www.w3.org/1999/xhtml\"><div class=\"hapiHeaderText\">HIVDxStartsDuringMP <b>DENEXFAIL </b></div><table class=\"hapiPropertyTable\"><tbody><tr><td>Identifier</td><td>a7dd2df328fa2276f91b533eb53429c7adfb893d94ea60345f454e9af370ab3d</td></tr><tr><td>Date of birth</td><td><span>31 July 1992</span></td></tr></tbody></table></div>"},"extension":[{"url":"http://hl7.org/fhir/us/core/StructureDefinition/us-core-race","extension":[{"url":"ombCategory","valueCoding":{"system":"urn:oid:2.16.840.1.113883.6.238","code":"2106-3","display":"White","userSelected":true}},{"url":"text","valueString":"White"}]},{"url":"http://hl7.org/fhir/us/core/StructureDefinition/us-core-ethnicity","extension":[{"url":"ombCategory","valueCoding":{"system":"urn:oid:2.16.840.1.113883.6.238","code":"2186-5","display":"Not Hispanic or Latino","userSelected":true}},{"url":"text","valueString":"Not Hispanic or Latino"}]}],"identifier":[{"type":{"coding":[{"system":"http://terminology.hl7.org/CodeSystem/v2-0203","code":"MR"}]},"system":"https://bonnie-fhir.healthit.gov/","value":"610965b898086b538055c149"}],"active":true,"name":[{"use":"usual","family":"DENEXFail","given":["HIVDxStartsDuringMP "]}],"gender":"male","birthDate":"1993-07-31"},"request":{"method":"PUT","url":"Patient/8e9a6beb-2485-4aff-8fbc-d8f62c43be97"}},{"fullUrl":"https://madie.cms.gov/Encounter/5c9e578cb8484602c2f92226","resource":{"resourceType":"Encounter","id":"4fbcb6e2-f320-4abf-8def-e47a7dad1f19","meta":{"profile":["http://hl7.org/fhir/us/qicore/StructureDefinition/qicore-encounter"]},"status":"finished","class":{"system":"http://terminology.hl7.org/CodeSystem/v3-ActCode","code":"AMB","display":"ambulatory","userSelected":true},"type":[{"coding":[{"system":"http://www.ama-assn.org/go/cpt","code":"99395"}]}],"subject":{"reference":"Patient/8e9a6beb-2485-4aff-8fbc-d8f62c43be97"},"period":{"start":"2025-10-24T08:00:00.000+00:00","end":"2025-10-24T08:15:00.000+00:00"}},"request":{"method":"PUT","url":"Encounter/4fbcb6e2-f320-4abf-8def-e47a7dad1f19"}},{"fullUrl":"https://madie.cms.gov/Condition/hiv-fea8","resource":{"resourceType":"Condition","id":"4a2e752c-e335-4315-a7d6-f06b8a46a94e","meta":{"profile":["http://hl7.org/fhir/us/qicore/StructureDefinition/qicore-condition"]},"clinicalStatus":{"coding":[{"system":"http://terminology.hl7.org/CodeSystem/condition-clinical","code":"active","display":"active","userSelected":true}]},"verificationStatus":{"coding":[{"system":"http://terminology.hl7.org/CodeSystem/condition-ver-status","code":"confirmed"}]},"category":[{"coding":[{"system":"http://terminology.hl7.org/CodeSystem/condition-category","code":"encounter-diagnosis","display":"Encounter Diagnosis","userSelected":true}]}],"code":{"coding":[{"system":"http://hl7.org/fhir/sid/icd-9-cm","version":"2013","code":"042","display":"Human immunodeficiency virus [HIV] disease","userSelected":true},{"system":"http://snomed.info/sct","code":"165816005","userSelected":true}]},"subject":{"reference":"Patient/8e9a6beb-2485-4aff-8fbc-d8f62c43be97"},"onsetDateTime":"2025-03-29T08:00:00.000+00:00","recordedDate":"2025-03-29T08:00:00.000+00:00"},"request":{"method":"PUT","url":"Condition/4a2e752c-e335-4315-a7d6-f06b8a46a94e"}},{"fullUrl":"https://madie.cms.gov/MeasureReport/ad9d504d-214b-48eb-893f-560f9b496626","resource":{"resourceType":"MeasureReport","id":"ad9d504d-214b-48eb-893f-560f9b496626","meta":{"profile":["http://hl7.org/fhir/us/cqfmeasures/StructureDefinition/test-case-cqfm"]},"contained":[{"resourceType":"Parameters","id":"c3b1443c-728e-4967-b45b-866a5301bb1c-parameters","parameter":[{"name":"subject","valueString":"8e9a6beb-2485-4aff-8fbc-d8f62c43be97"}]}],"extension":[{"url":"http://hl7.org/fhir/us/cqfmeasures/StructureDefinition/cqfm-inputParameters","valueReference":{"reference":"#c3b1443c-728e-4967-b45b-866a5301bb1c-parameters"}},{"url":"http://hl7.org/fhir/us/cqfmeasures/StructureDefinition/cqfm-testCaseDescription","valueMarkdown":"Patient 31 at start of MP, qualifying encounter during MP, HIV diagnosis starts during MP."}],"modifierExtension":[{"url":"http://hl7.org/fhir/us/cqfmeasures/StructureDefinition/cqfm-isTestCase","valueBoolean":true}],"status":"complete","type":"individual","measure":"https://madie.cms.gov/Measure/HIVScreeningFHIR","period":{"start":"2025-01-01","end":"2025-12-31"},"group":[{"population":[{"code":{"coding":[{"system":"http://terminology.hl7.org/CodeSystem/measure-population","code":"initial-population","display":"Initial Population"}]},"count":1},{"code":{"coding":[{"system":"http://terminology.hl7.org/CodeSystem/measure-population","code":"denominator","display":"Denominator"}]},"count":1},{"code":{"coding":[{"system":"http://terminology.hl7.org/CodeSystem/measure-population","code":"denominator-exclusion","display":"Denominator Exclusion"}]},"count":0},{"code":{"coding":[{"system":"http://terminology.hl7.org/CodeSystem/measure-population","code":"numerator","display":"Numerator"}]},"count":0}]}]},"request":{"method":"PUT","url":"MeasureReport/ad9d504d-214b-48eb-893f-560f9b496626"}}]}