{"resourceType":"Bundle","id":"tests-1985a91a-0a76-463d-a52c-1cf9f66ffbf8-bundle","type":"transaction","entry":[{"fullUrl":"https://madie.cms.gov/Patient/1985a91a-0a76-463d-a52c-1cf9f66ffbf8","resource":{"resourceType":"Patient","id":"1985a91a-0a76-463d-a52c-1cf9f66ffbf8","meta":{"profile":["http://hl7.org/fhir/us/qicore/StructureDefinition/qicore-patient"]},"text":{"status":"generated","div":"<div xmlns=\"http://www.w3.org/1999/xhtml\"><div class=\"hapiHeaderText\">LabTestTooYoung <b>NUMERFAIL </b></div><table class=\"hapiPropertyTable\"><tbody><tr><td>Identifier</td><td>3a3b648e0cc14e200f2d48b72852219e3b95e5787df1549ba35aedfebdf90868</td></tr><tr><td>Date of birth</td><td><span>31 July 1994</span></td></tr></tbody></table></div>"},"extension":[{"url":"http://hl7.org/fhir/us/core/StructureDefinition/us-core-race","extension":[{"url":"ombCategory","valueCoding":{"system":"urn:oid:2.16.840.1.113883.6.238","code":"2106-3","display":"White","userSelected":true}},{"url":"text","valueString":"White"}]},{"url":"http://hl7.org/fhir/us/core/StructureDefinition/us-core-ethnicity","extension":[{"url":"ombCategory","valueCoding":{"system":"urn:oid:2.16.840.1.113883.6.238","code":"2186-5","display":"Not Hispanic or Latino","userSelected":true}},{"url":"text","valueString":"Not Hispanic or Latino"}]}],"identifier":[{"type":{"coding":[{"system":"http://terminology.hl7.org/CodeSystem/v2-0203","code":"MR"}]},"system":"https://bonnie-fhir.healthit.gov/","value":"610965b998086b538055c156"}],"active":true,"name":[{"use":"usual","family":"NUMERFail","given":["LabTestTooYoung"]}],"gender":"female","birthDate":"2003-07-31"},"request":{"method":"PUT","url":"Patient/1985a91a-0a76-463d-a52c-1cf9f66ffbf8"}},{"fullUrl":"https://madie.cms.gov/Encounter/5e596bf19ec84a00005dc13b","resource":{"resourceType":"Encounter","id":"80b17f65-72ff-4bc9-8eda-79cd7b0b24c0","meta":{"profile":["http://hl7.org/fhir/us/qicore/StructureDefinition/qicore-encounter"]},"status":"finished","class":{"system":"http://terminology.hl7.org/CodeSystem/v3-ActCode","code":"AMB","display":"ambulatory","userSelected":true},"type":[{"coding":[{"system":"http://www.ama-assn.org/go/cpt","code":"99391"}]}],"subject":{"reference":"Patient/1985a91a-0a76-463d-a52c-1cf9f66ffbf8"},"period":{"start":"2025-02-06T08:00:00.000+00:00","end":"2025-02-06T08:15:00.000+00:00"}},"request":{"method":"PUT","url":"Encounter/80b17f65-72ff-4bc9-8eda-79cd7b0b24c0"}},{"fullUrl":"https://madie.cms.gov/Observation/5c9e578cb8484602c2f9221a","resource":{"resourceType":"Observation","id":"78a330ab-a739-40d6-a504-2f041e76db1c","meta":{"profile":["http://hl7.org/fhir/us/qicore/StructureDefinition/qicore-observation"]},"status":"final","category":[{"coding":[{"system":"http://terminology.hl7.org/CodeSystem/observation-category","code":"laboratory","display":"Laboratory","userSelected":true}]}],"code":{"coding":[{"system":"http://loinc.org","code":"10901-7"}]},"subject":{"reference":"Patient/1985a91a-0a76-463d-a52c-1cf9f66ffbf8"},"effectiveDateTime":"2010-07-30T23:59:00.000+00:00","valueBoolean":true},"request":{"method":"PUT","url":"Observation/78a330ab-a739-40d6-a504-2f041e76db1c"}},{"fullUrl":"https://madie.cms.gov/MeasureReport/3330acc4-9232-4e62-810b-e943ec24f921","resource":{"resourceType":"MeasureReport","id":"3330acc4-9232-4e62-810b-e943ec24f921","meta":{"profile":["http://hl7.org/fhir/us/cqfmeasures/StructureDefinition/test-case-cqfm"]},"contained":[{"resourceType":"Parameters","id":"f03f4d45-74c4-4b80-a99e-b4f536a8a6c3-parameters","parameter":[{"name":"subject","valueString":"1985a91a-0a76-463d-a52c-1cf9f66ffbf8"}]}],"extension":[{"url":"http://hl7.org/fhir/us/cqfmeasures/StructureDefinition/cqfm-inputParameters","valueReference":{"reference":"#f03f4d45-74c4-4b80-a99e-b4f536a8a6c3-parameters"}},{"url":"http://hl7.org/fhir/us/cqfmeasures/StructureDefinition/cqfm-testCaseDescription","valueMarkdown":"Patient 20 at start of MP, qual encounter during MP, lab test under 15"}],"modifierExtension":[{"url":"http://hl7.org/fhir/us/cqfmeasures/StructureDefinition/cqfm-isTestCase","valueBoolean":true}],"status":"complete","type":"individual","measure":"https://madie.cms.gov/Measure/HIVScreeningFHIR","period":{"start":"2025-01-01","end":"2025-12-31"},"group":[{"population":[{"code":{"coding":[{"system":"http://terminology.hl7.org/CodeSystem/measure-population","code":"initial-population","display":"Initial Population"}]},"count":1},{"code":{"coding":[{"system":"http://terminology.hl7.org/CodeSystem/measure-population","code":"denominator","display":"Denominator"}]},"count":1},{"code":{"coding":[{"system":"http://terminology.hl7.org/CodeSystem/measure-population","code":"denominator-exclusion","display":"Denominator Exclusion"}]},"count":0},{"code":{"coding":[{"system":"http://terminology.hl7.org/CodeSystem/measure-population","code":"numerator","display":"Numerator"}]},"count":0}]}]},"request":{"method":"PUT","url":"MeasureReport/3330acc4-9232-4e62-810b-e943ec24f921"}}]}