{"resourceType":"Bundle","id":"tests-415a39a6-74db-4168-b704-291c71c8def9-bundle","type":"transaction","entry":[{"fullUrl":"https://madie.cms.gov/Patient/415a39a6-74db-4168-b704-291c71c8def9","resource":{"resourceType":"Patient","id":"415a39a6-74db-4168-b704-291c71c8def9","meta":{"profile":["http://hl7.org/fhir/us/qicore/StructureDefinition/qicore-patient"]},"text":{"status":"generated","div":"<div xmlns=\"http://www.w3.org/1999/xhtml\"><div class=\"hapiHeaderText\">NoHIVDiag <b>DENEXFAIL </b></div><table class=\"hapiPropertyTable\"><tbody><tr><td>Identifier</td><td>8de0ab14b056fcd32f87b213d0f959e9c5ee73f04fd5302ce5e21711fa269223</td></tr><tr><td>Date of birth</td><td><span>31 July 1992</span></td></tr></tbody></table></div>"},"extension":[{"url":"http://hl7.org/fhir/us/core/StructureDefinition/us-core-race","extension":[{"url":"ombCategory","valueCoding":{"system":"urn:oid:2.16.840.1.113883.6.238","code":"2076-8","display":"Native Hawaiian or Other Pacific Islander","userSelected":true}},{"url":"text","valueString":"Native Hawaiian or Other Pacific Islander"}]},{"url":"http://hl7.org/fhir/us/core/StructureDefinition/us-core-ethnicity","extension":[{"url":"ombCategory","valueCoding":{"system":"urn:oid:2.16.840.1.113883.6.238","code":"2135-2","display":"Hispanic or Latino","userSelected":true}},{"url":"text","valueString":"Hispanic or Latino"}]}],"identifier":[{"type":{"coding":[{"system":"http://terminology.hl7.org/CodeSystem/v2-0203","code":"MR"}]},"system":"https://bonnie-fhir.healthit.gov/","value":"610965b898086b538055c14b"}],"active":true,"name":[{"use":"usual","family":"DENEXFail","given":["NoHIVDiag"]}],"gender":"male","birthDate":"1993-07-31"},"request":{"method":"PUT","url":"Patient/415a39a6-74db-4168-b704-291c71c8def9"}},{"fullUrl":"https://madie.cms.gov/Encounter/5c9e578cb8484602c2f92233","resource":{"resourceType":"Encounter","id":"d68f4149-f6a3-45e6-8dfa-533158ec259d","meta":{"profile":["http://hl7.org/fhir/us/qicore/StructureDefinition/qicore-encounter"]},"status":"finished","class":{"system":"http://terminology.hl7.org/CodeSystem/v3-ActCode","code":"AMB","display":"ambulatory","userSelected":true},"type":[{"coding":[{"system":"http://www.ama-assn.org/go/cpt","code":"99395"}]}],"subject":{"reference":"Patient/415a39a6-74db-4168-b704-291c71c8def9"},"period":{"start":"2025-10-24T08:00:00.000+00:00","end":"2025-10-24T08:15:00.000+00:00"}},"request":{"method":"PUT","url":"Encounter/d68f4149-f6a3-45e6-8dfa-533158ec259d"}},{"fullUrl":"https://madie.cms.gov/MeasureReport/9f85ed31-b166-45ba-83c2-9e16da362bb6","resource":{"resourceType":"MeasureReport","id":"9f85ed31-b166-45ba-83c2-9e16da362bb6","meta":{"profile":["http://hl7.org/fhir/us/cqfmeasures/StructureDefinition/test-case-cqfm"]},"contained":[{"resourceType":"Parameters","id":"80b1d072-dd3f-4e53-b708-98bb6c532108-parameters","parameter":[{"name":"subject","valueString":"415a39a6-74db-4168-b704-291c71c8def9"}]}],"extension":[{"url":"http://hl7.org/fhir/us/cqfmeasures/StructureDefinition/cqfm-inputParameters","valueReference":{"reference":"#80b1d072-dd3f-4e53-b708-98bb6c532108-parameters"}},{"url":"http://hl7.org/fhir/us/cqfmeasures/StructureDefinition/cqfm-testCaseDescription","valueMarkdown":"Patient 31 at start of MP, qualifying encounter during MP, no HIV diagnosis."}],"modifierExtension":[{"url":"http://hl7.org/fhir/us/cqfmeasures/StructureDefinition/cqfm-isTestCase","valueBoolean":true}],"status":"complete","type":"individual","measure":"https://madie.cms.gov/Measure/HIVScreeningFHIR","period":{"start":"2025-01-01","end":"2025-12-31"},"group":[{"population":[{"code":{"coding":[{"system":"http://terminology.hl7.org/CodeSystem/measure-population","code":"initial-population","display":"Initial Population"}]},"count":1},{"code":{"coding":[{"system":"http://terminology.hl7.org/CodeSystem/measure-population","code":"denominator","display":"Denominator"}]},"count":1},{"code":{"coding":[{"system":"http://terminology.hl7.org/CodeSystem/measure-population","code":"denominator-exclusion","display":"Denominator Exclusion"}]},"count":0},{"code":{"coding":[{"system":"http://terminology.hl7.org/CodeSystem/measure-population","code":"numerator","display":"Numerator"}]},"count":0}]}]},"request":{"method":"PUT","url":"MeasureReport/9f85ed31-b166-45ba-83c2-9e16da362bb6"}}]}