{"resourceType":"Bundle","id":"tests-b26beebe-30ab-4734-b1d1-958ff70e29ca-bundle","type":"transaction","entry":[{"fullUrl":"https://madie.cms.gov/Patient/b26beebe-30ab-4734-b1d1-958ff70e29ca","resource":{"resourceType":"Patient","id":"b26beebe-30ab-4734-b1d1-958ff70e29ca","meta":{"profile":["http://hl7.org/fhir/us/qicore/StructureDefinition/qicore-patient"]},"text":{"status":"generated","div":"<div xmlns=\"http://www.w3.org/1999/xhtml\"><div class=\"hapiHeaderText\">TwoInvalidEncs <b>IPPFAIL </b></div><table class=\"hapiPropertyTable\"><tbody><tr><td>Identifier</td><td>3f32d52744f86ba776a08958282d8c783d541b6e898e64a7e1df9ffd69c42a02</td></tr><tr><td>Date of birth</td><td><span>31 July 1992</span></td></tr></tbody></table></div>"},"extension":[{"url":"http://hl7.org/fhir/us/core/StructureDefinition/us-core-race","extension":[{"url":"ombCategory","valueCoding":{"system":"urn:oid:2.16.840.1.113883.6.238","code":"1002-5","display":"American Indian or Alaska Native","userSelected":true}},{"url":"text","valueString":"American Indian or Alaska Native"}]},{"url":"http://hl7.org/fhir/us/core/StructureDefinition/us-core-ethnicity","extension":[{"url":"ombCategory","valueCoding":{"system":"urn:oid:2.16.840.1.113883.6.238","code":"2135-2","display":"Hispanic or Latino","userSelected":true}},{"url":"text","valueString":"Hispanic or Latino"}]}],"identifier":[{"type":{"coding":[{"system":"http://terminology.hl7.org/CodeSystem/v2-0203","code":"MR"}]},"system":"https://bonnie-fhir.healthit.gov/","value":"610965b998086b538055c15a"}],"active":true,"name":[{"use":"usual","family":"IPPFail","given":["TwoInvalidEncs"]}],"gender":"female","birthDate":"1993-07-31"},"request":{"method":"PUT","url":"Patient/b26beebe-30ab-4734-b1d1-958ff70e29ca"}},{"fullUrl":"https://madie.cms.gov/Encounter/5e5976a59ec84a00005dc617","resource":{"resourceType":"Encounter","id":"12f90ee0-9f9a-4e7e-916b-0cbdd2143f01","meta":{"profile":["http://hl7.org/fhir/us/qicore/StructureDefinition/qicore-encounter"]},"status":"finished","class":{"system":"http://terminology.hl7.org/CodeSystem/v3-ActCode","code":"AMB","display":"ambulatory","userSelected":true},"type":[{"coding":[{"system":"http://www.ama-assn.org/go/cpt","code":"99201"}]}],"subject":{"reference":"Patient/b26beebe-30ab-4734-b1d1-958ff70e29ca"}},"request":{"method":"PUT","url":"Encounter/12f90ee0-9f9a-4e7e-916b-0cbdd2143f01"}},{"fullUrl":"https://madie.cms.gov/MeasureReport/1f617fcd-9724-476c-87f9-15ed8f20d0d0","resource":{"resourceType":"MeasureReport","id":"1f617fcd-9724-476c-87f9-15ed8f20d0d0","meta":{"profile":["http://hl7.org/fhir/us/cqfmeasures/StructureDefinition/test-case-cqfm"]},"contained":[{"resourceType":"Parameters","id":"b6267921-bbe1-437b-9fd2-0fe9e7c81cb3-parameters","parameter":[{"name":"subject","valueString":"b26beebe-30ab-4734-b1d1-958ff70e29ca"}]}],"extension":[{"url":"http://hl7.org/fhir/us/cqfmeasures/StructureDefinition/cqfm-inputParameters","valueReference":{"reference":"#b6267921-bbe1-437b-9fd2-0fe9e7c81cb3-parameters"}},{"url":"http://hl7.org/fhir/us/cqfmeasures/StructureDefinition/cqfm-testCaseDescription","valueMarkdown":"Patient qualifies by age, but encounters are not valid"}],"modifierExtension":[{"url":"http://hl7.org/fhir/us/cqfmeasures/StructureDefinition/cqfm-isTestCase","valueBoolean":true}],"status":"complete","type":"individual","measure":"https://madie.cms.gov/Measure/HIVScreeningFHIR","period":{"start":"2025-01-01","end":"2025-12-31"},"group":[{"population":[{"code":{"coding":[{"system":"http://terminology.hl7.org/CodeSystem/measure-population","code":"initial-population","display":"Initial Population"}]},"count":0},{"code":{"coding":[{"system":"http://terminology.hl7.org/CodeSystem/measure-population","code":"denominator","display":"Denominator"}]},"count":0},{"code":{"coding":[{"system":"http://terminology.hl7.org/CodeSystem/measure-population","code":"denominator-exclusion","display":"Denominator Exclusion"}]},"count":0},{"code":{"coding":[{"system":"http://terminology.hl7.org/CodeSystem/measure-population","code":"numerator","display":"Numerator"}]},"count":0}]}]},"request":{"method":"PUT","url":"MeasureReport/1f617fcd-9724-476c-87f9-15ed8f20d0d0"}}]}