{"resourceType":"Bundle","id":"tests-c6bfe103-89af-4701-85c8-d4431b24f53b-bundle","type":"transaction","entry":[{"fullUrl":"https://madie.cms.gov/Patient/c6bfe103-89af-4701-85c8-d4431b24f53b","resource":{"resourceType":"Patient","id":"c6bfe103-89af-4701-85c8-d4431b24f53b","meta":{"profile":["http://hl7.org/fhir/us/qicore/StructureDefinition/qicore-patient"]},"extension":[{"url":"http://hl7.org/fhir/us/core/StructureDefinition/us-core-race","extension":[{"url":"ombCategory","valueCoding":{"system":"urn:oid:2.16.840.1.113883.6.238","code":"2028-9","display":"Asian","userSelected":true}},{"url":"text","valueString":"Asian"}]},{"url":"http://hl7.org/fhir/us/core/StructureDefinition/us-core-ethnicity","extension":[{"url":"ombCategory","valueCoding":{"system":"urn:oid:2.16.840.1.113883.6.238","code":"2135-2","display":"Hispanic or Latino","userSelected":true}},{"url":"text","valueString":"Hispanic or Latino"}]}],"identifier":[{"type":{"coding":[{"system":"http://terminology.hl7.org/CodeSystem/v2-0203","code":"MR"}]},"system":"http://hospital.smarthealthit.org","value":"999999995"}],"name":[{"family":"Bertha","given":["Betty"]}],"gender":"female","birthDate":"2006-01-01"},"request":{"method":"PUT","url":"Patient/c6bfe103-89af-4701-85c8-d4431b24f53b"}},{"fullUrl":"https://madie.cms.gov/Procedure/Procedure-2","resource":{"resourceType":"Procedure","id":"5b13d3e0-d8ca-401d-964e-6a328d312fe8","meta":{"profile":["http://hl7.org/fhir/us/qicore/StructureDefinition/qicore-procedure"]},"extension":[{"url":"http://hl7.org/fhir/us/qicore/StructureDefinition/qicore-recorded","valueDateTime":"2024-10-31T00:00:00.000Z"}],"status":"completed","code":{"coding":[{"system":"http://www.cms.gov/Medicare/Coding/ICD10","code":"0SR9019","display":"Replacement of Right Hip Joint with Metal Synthetic Substitute, Cemented, Open Approach"}]},"subject":{"reference":"Patient/c6bfe103-89af-4701-85c8-d4431b24f53b"},"performedPeriod":{"start":"2024-10-31T00:00:00.000Z","end":"2024-10-31T01:00:00.000Z"}},"request":{"method":"PUT","url":"Procedure/5b13d3e0-d8ca-401d-964e-6a328d312fe8"}},{"fullUrl":"https://madie.cms.gov/Encounter/Encounter-2","resource":{"resourceType":"Encounter","id":"fc3267b6-f575-4472-a8de-8c16e851ecf5","meta":{"profile":["http://hl7.org/fhir/us/qicore/StructureDefinition/qicore-encounter"]},"status":"finished","class":{"system":"http://terminology.hl7.org/CodeSystem/v3-ActCode","code":"AMB","display":"ambulatory"},"type":[{"coding":[{"system":"http://www.ama-assn.org/go/cpt","code":"98972","display":"Qualified nonphysician health care professional online digital assessment and management, for an established patient, for up to 7 days, cumulative time during the 7 days; 21 or more minutes"}]}],"subject":{"reference":"Patient/c6bfe103-89af-4701-85c8-d4431b24f53b"},"period":{"start":"2025-12-31T00:00:00.000Z","end":"2025-12-31T01:15:00.000Z"}},"request":{"method":"PUT","url":"Encounter/fc3267b6-f575-4472-a8de-8c16e851ecf5"}},{"fullUrl":"https://madie.cms.gov/MeasureReport/050b8a76-11f4-493c-89ec-8050cfde60e9","resource":{"resourceType":"MeasureReport","id":"050b8a76-11f4-493c-89ec-8050cfde60e9","meta":{"profile":["http://hl7.org/fhir/us/cqfmeasures/StructureDefinition/test-case-cqfm"]},"contained":[{"resourceType":"Parameters","id":"dff1c897-a6f9-4d46-a208-89cb73015976-parameters","parameter":[{"name":"subject","valueString":"c6bfe103-89af-4701-85c8-d4431b24f53b"}]}],"extension":[{"url":"http://hl7.org/fhir/us/cqfmeasures/StructureDefinition/cqfm-inputParameters","valueReference":{"reference":"#dff1c897-a6f9-4d46-a208-89cb73015976-parameters"}},{"url":"http://hl7.org/fhir/us/cqfmeasures/StructureDefinition/cqfm-testCaseDescription","valueMarkdown":"Virtual encounter during MP - for meeting 100% coverage"}],"modifierExtension":[{"url":"http://hl7.org/fhir/us/cqfmeasures/StructureDefinition/cqfm-isTestCase","valueBoolean":true}],"status":"complete","type":"individual","measure":"https://madie.cms.gov/Measure/FunctionalStatusAssessmentforTotalHipReplacementFHIR","period":{"start":"2025-01-01","end":"2025-12-31"},"group":[{"population":[{"code":{"coding":[{"system":"http://terminology.hl7.org/CodeSystem/measure-population","code":"initial-population","display":"Initial Population"}]},"count":1},{"code":{"coding":[{"system":"http://terminology.hl7.org/CodeSystem/measure-population","code":"denominator","display":"Denominator"}]},"count":1},{"code":{"coding":[{"system":"http://terminology.hl7.org/CodeSystem/measure-population","code":"denominator-exclusion","display":"Denominator Exclusion"}]},"count":0},{"code":{"coding":[{"system":"http://terminology.hl7.org/CodeSystem/measure-population","code":"numerator","display":"Numerator"}]},"count":0}]}]},"request":{"method":"PUT","url":"MeasureReport/050b8a76-11f4-493c-89ec-8050cfde60e9"}}]}