{
  "resourceType": "Bundle",
  "id": "6109650598086b538055a114",
  "type": "transaction",
  "entry": [ {
    "fullUrl": "https://madie.cms.gov/Patient/1ea93f92-f4f1-44fe-8511-dd5d8bd86a8d",
    "resource": {
      "resourceType": "Patient",
      "id": "1ea93f92-f4f1-44fe-8511-dd5d8bd86a8d",
      "meta": {
        "profile": [ "http://hl7.org/fhir/us/qicore/StructureDefinition/qicore-patient" ]
      },
      "text": {
        "status": "generated",
        "div": "<div xmlns=\"http://www.w3.org/1999/xhtml\"><div class=\"hapiHeaderText\">RiskAssessMultOVEncrelevantPeriod <b>NUMERPASS </b></div><table class=\"hapiPropertyTable\"><tbody><tr><td>Identifier</td><td>4acdd1ab2ce8b6b5853988f06278aa61</td></tr><tr><td>Date of birth</td><td><span>25 April 2000</span></td></tr></tbody></table></div>"
      },
      "extension": [ {
        "url": "http://hl7.org/fhir/us/core/StructureDefinition/us-core-race",
        "extension": [ {
          "url": "ombCategory",
          "valueCoding": {
            "system": "urn:oid:2.16.840.1.113883.6.238",
            "code": "2054-5",
            "display": "Black or African American",
            "userSelected": true
          }
        }, {
          "url": "text",
          "valueString": "Black or African American"
        } ]
      }, {
        "url": "http://hl7.org/fhir/us/core/StructureDefinition/us-core-ethnicity",
        "extension": [ {
          "url": "ombCategory",
          "valueCoding": {
            "system": "urn:oid:2.16.840.1.113883.6.238",
            "code": "2186-5",
            "display": "Not Hispanic or Latino",
            "userSelected": true
          }
        }, {
          "url": "text",
          "valueString": "Not Hispanic or Latino"
        } ]
      } ],
      "identifier": [ {
        "type": {
          "coding": [ {
            "system": "http://terminology.hl7.org/CodeSystem/v2-0203",
            "code": "MR"
          } ]
        },
        "system": "https://bonnie-fhir.healthit.gov/",
        "value": "6109650598086b538055a114"
      } ],
      "active": true,
      "name": [ {
        "use": "usual",
        "family": "NUMPass",
        "given": [ "RiskAssmtMultEncrelevantPeriod" ]
      } ],
      "gender": "female",
      "birthDate": "2014-04-25"
    },
    "request": {
      "method": "POST",
      "url": "Patient/1ea93f92-f4f1-44fe-8511-dd5d8bd86a8d"
    }
  }, {
    "fullUrl": "https://madie.cms.gov/Encounter/5c98fd1ab848464ed33e9e8f",
    "resource": {
      "resourceType": "Encounter",
      "id": "5c98fd1ab848464ed33e9e8f",
      "meta": {
        "profile": [ "http://hl7.org/fhir/us/qicore/StructureDefinition/qicore-encounter" ]
      },
      "status": "finished",
      "class": {
        "system": "http://terminology.hl7.org/CodeSystem/v3-ActCode",
        "code": "AMB",
        "display": "ambulatory",
        "userSelected": true
      },
      "type": [ {
        "coding": [ {
          "system": "http://www.ama-assn.org/go/cpt",
          "code": "99213"
        } ]
      } ],
      "subject": {
        "reference": "Patient/1ea93f92-f4f1-44fe-8511-dd5d8bd86a8d"
      },
      "period": {
        "start": "2025-03-27T14:30:00.000+00:00",
        "end": "2025-03-27T15:00:00.000+00:00"
      },
      "length": {
        "value": 0.0,
        "unit": "days"
      },
      "reasonCode": [ {
        "coding": [ {
          "system": "http://hl7.org/fhir/sid/icd-10-cm",
          "code": "F32.0",
          "display": "Major depressive disorder, single episode, mild",
          "userSelected": true
        } ]
      } ],
      "diagnosis": [ {
        "condition": {
          "reference": "Condition/fd9ff61c-8c99-418a-b481-817308641f05"
        },
        "use": {
          "coding": [ {
            "system": "http://snomed.info/sct",
            "version": "2023-09",
            "code": "10811161000119107",
            "display": "Major depressive disorder in mother complicating pregnancy (disorder)",
            "userSelected": true
          } ]
        }
      } ]
    },
    "request": {
      "method": "POST",
      "url": "Encounter/5c98fd1ab848464ed33e9e8f"
    }
  }, {
    "fullUrl": "https://madie.cms.gov/Encounter/5c98fd1ab848464ed33e9e90",
    "resource": {
      "resourceType": "Encounter",
      "id": "5c98fd1ab848464ed33e9e90",
      "meta": {
        "profile": [ "http://hl7.org/fhir/us/qicore/StructureDefinition/qicore-encounter" ]
      },
      "status": "finished",
      "class": {
        "system": "http://terminology.hl7.org/CodeSystem/v3-ActCode",
        "code": "AMB",
        "display": "ambulatory",
        "userSelected": true
      },
      "type": [ {
        "coding": [ {
          "system": "http://www.ama-assn.org/go/cpt",
          "code": "99212"
        } ]
      } ],
      "subject": {
        "reference": "Patient/1ea93f92-f4f1-44fe-8511-dd5d8bd86a8d"
      },
      "period": {
        "start": "2025-05-15T11:30:00.000+00:00",
        "end": "2025-05-15T12:00:00.000+00:00"
      },
      "length": {
        "value": 0.0,
        "unit": "days"
      }
    },
    "request": {
      "method": "POST",
      "url": "Encounter/5c98fd1ab848464ed33e9e90"
    }
  }, {
    "fullUrl": "https://madie.cms.gov/Encounter/5c98fd1ab848464ed33e9e91",
    "resource": {
      "resourceType": "Encounter",
      "id": "5c98fd1ab848464ed33e9e91",
      "meta": {
        "profile": [ "http://hl7.org/fhir/us/qicore/StructureDefinition/qicore-encounter" ]
      },
      "status": "finished",
      "class": {
        "system": "http://terminology.hl7.org/CodeSystem/v3-ActCode",
        "code": "AMB",
        "display": "ambulatory",
        "userSelected": true
      },
      "type": [ {
        "coding": [ {
          "system": "http://www.ama-assn.org/go/cpt",
          "code": "99212"
        } ]
      } ],
      "subject": {
        "reference": "Patient/1ea93f92-f4f1-44fe-8511-dd5d8bd86a8d"
      },
      "period": {
        "start": "2025-07-12T11:30:00.000+00:00",
        "end": "2025-07-12T12:00:00.000+00:00"
      },
      "length": {
        "value": 0.0,
        "unit": "days"
      },
      "reasonCode": [ {
        "coding": [ {
          "system": "http://hl7.org/fhir/sid/icd-10-cm",
          "version": "2021",
          "code": "F32.2",
          "display": "Major depressive disorder, single episode, severe without psychotic features",
          "userSelected": true
        } ]
      } ],
      "diagnosis": [ {
        "condition": {
          "reference": "Condition/fd9ff61c-8c99-418a-b481-817308641f05"
        },
        "use": {
          "coding": [ {
            "system": "http://snomed.info/sct",
            "version": "2023-09",
            "code": "10811161000119107",
            "display": "Major depressive disorder in mother complicating pregnancy (disorder)",
            "userSelected": true
          } ]
        }
      } ]
    },
    "request": {
      "method": "POST",
      "url": "Encounter/5c98fd1ab848464ed33e9e91"
    }
  }, {
    "fullUrl": "https://madie.cms.gov/Encounter/5c98fd1ab848464ed33e9e92",
    "resource": {
      "resourceType": "Encounter",
      "id": "5c98fd1ab848464ed33e9e92",
      "meta": {
        "profile": [ "http://hl7.org/fhir/us/qicore/StructureDefinition/qicore-encounter" ]
      },
      "status": "finished",
      "class": {
        "system": "http://terminology.hl7.org/CodeSystem/v3-ActCode",
        "code": "AMB",
        "display": "ambulatory",
        "userSelected": true
      },
      "type": [ {
        "coding": [ {
          "system": "http://www.ama-assn.org/go/cpt",
          "code": "99212"
        } ]
      } ],
      "subject": {
        "reference": "Patient/1ea93f92-f4f1-44fe-8511-dd5d8bd86a8d"
      },
      "period": {
        "start": "2025-12-30T09:30:00.000+00:00",
        "end": "2025-12-30T10:00:00.000+00:00"
      },
      "length": {
        "value": 0.0,
        "unit": "days"
      }
    },
    "request": {
      "method": "POST",
      "url": "Encounter/5c98fd1ab848464ed33e9e92"
    }
  }, {
    "fullUrl": "https://madie.cms.gov/Procedure/5c98fd1ab848464ed33e9e93",
    "resource": {
      "resourceType": "Procedure",
      "id": "5c98fd1ab848464ed33e9e93",
      "meta": {
        "profile": [ "http://hl7.org/fhir/us/qicore/StructureDefinition/qicore-procedure" ]
      },
      "extension": [ {
        "url": "http://hl7.org/fhir/us/qicore/StructureDefinition/qicore-recorded",
        "valueDateTime": "2025-03-27T14:47:00.000+00:00"
      } ],
      "status": "completed",
      "code": {
        "coding": [ {
          "system": "http://snomed.info/sct",
          "code": "225337009"
        } ]
      },
      "subject": {
        "reference": "Patient/1ea93f92-f4f1-44fe-8511-dd5d8bd86a8d"
      },
      "performedPeriod": {
        "start": "2025-03-27T14:44:00.000+00:00",
        "end": "2025-03-27T14:47:00.000+00:00"
      }
    },
    "request": {
      "method": "POST",
      "url": "Procedure/5c98fd1ab848464ed33e9e93"
    }
  }, {
    "fullUrl": "https://madie.cms.gov/Procedure/5c98fd1ab848464ed33e9e94",
    "resource": {
      "resourceType": "Procedure",
      "id": "5c98fd1ab848464ed33e9e94",
      "meta": {
        "profile": [ "http://hl7.org/fhir/us/qicore/StructureDefinition/qicore-procedure" ]
      },
      "extension": [ {
        "url": "http://hl7.org/fhir/us/qicore/StructureDefinition/qicore-recorded",
        "valueDateTime": "2025-07-12T11:45:00.000+00:00"
      } ],
      "status": "completed",
      "code": {
        "coding": [ {
          "system": "http://snomed.info/sct",
          "code": "225337009"
        } ]
      },
      "subject": {
        "reference": "Patient/1ea93f92-f4f1-44fe-8511-dd5d8bd86a8d"
      },
      "performedPeriod": {
        "start": "2025-07-12T11:35:00.000+00:00",
        "end": "2025-07-12T11:45:00.000+00:00"
      }
    },
    "request": {
      "method": "POST",
      "url": "Procedure/5c98fd1ab848464ed33e9e94"
    }
  }, {
    "fullUrl": "https://madie.cms.gov/Condition/major-depressive-disorder-active-a49e",
    "resource": {
      "resourceType": "Condition",
      "id": "fd9ff61c-8c99-418a-b481-817308641f05",
      "meta": {
        "profile": [ "http://hl7.org/fhir/us/qicore/StructureDefinition/qicore-condition" ]
      },
      "category": [ {
        "coding": [ {
          "system": "http://terminology.hl7.org/CodeSystem/condition-category",
          "code": "encounter-diagnosis",
          "display": "encounter-diagnosis",
          "userSelected": true
        } ]
      } ],
      "code": {
        "coding": [ {
          "system": "http://snomed.info/sct",
          "version": "2023-09",
          "code": "10811121000119102",
          "display": "Major depressive disorder in mother complicating childbirth (disorder)",
          "userSelected": true
        } ]
      },
      "subject": {
        "reference": "Patient/1ea93f92-f4f1-44fe-8511-dd5d8bd86a8d"
      },
      "recordedDate": "2025-03-27T14:30:00.000+00:00"
    },
    "request": {
      "method": "POST",
      "url": "Condition/fd9ff61c-8c99-418a-b481-817308641f05"
    }
  }, {
    "fullUrl": "https://madie.cms.gov/Condition/major-depressive-disorder-active-a49f",
    "resource": {
      "resourceType": "Condition",
      "id": "major-depressive-disorder-active-a49f",
      "meta": {
        "profile": [ "http://hl7.org/fhir/us/qicore/StructureDefinition/qicore-condition" ]
      },
      "category": [ {
        "coding": [ {
          "system": "http://terminology.hl7.org/CodeSystem/condition-category",
          "code": "encounter-diagnosis",
          "display": "encounter-diagnosis",
          "userSelected": true
        } ]
      } ],
      "code": {
        "coding": [ {
          "system": "http://snomed.info/sct",
          "version": "2023-09",
          "code": "10811121000119102",
          "display": "Major depressive disorder in mother complicating childbirth (disorder)",
          "userSelected": true
        } ]
      },
      "subject": {
        "reference": "Patient/1ea93f92-f4f1-44fe-8511-dd5d8bd86a8d"
      },
      "recordedDate": "2025-07-12T11:30:00.000+00:00"
    },
    "request": {
      "method": "POST",
      "url": "Condition/major-depressive-disorder-active-a49f"
    }
  }, {
    "fullUrl": "https://madie.cms.gov/Coverage/payer-f7a8",
    "resource": {
      "resourceType": "Coverage",
      "id": "payer-f7a8",
      "meta": {
        "profile": [ "http://hl7.org/fhir/us/qicore/StructureDefinition/qicore-coverage" ]
      },
      "identifier": [ {
        "system": "http://benefitsinc.com/certificate",
        "value": "12345"
      } ],
      "status": "active",
      "type": {
        "coding": [ {
          "system": "https://nahdo.org/sopt",
          "version": "9.2",
          "code": "1",
          "display": "MEDICARE",
          "userSelected": true
        } ]
      },
      "beneficiary": {
        "reference": "Patient/1ea93f92-f4f1-44fe-8511-dd5d8bd86a8d"
      },
      "period": {
        "start": "2025-01-01T00:00:00.000+00:00",
        "end": "2025-12-31T23:59:00.000+00:00"
      },
      "payor": [ {
        "reference": "Organization/123456"
      } ]
    },
    "request": {
      "method": "POST",
      "url": "Coverage/payer-f7a8"
    }
  }, {
    "fullUrl": "https://madie.cms.gov/Organization/123456",
    "resource": {
      "resourceType": "Organization",
      "id": "123456",
      "meta": {
        "profile": [ "http://hl7.org/fhir/us/qicore/StructureDefinition/qicore-organization" ]
      },
      "identifier": [ {
        "use": "temp",
        "system": "urn:oid:2.16.840.1.113883.4.4",
        "value": "21-3259825"
      } ],
      "active": true,
      "type": [ {
        "coding": [ {
          "system": "http://terminology.hl7.org/CodeSystem/organization-type",
          "code": "pay",
          "display": "Payer"
        } ]
      } ],
      "name": "Blue Cross Blue Shield of Texas",
      "telecom": [ {
        "system": "phone",
        "value": "(+1) 972-766-6900"
      } ],
      "address": [ {
        "use": "billing",
        "type": "postal",
        "line": [ "P.O. Box 660044" ],
        "city": "Dallas",
        "state": "TX",
        "postalCode": "75266-0044",
        "country": "USA"
      } ]
    },
    "request": {
      "method": "POST",
      "url": "Organization/123456"
    }
  }, {
    "fullUrl": "https://madie.cms.gov/Practitioner/practitioner-123456",
    "resource": {
      "resourceType": "Practitioner",
      "id": "practitioner-123456",
      "meta": {
        "profile": [ "http://hl7.org/fhir/us/qicore/StructureDefinition/qicore-practitioner" ]
      },
      "identifier": [ {
        "system": "http://hl7.org/fhir/sid/us-npi",
        "value": "123456"
      } ],
      "name": [ {
        "family": "Evil",
        "prefix": [ "Dr" ]
      } ]
    },
    "request": {
      "method": "POST",
      "url": "Practitioner/practitioner-123456"
    }
  }, {
    "fullUrl": "https://madie.cms.gov/MeasureReport/64b49eb9-0a14-4740-9883-8a49ed8d0eef",
    "resource": {
      "resourceType": "MeasureReport",
      "id": "64b49eb9-0a14-4740-9883-8a49ed8d0eef",
      "meta": {
        "profile": [ "http://hl7.org/fhir/us/cqfmeasures/StructureDefinition/test-case-cqfm" ]
      },
      "contained": [ {
        "resourceType": "Parameters",
        "id": "c6ef3d5e-08ed-4f6f-9613-7aab8a883994-parameters",
        "parameter": [ {
          "name": "subject",
          "valueString": "1ea93f92-f4f1-44fe-8511-dd5d8bd86a8d"
        } ]
      } ],
      "extension": [ {
        "url": "http://hl7.org/fhir/us/cqfmeasures/StructureDefinition/cqfm-inputParameters",
        "valueReference": {
          "reference": "#c6ef3d5e-08ed-4f6f-9613-7aab8a883994-parameters"
        }
      }, {
        "url": "http://hl7.org/fhir/us/cqfmeasures/StructureDefinition/cqfm-testCaseDescription",
        "valueMarkdown": "Patient with depression and suicide risk assessment during multiple office visit encounter using relevantPeriod"
      } ],
      "modifierExtension": [ {
        "url": "http://hl7.org/fhir/us/cqfmeasures/StructureDefinition/cqfm-isTestCase",
        "valueBoolean": true
      } ],
      "status": "complete",
      "type": "individual",
      "measure": "https://madie.cms.gov/Measure/ChildandAdolescentMajorDepressiveDisorderMDDSuicideRiskAssessmentFHIR",
      "period": {
        "start": "2025-01-01",
        "end": "2025-12-31"
      },
      "group": [ {
        "population": [ {
          "code": {
            "coding": [ {
              "system": "http://terminology.hl7.org/CodeSystem/measure-population",
              "code": "initial-population",
              "display": "Initial Population"
            } ]
          },
          "count": 2
        }, {
          "code": {
            "coding": [ {
              "system": "http://terminology.hl7.org/CodeSystem/measure-population",
              "code": "denominator",
              "display": "Denominator"
            } ]
          },
          "count": 2
        }, {
          "code": {
            "coding": [ {
              "system": "http://terminology.hl7.org/CodeSystem/measure-population",
              "code": "numerator",
              "display": "Numerator"
            } ]
          },
          "count": 2
        } ]
      } ],
      "evaluatedResource": [ {
        "reference": "Patient/1ea93f92-f4f1-44fe-8511-dd5d8bd86a8d"
      }, {
        "reference": "Encounter/5c98fd1ab848464ed33e9e8f"
      }, {
        "reference": "Encounter/5c98fd1ab848464ed33e9e90"
      }, {
        "reference": "Encounter/5c98fd1ab848464ed33e9e91"
      }, {
        "reference": "Encounter/5c98fd1ab848464ed33e9e92"
      }, {
        "reference": "Procedure/5c98fd1ab848464ed33e9e93"
      }, {
        "reference": "Procedure/5c98fd1ab848464ed33e9e94"
      }, {
        "reference": "Condition/major-depressive-disorder-active-a49e"
      }, {
        "reference": "Condition/major-depressive-disorder-active-a49f"
      }, {
        "reference": "Coverage/payer-f7a8"
      }, {
        "reference": "Organization/123456"
      }, {
        "reference": "Practitioner/practitioner-123456"
      } ]
    },
    "request": {
      "method": "POST",
      "url": "MeasureReport/64b49eb9-0a14-4740-9883-8a49ed8d0eef"
    }
  } ]
}