{"resourceType":"Bundle","id":"tests-3313947e-6d6c-4900-9518-83b337bb3b06-bundle","type":"transaction","entry":[{"fullUrl":"https://madie.cms.gov/Patient/3313947e-6d6c-4900-9518-83b337bb3b06","resource":{"resourceType":"Patient","id":"3313947e-6d6c-4900-9518-83b337bb3b06","meta":{"profile":["http://hl7.org/fhir/us/qicore/StructureDefinition/qicore-patient"]},"text":{"status":"generated","div":"<div xmlns=\"http://www.w3.org/1999/xhtml\"><div class=\"hapiHeaderText\">NoResult <b>SODIUMFAIL </b></div><table class=\"hapiPropertyTable\"><tbody><tr><td>Identifier</td><td>eb360e3679224871964d5b3575a59ceb3c2f6260372fb1be3ea61ac84d2937cf</td></tr><tr><td>Date of birth</td><td><span>15 June 1956</span></td></tr></tbody></table></div>"},"extension":[{"url":"http://hl7.org/fhir/us/core/StructureDefinition/us-core-race","extension":[{"url":"ombCategory","valueCoding":{"system":"urn:oid:2.16.840.1.113883.6.238","code":"1002-5","display":"American Indian or Alaska Native","userSelected":true}},{"url":"text","valueString":"American Indian or Alaska Native"}]},{"url":"http://hl7.org/fhir/us/core/StructureDefinition/us-core-ethnicity","extension":[{"url":"ombCategory","valueCoding":{"system":"urn:oid:2.16.840.1.113883.6.238","code":"2186-5","display":"Not Hispanic or Latino","userSelected":true}},{"url":"text","valueString":"Not Hispanic or Latino"}]}],"identifier":[{"type":{"coding":[{"system":"http://terminology.hl7.org/CodeSystem/v2-0203","code":"MR"}]},"system":"https://bonnie-fhir.healthit.gov/","value":"63ec096bccb3770120fea0ad"}],"active":true,"name":[{"use":"usual","family":"24Hrs1MinuteBeforeEncounter","given":["OxygenSatFail"]}],"gender":"male","birthDate":"1940-07-01"},"request":{"method":"PUT","url":"Patient/3313947e-6d6c-4900-9518-83b337bb3b06"}},{"fullUrl":"https://madie.cms.gov/Encounter/5f996a69b977ef0000c0305a","resource":{"resourceType":"Encounter","id":"c9bb2900-ed2d-43d1-a3ab-8a17ecfa3e71","meta":{"profile":["http://hl7.org/fhir/us/qicore/StructureDefinition/qicore-encounter"]},"status":"finished","class":{"system":"http://terminology.hl7.org/CodeSystem/v3-ActCode","code":"IMP","display":"inpatient encounter","userSelected":true},"type":[{"coding":[{"system":"http://snomed.info/sct","code":"183452005"}]}],"subject":{"reference":"Patient/3313947e-6d6c-4900-9518-83b337bb3b06"},"period":{"start":"2025-07-01T12:01:00.000+00:00","end":"2025-07-04T08:15:00.000+00:00"}},"request":{"method":"PUT","url":"Encounter/c9bb2900-ed2d-43d1-a3ab-8a17ecfa3e71"}},{"fullUrl":"https://madie.cms.gov/Encounter/5f996a69b977ef0000c0305a1","resource":{"resourceType":"Encounter","id":"258056e7-144e-415e-b60d-e76afc53b018","meta":{"profile":["http://hl7.org/fhir/us/qicore/StructureDefinition/qicore-encounter"]},"status":"finished","class":{"system":"http://terminology.hl7.org/CodeSystem/v3-ActCode","code":"IMP","display":"inpatient encounter","userSelected":true},"type":[{"coding":[{"system":"http://snomed.info/sct","code":"183452005","display":"Emergency hospital admission (procedure)"}]}],"subject":{"reference":"Patient/3313947e-6d6c-4900-9518-83b337bb3b06"},"period":{"start":"2025-12-31T12:01:00.000+00:00","end":"2026-01-03T10:00:00.000+00:00"}},"request":{"method":"PUT","url":"Encounter/258056e7-144e-415e-b60d-e76afc53b018"}},{"fullUrl":"https://madie.cms.gov/Encounter/5f996a69b977ef0000c0305a2","resource":{"resourceType":"Encounter","id":"481f440a-c3f0-45f0-858f-7bb9a5ca0bed","meta":{"profile":["http://hl7.org/fhir/us/qicore/StructureDefinition/qicore-encounter"]},"status":"finished","class":{"system":"http://terminology.hl7.org/CodeSystem/v3-ActCode","code":"IMP","display":"inpatient encounter","userSelected":true},"type":[{"coding":[{"system":"http://snomed.info/sct","code":"32485007","display":"Hospital admission (procedure)"}]}],"subject":{"reference":"Patient/3313947e-6d6c-4900-9518-83b337bb3b06"},"period":{"start":"2026-01-04T08:00:00.000+00:00","end":"2026-01-08T08:15:00.000+00:00"}},"request":{"method":"PUT","url":"Encounter/481f440a-c3f0-45f0-858f-7bb9a5ca0bed"}},{"fullUrl":"https://madie.cms.gov/Observation/5b55f69ab84846558c53bb54","resource":{"resourceType":"Observation","id":"23dcb5a2-9667-48d2-bbca-ed2b057cd21c","meta":{"profile":["http://hl7.org/fhir/us/qicore/StructureDefinition/qicore-observation"]},"status":"final","category":[{"coding":[{"system":"http://terminology.hl7.org/CodeSystem/observation-category","code":"vital-signs","display":"Vital Signs","userSelected":true}]}],"code":{"coding":[{"system":"http://loinc.org","code":"59408-5","display":"Oxygen saturation in Arterial blood by Pulse oximetry"}]},"subject":{"reference":"Patient/3313947e-6d6c-4900-9518-83b337bb3b06"},"effectiveDateTime":"2025-06-30T11:59:00.000+00:00","valueQuantity":{"value":98,"unit":"%","system":"http://unitsofmeasure.org","code":"%"}},"request":{"method":"PUT","url":"Observation/23dcb5a2-9667-48d2-bbca-ed2b057cd21c"}},{"fullUrl":"https://madie.cms.gov/Coverage/5f99693eb977ef0000c02d5c","resource":{"resourceType":"Coverage","id":"86a118dd-2577-4095-8374-2d9c9d2da519","meta":{"profile":["http://hl7.org/fhir/us/qicore/StructureDefinition/qicore-coverage"]},"status":"active","type":{"coding":[{"system":"https://nahdo.org/sopt","version":"1.0.1","code":"1","display":"Medicare payer","userSelected":true}]},"beneficiary":{"reference":"Patient/3313947e-6d6c-4900-9518-83b337bb3b06"},"payor":[{"reference":"Organization/4b5a882f-1f43-485c-85c6-f5ad2337d5b1"}]},"request":{"method":"PUT","url":"Coverage/86a118dd-2577-4095-8374-2d9c9d2da519"}},{"fullUrl":"https://madie.cms.gov/Practitioner/practitioner-123456","resource":{"resourceType":"Practitioner","id":"62727483-edfa-416c-a6fb-dcd1bdae8663","meta":{"profile":["http://hl7.org/fhir/us/qicore/StructureDefinition/qicore-practitioner"]},"identifier":[{"system":"http://hl7.org/fhir/sid/us-npi","value":"123456"}],"name":[{"family":"Evil","prefix":["Dr"]}]},"request":{"method":"PUT","url":"Practitioner/62727483-edfa-416c-a6fb-dcd1bdae8663"}},{"fullUrl":"https://madie.cms.gov/MeasureReport/b67f785d-ba5a-4987-bf8a-604e40b22066","resource":{"resourceType":"MeasureReport","id":"b67f785d-ba5a-4987-bf8a-604e40b22066","meta":{"profile":["http://hl7.org/fhir/us/cqfmeasures/StructureDefinition/test-case-cqfm"]},"contained":[{"resourceType":"Parameters","id":"c7760b79-b5a8-4614-98e2-93809908ed32-parameters","parameter":[{"name":"subject","valueString":"3313947e-6d6c-4900-9518-83b337bb3b06"}]}],"extension":[{"url":"http://hl7.org/fhir/us/cqfmeasures/StructureDefinition/cqfm-inputParameters","valueReference":{"reference":"#c7760b79-b5a8-4614-98e2-93809908ed32-parameters"}},{"url":"http://hl7.org/fhir/us/cqfmeasures/StructureDefinition/cqfm-testCaseDescription","valueMarkdown":"Multiple encs, enc 7/1 O2 sats evaluated"}],"modifierExtension":[{"url":"http://hl7.org/fhir/us/cqfmeasures/StructureDefinition/cqfm-isTestCase","valueBoolean":true}],"status":"complete","type":"individual","measure":"https://madie.cms.gov/Measure/HybridHospitalWideReadmissionFHIR","period":{"start":"2025-07-01","end":"2026-06-30"},"group":[{"population":[{"code":{"coding":[{"system":"http://terminology.hl7.org/CodeSystem/measure-population","code":"initial-population","display":"Initial Population"}]},"count":3}]}]},"request":{"method":"PUT","url":"MeasureReport/b67f785d-ba5a-4987-bf8a-604e40b22066"}}]}