{"resourceType":"Bundle","id":"tests-73b803bf-207c-411d-8db3-01908e5d9dda-bundle","type":"transaction","entry":[{"fullUrl":"https://madie.cms.gov/Patient/73b803bf-207c-411d-8db3-01908e5d9dda","resource":{"resourceType":"Patient","id":"73b803bf-207c-411d-8db3-01908e5d9dda","meta":{"profile":["http://hl7.org/fhir/us/qicore/StructureDefinition/qicore-patient"]},"text":{"status":"generated","div":"<div xmlns=\"http://www.w3.org/1999/xhtml\"><div class=\"hapiHeaderText\">LT24beforeAndLT2after <b>WBCPASS </b></div><table class=\"hapiPropertyTable\"><tbody><tr><td>Identifier</td><td>02a3c13b70ccf5a73b893e80582952bdd83e9cabbf053902bb5eb341874dc5ec</td></tr><tr><td>Date of birth</td><td><span>15 June 1956</span></td></tr></tbody></table></div>"},"extension":[{"url":"http://hl7.org/fhir/us/core/StructureDefinition/us-core-race","extension":[{"url":"ombCategory","valueCoding":{"system":"urn:oid:2.16.840.1.113883.6.238","code":"1002-5","display":"American Indian or Alaska Native","userSelected":true}},{"url":"text","valueString":"American Indian or Alaska Native"}]},{"url":"http://hl7.org/fhir/us/core/StructureDefinition/us-core-ethnicity","extension":[{"url":"ombCategory","valueCoding":{"system":"urn:oid:2.16.840.1.113883.6.238","code":"2186-5","display":"Not Hispanic or Latino","userSelected":true}},{"url":"text","valueString":"Not Hispanic or Latino"}]}],"identifier":[{"type":{"coding":[{"system":"http://terminology.hl7.org/CodeSystem/v2-0203","code":"MR"}]},"system":"https://bonnie-fhir.healthit.gov/","value":"63ec096accb3770120fe9fa2"}],"active":true,"name":[{"use":"usual","family":"WhiteBloodCellPass","given":["OneHourAfterAdmission"]}],"gender":"male","birthDate":"1959-07-01"},"request":{"method":"PUT","url":"Patient/73b803bf-207c-411d-8db3-01908e5d9dda"}},{"fullUrl":"https://madie.cms.gov/Encounter/5e0653429350f90000fe2873","resource":{"resourceType":"Encounter","id":"f30900ad-a9d8-4057-a94e-b443125d0081","meta":{"profile":["http://hl7.org/fhir/us/qicore/StructureDefinition/qicore-encounter"]},"status":"finished","class":{"system":"http://terminology.hl7.org/CodeSystem/v3-ActCode","code":"IMP","display":"inpatient encounter","userSelected":true},"type":[{"coding":[{"system":"http://snomed.info/sct","code":"183452005"}]}],"subject":{"reference":"Patient/73b803bf-207c-411d-8db3-01908e5d9dda"},"period":{"start":"2025-07-01T08:00:00.000+00:00","end":"2025-07-03T23:59:00.000+00:00"},"length":{"value":1,"unit":"days"}},"request":{"method":"PUT","url":"Encounter/f30900ad-a9d8-4057-a94e-b443125d0081"}},{"fullUrl":"https://madie.cms.gov/Coverage/5f996a1cb977ef0000c02f8a","resource":{"resourceType":"Coverage","id":"d08b1a27-bda8-420c-8f52-222170607997","meta":{"profile":["http://hl7.org/fhir/us/qicore/StructureDefinition/qicore-coverage"]},"status":"active","type":{"coding":[{"system":"https://nahdo.org/sopt","version":"1.0.1","code":"1","display":"Medicare payer","userSelected":true}]},"beneficiary":{"reference":"Patient/73b803bf-207c-411d-8db3-01908e5d9dda"},"payor":[{"reference":"Organization/4b5a882f-1f43-485c-85c6-f5ad2337d5b1"}]},"request":{"method":"PUT","url":"Coverage/d08b1a27-bda8-420c-8f52-222170607997"}},{"fullUrl":"https://madie.cms.gov/Observation/5b55f69ab84846558c53bb71","resource":{"resourceType":"Observation","id":"4f7e2623-18c0-4b7d-a1c0-8573d95a5d2e","meta":{"profile":["http://hl7.org/fhir/us/core/StructureDefinition/us-core-observation-lab"]},"status":"amended","category":[{"coding":[{"system":"http://terminology.hl7.org/CodeSystem/observation-category","code":"laboratory","display":"laboratory","userSelected":true}]}],"code":{"coding":[{"system":"http://loinc.org","code":"26464-8","display":"Leukocytes [#/volume] in Blood"}]},"subject":{"reference":"Patient/73b803bf-207c-411d-8db3-01908e5d9dda"},"issued":"2025-07-01T09:00:00.000+00:00","valueQuantity":{"value":4500,"unit":"uL","system":"http://unitsofmeasure.org","code":"uL"}},"request":{"method":"PUT","url":"Observation/4f7e2623-18c0-4b7d-a1c0-8573d95a5d2e"}},{"fullUrl":"https://madie.cms.gov/Observation/5b55f69ab84846558c53bb73","resource":{"resourceType":"Observation","id":"d787264b-d1c3-4034-b7dd-d1f0a95a0f60","meta":{"profile":["http://hl7.org/fhir/us/core/StructureDefinition/us-core-observation-lab"]},"status":"final","category":[{"coding":[{"system":"http://terminology.hl7.org/CodeSystem/observation-category","code":"laboratory","display":"laboratory","userSelected":true}]}],"code":{"coding":[{"system":"http://loinc.org","code":"26464-8","display":"Leukocytes [#/volume] in Blood"}]},"subject":{"reference":"Patient/73b803bf-207c-411d-8db3-01908e5d9dda"},"issued":"2025-07-02T08:00:00.000+00:00","valueQuantity":{"value":5000,"unit":"uL","system":"http://unitsofmeasure.org","code":"uL"}},"request":{"method":"PUT","url":"Observation/d787264b-d1c3-4034-b7dd-d1f0a95a0f60"}},{"fullUrl":"https://madie.cms.gov/Organization/123456","resource":{"resourceType":"Organization","id":"4b5a882f-1f43-485c-85c6-f5ad2337d5b1","meta":{"profile":["http://hl7.org/fhir/us/qicore/StructureDefinition/qicore-organization"]},"identifier":[{"use":"temp","system":"urn:oid:2.16.840.1.113883.4.4","value":"21-3259825"}],"active":true,"type":[{"coding":[{"system":"http://terminology.hl7.org/CodeSystem/organization-type","code":"pay","display":"Payer"}]}],"name":"Blue Cross Blue Shield of Texas","telecom":[{"system":"phone","value":"(+1) 972-766-6900"}],"address":[{"use":"billing","type":"postal","line":["P.O. Box 660044"],"city":"Dallas","state":"TX","postalCode":"75266-0044","country":"USA"}]},"request":{"method":"PUT","url":"Organization/4b5a882f-1f43-485c-85c6-f5ad2337d5b1"}},{"fullUrl":"https://madie.cms.gov/Practitioner/practitioner-123456","resource":{"resourceType":"Practitioner","id":"38f1f29e-b51f-4b13-b7e5-b596617b5982","meta":{"profile":["http://hl7.org/fhir/us/qicore/StructureDefinition/qicore-practitioner"]},"identifier":[{"system":"http://hl7.org/fhir/sid/us-npi","value":"123456"}],"name":[{"family":"Evil","prefix":["Dr"]}]},"request":{"method":"PUT","url":"Practitioner/38f1f29e-b51f-4b13-b7e5-b596617b5982"}},{"fullUrl":"https://madie.cms.gov/MeasureReport/6b3e1516-e5b1-43a5-bbec-b865fadfb2c7","resource":{"resourceType":"MeasureReport","id":"6b3e1516-e5b1-43a5-bbec-b865fadfb2c7","meta":{"profile":["http://hl7.org/fhir/us/cqfmeasures/StructureDefinition/test-case-cqfm"]},"contained":[{"resourceType":"Parameters","id":"f662d37b-6401-4fb2-935f-4afe32789a93-parameters","parameter":[{"name":"subject","valueString":"73b803bf-207c-411d-8db3-01908e5d9dda"}]}],"extension":[{"url":"http://hl7.org/fhir/us/cqfmeasures/StructureDefinition/cqfm-inputParameters","valueReference":{"reference":"#f662d37b-6401-4fb2-935f-4afe32789a93-parameters"}},{"url":"http://hl7.org/fhir/us/cqfmeasures/StructureDefinition/cqfm-testCaseDescription","valueMarkdown":"Enc first day of MP (7/1) WBC were evaluated 1 hr and 24 hours after admission  "}],"modifierExtension":[{"url":"http://hl7.org/fhir/us/cqfmeasures/StructureDefinition/cqfm-isTestCase","valueBoolean":true}],"status":"complete","type":"individual","measure":"https://madie.cms.gov/Measure/HybridHospitalWideReadmissionFHIR","period":{"start":"2025-07-01","end":"2026-06-30"},"group":[{"population":[{"code":{"coding":[{"system":"http://terminology.hl7.org/CodeSystem/measure-population","code":"initial-population","display":"Initial Population"}]},"count":1}]}]},"request":{"method":"PUT","url":"MeasureReport/6b3e1516-e5b1-43a5-bbec-b865fadfb2c7"}}]}