{"resourceType":"Bundle","id":"tests-35bfcfd8-c661-4b4b-8a57-6df87f97da37-bundle","type":"transaction","entry":[{"fullUrl":"https://madie.cms.gov/Patient/35bfcfd8-c661-4b4b-8a57-6df87f97da37","resource":{"resourceType":"Patient","id":"35bfcfd8-c661-4b4b-8a57-6df87f97da37","meta":{"profile":["http://hl7.org/fhir/us/qicore/StructureDefinition/qicore-patient"]},"text":{"status":"generated","div":"<div xmlns=\"http://www.w3.org/1999/xhtml\"><div class=\"hapiHeaderText\">PlateletRRHR <b>COMBO1 </b></div><table class=\"hapiPropertyTable\"><tbody><tr><td>Identifier</td><td>3fdea26b1d172050afffe1c0ff7bd899faa0bd0df7d367f433ae26111f27549c</td></tr><tr><td>Date of birth</td><td><span>15 June 1956</span></td></tr></tbody></table></div>"},"extension":[{"url":"http://hl7.org/fhir/us/core/StructureDefinition/us-core-race","extension":[{"url":"ombCategory","valueCoding":{"system":"urn:oid:2.16.840.1.113883.6.238","code":"1002-5","display":"American Indian or Alaska Native","userSelected":true}},{"url":"text","valueString":"American Indian or Alaska Native"}]},{"url":"http://hl7.org/fhir/us/core/StructureDefinition/us-core-ethnicity","extension":[{"url":"ombCategory","valueCoding":{"system":"urn:oid:2.16.840.1.113883.6.238","code":"2186-5","display":"Not Hispanic or Latino","userSelected":true}},{"url":"text","valueString":"Not Hispanic or Latino"}]}],"identifier":[{"type":{"coding":[{"system":"http://terminology.hl7.org/CodeSystem/v2-0203","code":"MR"}]},"system":"https://bonnie-fhir.healthit.gov/","value":"63ec0965ccb3770120fe9ab4"}],"active":true,"name":[{"use":"usual","family":"PlateletsHeartRateSystolicBPPass","given":["OneMinuteAfterAdmission"]}],"gender":"male","birthDate":"1956-06-15"},"request":{"method":"PUT","url":"Patient/35bfcfd8-c661-4b4b-8a57-6df87f97da37"}},{"fullUrl":"https://madie.cms.gov/Encounter/5e06503a9350f90000fe25a8","resource":{"resourceType":"Encounter","id":"0cee6e44-afd3-4c09-ae5a-2089c4a1a6af","meta":{"profile":["http://hl7.org/fhir/us/qicore/StructureDefinition/qicore-encounter"]},"status":"finished","class":{"system":"http://terminology.hl7.org/CodeSystem/v3-ActCode","code":"NONAC","display":"nonacute encounter","userSelected":true},"type":[{"coding":[{"system":"http://snomed.info/sct","code":"183452005","display":"Emergency hospital admission (procedure)"}]}],"subject":{"reference":"Patient/35bfcfd8-c661-4b4b-8a57-6df87f97da37"},"period":{"start":"2025-07-01T08:00:00.000+00:00","end":"2025-07-03T08:15:00.000+00:00"},"length":{"value":3,"unit":"days"}},"request":{"method":"PUT","url":"Encounter/0cee6e44-afd3-4c09-ae5a-2089c4a1a6af"}},{"fullUrl":"https://madie.cms.gov/Coverage/5f996975b977ef0000c02e1a","resource":{"resourceType":"Coverage","id":"5c7a0ba5-8c4c-48a1-ab25-17db471ad0cd","meta":{"profile":["http://hl7.org/fhir/us/qicore/StructureDefinition/qicore-coverage"]},"status":"active","type":{"coding":[{"system":"https://nahdo.org/sopt","version":"1.0.1","code":"1","display":"Medicare payer","userSelected":true}]},"beneficiary":{"reference":"Patient/35bfcfd8-c661-4b4b-8a57-6df87f97da37"},"payor":[{"reference":"Organization/4b5a882f-1f43-485c-85c6-f5ad2337d5b1"}]},"request":{"method":"PUT","url":"Coverage/5c7a0ba5-8c4c-48a1-ab25-17db471ad0cd"}},{"fullUrl":"https://madie.cms.gov/Observation/5fd115cd7750e50000950b46","resource":{"resourceType":"Observation","id":"66f96908-6010-42f2-9407-1c41be9fb556","meta":{"profile":["http://hl7.org/fhir/StructureDefinition/heartrate"]},"status":"amended","category":[{"coding":[{"system":"http://terminology.hl7.org/CodeSystem/observation-category","code":"vital-signs","display":"Vital Signs","userSelected":true}]}],"code":{"coding":[{"system":"http://loinc.org","code":"8867-4","display":"Heart rate"}]},"subject":{"reference":"Patient/35bfcfd8-c661-4b4b-8a57-6df87f97da37"},"effectiveDateTime":"2025-07-01T08:01:00.000+00:00","issued":"2025-07-01T08:01:00.000+00:00","valueQuantity":{"value":100,"unit":"/min","system":"http://unitsofmeasure.org","code":"/min"}},"request":{"method":"PUT","url":"Observation/66f96908-6010-42f2-9407-1c41be9fb556"}},{"fullUrl":"https://madie.cms.gov/Observation/5fd116437750e50000950ba8","resource":{"resourceType":"Observation","id":"9d806c54-aa3f-4aca-aeaa-03b3838ebb23","meta":{"profile":["http://hl7.org/fhir/StructureDefinition/bp"]},"status":"final","category":[{"coding":[{"system":"http://terminology.hl7.org/CodeSystem/observation-category","code":"vital-signs","display":"Vital Signs"}],"text":"Vital Signs"}],"code":{"coding":[{"system":"http://loinc.org","code":"85354-9","display":"Blood pressure panel"}]},"subject":{"reference":"Patient/35bfcfd8-c661-4b4b-8a57-6df87f97da37"},"effectiveDateTime":"2025-07-01T08:01:00.000+00:00","component":[{"code":{"coding":[{"system":"http://loinc.org","code":"8480-6","display":"Systolic blood pressure"}]},"valueQuantity":{"value":131,"unit":"mmHg","system":"http://unitsofmeasure.org","code":"mm[Hg]"}},{"code":{"coding":[{"system":"http://loinc.org","code":"8462-4","display":"Diastolic blood pressure"}]},"valueQuantity":{"value":80,"unit":"mmHg","system":"http://unitsofmeasure.org","code":"mm[Hg]"}}]},"request":{"method":"PUT","url":"Observation/9d806c54-aa3f-4aca-aeaa-03b3838ebb23"}},{"fullUrl":"https://madie.cms.gov/Organization/123456","resource":{"resourceType":"Organization","id":"4b5a882f-1f43-485c-85c6-f5ad2337d5b1","meta":{"profile":["http://hl7.org/fhir/us/qicore/StructureDefinition/qicore-organization"]},"identifier":[{"use":"temp","system":"urn:oid:2.16.840.1.113883.4.4","value":"21-3259825"}],"active":true,"type":[{"coding":[{"system":"http://terminology.hl7.org/CodeSystem/organization-type","code":"pay","display":"Payer"}]}],"name":"Blue Cross Blue Shield of Texas","telecom":[{"system":"phone","value":"(+1) 972-766-6900"}],"address":[{"use":"billing","type":"postal","line":["P.O. Box 660044"],"city":"Dallas","state":"TX","postalCode":"75266-0044","country":"USA"}]},"request":{"method":"PUT","url":"Organization/4b5a882f-1f43-485c-85c6-f5ad2337d5b1"}},{"fullUrl":"https://madie.cms.gov/Practitioner/practitioner-123456","resource":{"resourceType":"Practitioner","id":"2935d45d-3e84-4122-b65a-8c2b30295a80","meta":{"profile":["http://hl7.org/fhir/us/qicore/StructureDefinition/qicore-practitioner"]},"identifier":[{"system":"http://hl7.org/fhir/sid/us-npi","value":"123456"}],"name":[{"family":"Evil","prefix":["Dr"]}]},"request":{"method":"PUT","url":"Practitioner/2935d45d-3e84-4122-b65a-8c2b30295a80"}},{"fullUrl":"https://madie.cms.gov/MeasureReport/0c5d7ca7-70aa-4db5-a317-1da4f0db25c0","resource":{"resourceType":"MeasureReport","id":"0c5d7ca7-70aa-4db5-a317-1da4f0db25c0","meta":{"profile":["http://hl7.org/fhir/us/cqfmeasures/StructureDefinition/test-case-cqfm"]},"contained":[{"resourceType":"Parameters","id":"1b1ba48a-eec4-42b2-a3b2-407e378c8a4c-parameters","parameter":[{"name":"subject","valueString":"35bfcfd8-c661-4b4b-8a57-6df87f97da37"}]}],"extension":[{"url":"http://hl7.org/fhir/us/cqfmeasures/StructureDefinition/cqfm-inputParameters","valueReference":{"reference":"#1b1ba48a-eec4-42b2-a3b2-407e378c8a4c-parameters"}},{"url":"http://hl7.org/fhir/us/cqfmeasures/StructureDefinition/cqfm-testCaseDescription","valueMarkdown":"Enc first day of MP (7/1), lab and exams occurred 1 minute after admission, platelet value does not interfere with HR and SBP pass."}],"modifierExtension":[{"url":"http://hl7.org/fhir/us/cqfmeasures/StructureDefinition/cqfm-isTestCase","valueBoolean":true}],"status":"complete","type":"individual","measure":"https://madie.cms.gov/Measure/HybridHospitalWideReadmissionFHIR","period":{"start":"2025-07-01","end":"2026-06-30"},"group":[{"population":[{"code":{"coding":[{"system":"http://terminology.hl7.org/CodeSystem/measure-population","code":"initial-population","display":"Initial Population"}]},"count":1}]}]},"request":{"method":"PUT","url":"MeasureReport/0c5d7ca7-70aa-4db5-a317-1da4f0db25c0"}}]}