{"resourceType":"Bundle","id":"tests-d66f6c59-6a3f-4e15-b39d-74c91cb12a02-bundle","type":"transaction","entry":[{"fullUrl":"https://madie.cms.gov/Patient/d66f6c59-6a3f-4e15-b39d-74c91cb12a02","resource":{"resourceType":"Patient","id":"d66f6c59-6a3f-4e15-b39d-74c91cb12a02","meta":{"profile":["http://hl7.org/fhir/us/qicore/StructureDefinition/qicore-patient"]},"text":{"status":"generated","div":"<div xmlns=\"http://www.w3.org/1999/xhtml\"><div class=\"hapiHeaderText\">AssessTimeOfDelivRelvDateTimeAfterDelivEnc <b>DENFAIL </b></div><table class=\"hapiPropertyTable\"><tbody><tr><td>Identifier</td><td>b1148e48a87a22456174205c8541090787eeef6a1972002ada41ee86a84e67fb</td></tr><tr><td>Date of birth</td><td><span>14 February 1985</span></td></tr></tbody></table></div>"},"extension":[{"url":"http://hl7.org/fhir/us/core/StructureDefinition/us-core-race","extension":[{"url":"ombCategory","valueCoding":{"system":"urn:oid:2.16.840.1.113883.6.238","code":"1002-5","display":"American Indian or Alaska Native","userSelected":true}},{"url":"text","valueString":"American Indian or Alaska Native"}]},{"url":"http://hl7.org/fhir/us/core/StructureDefinition/us-core-ethnicity","extension":[{"url":"ombCategory","valueCoding":{"system":"urn:oid:2.16.840.1.113883.6.238","code":"2135-2","display":"Hispanic or Latino","userSelected":true}},{"url":"text","valueString":"Hispanic or Latino"}]}],"identifier":[{"type":{"coding":[{"system":"http://terminology.hl7.org/CodeSystem/v2-0203","code":"MR"}]},"system":"https://bonnie-fhir.healthit.gov/","value":"63487c2e0968f8012254017d"}],"active":true,"name":[{"use":"usual","family":"DENFail","given":["AssessTimeOfDelivRelvDateTimeAfterDelivEnc"]}],"gender":"female","birthDate":"1997-02-14"},"request":{"method":"PUT","url":"Patient/d66f6c59-6a3f-4e15-b39d-74c91cb12a02"}},{"fullUrl":"https://madie.cms.gov/Observation/5d014eb1b848460872380468","resource":{"resourceType":"Observation","id":"3f86acc3-150f-4bc3-afe6-b76a673cbe5f","meta":{"profile":["http://hl7.org/fhir/us/qicore/StructureDefinition/qicore-observation"]},"status":"final","category":[{"coding":[{"system":"http://terminology.hl7.org/CodeSystem/observation-category","code":"exam","display":"exam","userSelected":true}]}],"code":{"coding":[{"system":"http://loinc.org","code":"11996-6"}]},"subject":{"reference":"Patient/d66f6c59-6a3f-4e15-b39d-74c91cb12a02"},"effectiveDateTime":"2025-06-08T08:00:00.000+00:00","valueInteger":1},"request":{"method":"PUT","url":"Observation/3f86acc3-150f-4bc3-afe6-b76a673cbe5f"}},{"fullUrl":"https://madie.cms.gov/Observation/5d014eb1b84846087238046a","resource":{"resourceType":"Observation","id":"30c1db23-9de6-4783-9583-f6c1c21500ad","meta":{"profile":["http://hl7.org/fhir/us/qicore/StructureDefinition/qicore-observation"]},"status":"final","category":[{"coding":[{"system":"http://terminology.hl7.org/CodeSystem/observation-category","code":"exam","display":"exam","userSelected":true}]}],"code":{"coding":[{"system":"http://loinc.org","code":"11884-4"}]},"subject":{"reference":"Patient/d66f6c59-6a3f-4e15-b39d-74c91cb12a02"},"effectiveDateTime":"2025-06-08T09:15:00.000+00:00","valueQuantity":{"value":38.0,"system":"http://unitsofmeasure.org","code":"weeks"}},"request":{"method":"PUT","url":"Observation/30c1db23-9de6-4783-9583-f6c1c21500ad"}},{"fullUrl":"https://madie.cms.gov/Observation/5e69738b7ffec70000323136","resource":{"resourceType":"Observation","id":"4ec8f919-0293-4eec-9960-a827b8d283d8","meta":{"profile":["http://hl7.org/fhir/us/qicore/StructureDefinition/qicore-observation"]},"status":"final","category":[{"coding":[{"system":"http://terminology.hl7.org/CodeSystem/observation-category","code":"exam","display":"exam","userSelected":true}]}],"code":{"coding":[{"system":"http://loinc.org","code":"93857-1"}]},"subject":{"reference":"Patient/d66f6c59-6a3f-4e15-b39d-74c91cb12a02"},"effectiveDateTime":"2025-06-10T08:16:00.000+00:00","valueDateTime":"2025-06-10T08:16:00+00:00"},"request":{"method":"PUT","url":"Observation/4ec8f919-0293-4eec-9960-a827b8d283d8"}},{"fullUrl":"https://madie.cms.gov/Encounter/5d014eb1b848460872380466","resource":{"resourceType":"Encounter","id":"01c722cf-f981-4f97-bea2-cced8cb4bef2","meta":{"profile":["http://hl7.org/fhir/us/qicore/StructureDefinition/qicore-encounter"]},"status":"finished","class":{"system":"http://terminology.hl7.org/CodeSystem/v3-ActCode","code":"IMP","display":"inpatient encounter"},"type":[{"coding":[{"system":"http://snomed.info/sct","code":"183452005"}]}],"subject":{"reference":"Patient/d66f6c59-6a3f-4e15-b39d-74c91cb12a02"},"period":{"start":"2025-06-08T08:00:00.000Z","end":"2025-06-10T08:15:00.000Z"},"length":{"value":2.0,"unit":"days"},"diagnosis":[{"condition":{"reference":"Condition/delivery-of-singleton-f83c"},"use":{"coding":[{"system":"http://snomed.info/sct","code":"169826009","display":"Delivery of Singleton"}]}},{"condition":{"reference":"Condition/delivery-of-singleton-4b21"}}]},"request":{"method":"PUT","url":"Encounter/01c722cf-f981-4f97-bea2-cced8cb4bef2"}},{"fullUrl":"https://madie.cms.gov/Procedure/5d014eb1b848460872380467","resource":{"resourceType":"Procedure","id":"d0e93277-e139-4f80-8d8e-841c70062a0d","meta":{"profile":["http://hl7.org/fhir/us/qicore/StructureDefinition/qicore-procedure"]},"extension":[{"url":"http://hl7.org/fhir/us/qicore/StructureDefinition/qicore-recorded","valueDateTime":"2013-04-05T09:35:00-04:00"}],"status":"completed","code":{"coding":[{"system":"http://www.cms.gov/Medicare/Coding/ICD10","code":"10D00Z0"},{"system":"http://www.icd10data.com/icd10pcs","code":"10D00Z0","userSelected":true}]},"subject":{"reference":"Patient/d66f6c59-6a3f-4e15-b39d-74c91cb12a02"},"performedPeriod":{"start":"2025-06-08T08:00:00.000Z","end":"2025-06-08T09:15:00.000Z"}},"request":{"method":"PUT","url":"Procedure/d0e93277-e139-4f80-8d8e-841c70062a0d"}},{"fullUrl":"https://madie.cms.gov/Condition/delivery-of-singleton-4b21","resource":{"resourceType":"Condition","id":"9d76bc8b-79ea-4720-979b-e1d1fc6a8cd3","meta":{"profile":["http://hl7.org/fhir/us/qicore/StructureDefinition/qicore-condition"]},"category":[{"coding":[{"system":"http://terminology.hl7.org/CodeSystem/condition-category","code":"encounter-diagnosis","display":"Encounter Diagnosis"}]}],"code":{"coding":[{"system":"http://snomed.info/sct","version":"2022-09","code":"169826009","display":"Single live birth (finding)","userSelected":true}]},"subject":{"reference":"Patient/d66f6c59-6a3f-4e15-b39d-74c91cb12a02"},"recordedDate":"2025-10-21T08:00:00.000+00:00"},"request":{"method":"PUT","url":"Condition/9d76bc8b-79ea-4720-979b-e1d1fc6a8cd3"}},{"fullUrl":"https://madie.cms.gov/Coverage/1","resource":{"resourceType":"Coverage","id":"fb377dc3-97e2-44dd-b5b1-f99fd8755e2e","meta":{"profile":["http://hl7.org/fhir/us/qicore/StructureDefinition/qicore-coverage"]},"status":"active","beneficiary":{"reference":"Patient/d66f6c59-6a3f-4e15-b39d-74c91cb12a02"},"payor":[{"reference":"Organization/4b5a882f-1f43-485c-85c6-f5ad2337d5b1"}]},"request":{"method":"PUT","url":"Coverage/fb377dc3-97e2-44dd-b5b1-f99fd8755e2e"}},{"fullUrl":"https://madie.cms.gov/Organization/123456","resource":{"resourceType":"Organization","id":"4b5a882f-1f43-485c-85c6-f5ad2337d5b1","meta":{"profile":["http://hl7.org/fhir/us/qicore/StructureDefinition/qicore-organization"]},"identifier":[{"use":"temp","system":"urn:oid:2.16.840.1.113883.4.4","value":"21-3259825"}],"active":true,"type":[{"coding":[{"system":"http://terminology.hl7.org/CodeSystem/organization-type","code":"pay","display":"Payer"}]}],"name":"Blue Cross Blue Shield of Texas","telecom":[{"system":"phone","value":"(+1) 972-766-6900"}],"address":[{"use":"billing","type":"postal","line":["P.O. Box 660044"],"city":"Dallas","state":"TX","postalCode":"75266-0044","country":"USA"}]},"request":{"method":"PUT","url":"Organization/4b5a882f-1f43-485c-85c6-f5ad2337d5b1"}},{"fullUrl":"https://madie.cms.gov/Practitioner/practitioner-123456","resource":{"resourceType":"Practitioner","id":"04080a0f-fe4f-4fbb-ab53-ad8549a5743f","identifier":[{"system":"http://hl7.org/fhir/sid/us-npi","value":"123456"}],"name":[{"family":"Evil","prefix":["Dr"]}]},"request":{"method":"PUT","url":"Practitioner/04080a0f-fe4f-4fbb-ab53-ad8549a5743f"}},{"fullUrl":"https://madie.cms.gov/MeasureReport/4fa171f5-1f44-418e-a2c9-4ae5924d1fe3","resource":{"resourceType":"MeasureReport","id":"4fa171f5-1f44-418e-a2c9-4ae5924d1fe3","meta":{"profile":["http://hl7.org/fhir/us/cqfmeasures/StructureDefinition/test-case-cqfm"]},"contained":[{"resourceType":"Parameters","id":"01b3c342-258e-4ab4-8851-153169763cd4-parameters","parameter":[{"name":"subject","valueString":"d66f6c59-6a3f-4e15-b39d-74c91cb12a02"}]}],"extension":[{"url":"http://hl7.org/fhir/us/cqfmeasures/StructureDefinition/cqfm-inputParameters","valueReference":{"reference":"#01b3c342-258e-4ab4-8851-153169763cd4-parameters"}},{"url":"http://hl7.org/fhir/us/cqfmeasures/StructureDefinition/cqfm-testCaseDescription","valueMarkdown":"Passes: IP, Pt is 27 years of age,  encounter dx of delivery of singleton, gravida, EGA @ 38 weeks, AssessTimeOfDeliv Relevant DateTime After DelivEnc.  Tests \"TimeOfDelivery.relevantDatetime during DeliveryEncounters.relevantPeriod\".\n"}],"modifierExtension":[{"url":"http://hl7.org/fhir/us/cqfmeasures/StructureDefinition/cqfm-isTestCase","valueBoolean":true}],"status":"complete","type":"individual","measure":"https://madie.cms.gov/Measure/CesareanBirthFHIR","period":{"start":"2025-01-01","end":"2025-12-31"},"group":[{"population":[{"code":{"coding":[{"system":"http://terminology.hl7.org/CodeSystem/measure-population","code":"initial-population","display":"Initial Population"}]},"count":1},{"code":{"coding":[{"system":"http://terminology.hl7.org/CodeSystem/measure-population","code":"denominator","display":"Denominator"}]},"count":0},{"code":{"coding":[{"system":"http://terminology.hl7.org/CodeSystem/measure-population","code":"denominator-exclusion","display":"Denominator Exclusion"}]},"count":0},{"code":{"coding":[{"system":"http://terminology.hl7.org/CodeSystem/measure-population","code":"numerator","display":"Numerator"}]},"count":0}]}]},"request":{"method":"PUT","url":"MeasureReport/4fa171f5-1f44-418e-a2c9-4ae5924d1fe3"}}]}