{"resourceType":"Bundle","id":"tests-6b4ea20a-91ef-4b43-baca-a6b783395a57-bundle","type":"transaction","entry":[{"fullUrl":"https://madie.cms.gov/Patient/6b4ea20a-91ef-4b43-baca-a6b783395a57","resource":{"resourceType":"Patient","id":"6b4ea20a-91ef-4b43-baca-a6b783395a57","meta":{"profile":["http://hl7.org/fhir/us/qicore/StructureDefinition/qicore-patient"]},"text":{"status":"generated","div":"<div xmlns=\"http://www.w3.org/1999/xhtml\"><div class=\"hapiHeaderText\">AssessTermMissingResult <b>DENFAIL </b></div><table class=\"hapiPropertyTable\"><tbody><tr><td>Identifier</td><td>e6e21c3fa4edfea41e3da1195d4a7d3d8dc72d010572e04bff4dafb21a72c78e</td></tr><tr><td>Date of birth</td><td><span>14 February 1985</span></td></tr></tbody></table></div>"},"extension":[{"url":"http://hl7.org/fhir/us/core/StructureDefinition/us-core-race","extension":[{"url":"ombCategory","valueCoding":{"system":"urn:oid:2.16.840.1.113883.6.238","code":"1002-5","display":"American Indian or Alaska Native","userSelected":true}},{"url":"text","valueString":"American Indian or Alaska Native"}]},{"url":"http://hl7.org/fhir/us/core/StructureDefinition/us-core-ethnicity","extension":[{"url":"ombCategory","valueCoding":{"system":"urn:oid:2.16.840.1.113883.6.238","code":"2135-2","display":"Hispanic or Latino","userSelected":true}},{"url":"text","valueString":"Hispanic or Latino"}]}],"identifier":[{"type":{"coding":[{"system":"http://terminology.hl7.org/CodeSystem/v2-0203","code":"MR"}]},"system":"https://bonnie-fhir.healthit.gov/","value":"63487c2d0968f8012254015c"}],"active":true,"name":[{"use":"usual","family":"DENFail","given":["AssessTermMissingResult"]}],"gender":"female","birthDate":"1997-02-14"},"request":{"method":"PUT","url":"Patient/6b4ea20a-91ef-4b43-baca-a6b783395a57"}},{"fullUrl":"https://madie.cms.gov/Observation/5d014eb2b848460872380675","resource":{"resourceType":"Observation","id":"f5c33890-ae22-4801-b336-d2574bd1137c","meta":{"profile":["http://hl7.org/fhir/us/qicore/StructureDefinition/qicore-observation"]},"status":"final","category":[{"coding":[{"system":"http://terminology.hl7.org/CodeSystem/observation-category","code":"exam","display":"exam","userSelected":true}]}],"code":{"coding":[{"system":"http://loinc.org","code":"11637-6"}]},"subject":{"reference":"Patient/6b4ea20a-91ef-4b43-baca-a6b783395a57"},"effectiveDateTime":"2024-09-19T09:00:00.000+00:00","valueInteger":0},"request":{"method":"PUT","url":"Observation/f5c33890-ae22-4801-b336-d2574bd1137c"}},{"fullUrl":"https://madie.cms.gov/Observation/5d014eb2b848460872380677","resource":{"resourceType":"Observation","id":"bc08eae6-0381-4e3c-8496-db9e0bf44fb3","meta":{"profile":["http://hl7.org/fhir/us/qicore/StructureDefinition/qicore-observation"]},"status":"final","category":[{"coding":[{"system":"http://terminology.hl7.org/CodeSystem/observation-category","code":"exam","display":"exam","userSelected":true}]}],"code":{"coding":[{"system":"http://loinc.org","code":"11639-2"}]},"subject":{"reference":"Patient/6b4ea20a-91ef-4b43-baca-a6b783395a57"},"effectiveDateTime":"2024-09-19T09:00:00.000+00:00"},"request":{"method":"PUT","url":"Observation/bc08eae6-0381-4e3c-8496-db9e0bf44fb3"}},{"fullUrl":"https://madie.cms.gov/Observation/5d014eb2b848460872380679","resource":{"resourceType":"Observation","id":"d49290a2-d48e-42b9-849c-73f4f0abe2f3","meta":{"profile":["http://hl7.org/fhir/us/qicore/StructureDefinition/qicore-observation"]},"status":"final","category":[{"coding":[{"system":"http://terminology.hl7.org/CodeSystem/observation-category","code":"exam","display":"exam","userSelected":true}]}],"code":{"coding":[{"system":"http://loinc.org","code":"11884-4"}]},"subject":{"reference":"Patient/6b4ea20a-91ef-4b43-baca-a6b783395a57"},"effectiveDateTime":"2025-06-08T20:00:00.000+00:00","valueQuantity":{"value":37.0,"system":"http://unitsofmeasure.org","code":"weeks"}},"request":{"method":"PUT","url":"Observation/d49290a2-d48e-42b9-849c-73f4f0abe2f3"}},{"fullUrl":"https://madie.cms.gov/Observation/5e6972f97ffec70000322fd2","resource":{"resourceType":"Observation","id":"33f7b5d8-7159-4672-a2b1-f867ee8fe804","meta":{"profile":["http://hl7.org/fhir/us/qicore/StructureDefinition/qicore-observation"]},"status":"final","category":[{"coding":[{"system":"http://terminology.hl7.org/CodeSystem/observation-category","code":"exam","display":"exam","userSelected":true}]}],"code":{"coding":[{"system":"http://loinc.org","code":"93857-1"}]},"subject":{"reference":"Patient/6b4ea20a-91ef-4b43-baca-a6b783395a57"},"effectiveDateTime":"2025-06-08T20:00:00.000+00:00","valueDateTime":"2025-06-08T20:00:00+00:00"},"request":{"method":"PUT","url":"Observation/33f7b5d8-7159-4672-a2b1-f867ee8fe804"}},{"fullUrl":"https://madie.cms.gov/Encounter/5d014eb2b848460872380673","resource":{"resourceType":"Encounter","id":"51b9b84f-b159-4d17-8d72-0480a98899fa","meta":{"profile":["http://hl7.org/fhir/us/qicore/StructureDefinition/qicore-encounter"]},"status":"finished","class":{"system":"http://terminology.hl7.org/CodeSystem/v3-ActCode","code":"IMP","display":"inpatient encounter"},"type":[{"coding":[{"system":"http://snomed.info/sct","code":"8715000"}]}],"subject":{"reference":"Patient/6b4ea20a-91ef-4b43-baca-a6b783395a57"},"period":{"start":"2025-06-08T08:00:00.000Z","end":"2025-06-10T08:15:00.000Z"},"length":{"value":2.0,"unit":"days"},"diagnosis":[{"condition":{"reference":"Condition/delivery-of-singleton-f83c"},"use":{"coding":[{"system":"http://snomed.info/sct","code":"169826009","display":"Delivery of Singleton"}]}},{"condition":{"reference":"Condition/delivery-of-singleton-4b1f"}}]},"request":{"method":"PUT","url":"Encounter/51b9b84f-b159-4d17-8d72-0480a98899fa"}},{"fullUrl":"https://madie.cms.gov/Procedure/5d014eb2b848460872380674","resource":{"resourceType":"Procedure","id":"0ae0d0c4-c723-4439-8f79-49f42b16a7d8","meta":{"profile":["http://hl7.org/fhir/us/qicore/StructureDefinition/qicore-procedure"]},"extension":[{"url":"http://hl7.org/fhir/us/qicore/StructureDefinition/qicore-recorded","valueDateTime":"2013-04-05T09:35:00-04:00"}],"status":"completed","code":{"coding":[{"system":"http://www.cms.gov/Medicare/Coding/ICD10","code":"10D00Z0"},{"system":"http://snomed.info/sct","code":"4504004"},{"system":"http://www.icd10data.com/icd10pcs","code":"10D00Z0","userSelected":true}]},"subject":{"reference":"Patient/6b4ea20a-91ef-4b43-baca-a6b783395a57"},"performedPeriod":{"start":"2025-06-08T20:00:00.000Z","end":"2025-06-08T20:15:00.000Z"}},"request":{"method":"PUT","url":"Procedure/0ae0d0c4-c723-4439-8f79-49f42b16a7d8"}},{"fullUrl":"https://madie.cms.gov/Condition/delivery-of-singleton-4b1f","resource":{"resourceType":"Condition","id":"946d260a-5d45-463f-821c-4742de88bfd5","meta":{"profile":["http://hl7.org/fhir/us/qicore/StructureDefinition/qicore-condition"]},"category":[{"coding":[{"system":"http://terminology.hl7.org/CodeSystem/condition-category","code":"encounter-diagnosis","display":"Encounter Diagnosis"}]}],"code":{"coding":[{"system":"http://snomed.info/sct","version":"2022-09","code":"169826009","display":"Single live birth (finding)","userSelected":true}]},"subject":{"reference":"Patient/6b4ea20a-91ef-4b43-baca-a6b783395a57"},"recordedDate":"2025-10-21T08:00:00.000+00:00"},"request":{"method":"PUT","url":"Condition/946d260a-5d45-463f-821c-4742de88bfd5"}},{"fullUrl":"https://madie.cms.gov/Coverage/1","resource":{"resourceType":"Coverage","id":"90594dd8-0372-471f-90d7-3cb877e7d9b3","meta":{"profile":["http://hl7.org/fhir/us/qicore/StructureDefinition/qicore-coverage"]},"status":"active","beneficiary":{"reference":"Patient/6b4ea20a-91ef-4b43-baca-a6b783395a57"},"payor":[{"reference":"Organization/4b5a882f-1f43-485c-85c6-f5ad2337d5b1"}]},"request":{"method":"PUT","url":"Coverage/90594dd8-0372-471f-90d7-3cb877e7d9b3"}},{"fullUrl":"https://madie.cms.gov/Organization/123456","resource":{"resourceType":"Organization","id":"4b5a882f-1f43-485c-85c6-f5ad2337d5b1","meta":{"profile":["http://hl7.org/fhir/us/qicore/StructureDefinition/qicore-organization"]},"identifier":[{"use":"temp","system":"urn:oid:2.16.840.1.113883.4.4","value":"21-3259825"}],"active":true,"type":[{"coding":[{"system":"http://terminology.hl7.org/CodeSystem/organization-type","code":"pay","display":"Payer"}]}],"name":"Blue Cross Blue Shield of Texas","telecom":[{"system":"phone","value":"(+1) 972-766-6900"}],"address":[{"use":"billing","type":"postal","line":["P.O. Box 660044"],"city":"Dallas","state":"TX","postalCode":"75266-0044","country":"USA"}]},"request":{"method":"PUT","url":"Organization/4b5a882f-1f43-485c-85c6-f5ad2337d5b1"}},{"fullUrl":"https://madie.cms.gov/Practitioner/practitioner-123456","resource":{"resourceType":"Practitioner","id":"a3d7a839-6701-4371-80df-33b280d65583","identifier":[{"system":"http://hl7.org/fhir/sid/us-npi","value":"123456"}],"name":[{"family":"Evil","prefix":["Dr"]}]},"request":{"method":"PUT","url":"Practitioner/a3d7a839-6701-4371-80df-33b280d65583"}},{"fullUrl":"https://madie.cms.gov/MeasureReport/b4749c07-a676-43d1-a205-28e0268866eb","resource":{"resourceType":"MeasureReport","id":"b4749c07-a676-43d1-a205-28e0268866eb","meta":{"profile":["http://hl7.org/fhir/us/cqfmeasures/StructureDefinition/test-case-cqfm"]},"contained":[{"resourceType":"Parameters","id":"955ac60b-f686-4649-a46f-f074aef0786c-parameters","parameter":[{"name":"subject","valueString":"6b4ea20a-91ef-4b43-baca-a6b783395a57"}]}],"extension":[{"url":"http://hl7.org/fhir/us/cqfmeasures/StructureDefinition/cqfm-inputParameters","valueReference":{"reference":"#955ac60b-f686-4649-a46f-f074aef0786c-parameters"}},{"url":"http://hl7.org/fhir/us/cqfmeasures/StructureDefinition/cqfm-testCaseDescription","valueMarkdown":"\"Preterm Births=0, Rel Date/time < 42weeks prior to delivery\nTerm Newborn missing result, Rel Date/time < 42weeks prior to delivery\"\n"}],"modifierExtension":[{"url":"http://hl7.org/fhir/us/cqfmeasures/StructureDefinition/cqfm-isTestCase","valueBoolean":true}],"status":"complete","type":"individual","measure":"https://madie.cms.gov/Measure/CesareanBirthFHIR","period":{"start":"2025-01-01","end":"2025-12-31"},"group":[{"population":[{"code":{"coding":[{"system":"http://terminology.hl7.org/CodeSystem/measure-population","code":"initial-population","display":"Initial Population"}]},"count":1},{"code":{"coding":[{"system":"http://terminology.hl7.org/CodeSystem/measure-population","code":"denominator","display":"Denominator"}]},"count":0},{"code":{"coding":[{"system":"http://terminology.hl7.org/CodeSystem/measure-population","code":"denominator-exclusion","display":"Denominator Exclusion"}]},"count":0},{"code":{"coding":[{"system":"http://terminology.hl7.org/CodeSystem/measure-population","code":"numerator","display":"Numerator"}]},"count":0}]}]},"request":{"method":"PUT","url":"MeasureReport/b4749c07-a676-43d1-a205-28e0268866eb"}}]}