{"resourceType":"Bundle","id":"tests-1df41494-87ab-4167-95a8-8d38e0c059f3-bundle","type":"transaction","entry":[{"fullUrl":"https://madie.cms.gov/Patient/1df41494-87ab-4167-95a8-8d38e0c059f3","resource":{"resourceType":"Patient","id":"1df41494-87ab-4167-95a8-8d38e0c059f3","meta":{"profile":["http://hl7.org/fhir/us/qicore/StructureDefinition/qicore-patient"]},"text":{"status":"generated","div":"<div xmlns=\"http://www.w3.org/1999/xhtml\"><div class=\"hapiHeaderText\">AssessTimeOfDelivRelvDateTimeEQDelivEncEnd <b>DENPASS </b></div><table class=\"hapiPropertyTable\"><tbody><tr><td>Identifier</td><td>6be577fcfc58a0f157e5a93fd65e49b7f4787364657c858f26ba6356e13eb3b6</td></tr><tr><td>Date of birth</td><td><span>14 February 1985</span></td></tr></tbody></table></div>"},"extension":[{"url":"http://hl7.org/fhir/us/core/StructureDefinition/us-core-race","extension":[{"url":"ombCategory","valueCoding":{"system":"urn:oid:2.16.840.1.113883.6.238","code":"1002-5","display":"American Indian or Alaska Native","userSelected":true}},{"url":"text","valueString":"American Indian or Alaska Native"}]},{"url":"http://hl7.org/fhir/us/core/StructureDefinition/us-core-ethnicity","extension":[{"url":"ombCategory","valueCoding":{"system":"urn:oid:2.16.840.1.113883.6.238","code":"2135-2","display":"Hispanic or Latino","userSelected":true}},{"url":"text","valueString":"Hispanic or Latino"}]}],"identifier":[{"type":{"coding":[{"system":"http://terminology.hl7.org/CodeSystem/v2-0203","code":"MR"}]},"system":"https://bonnie-fhir.healthit.gov/","value":"63487c2e0968f80122540171"}],"active":true,"name":[{"use":"usual","family":"DENPass","given":["AssessTimeOfDelivRelvDateTimeEQDelivEncEnd"]}],"gender":"female","birthDate":"1997-02-14"},"request":{"method":"PUT","url":"Patient/1df41494-87ab-4167-95a8-8d38e0c059f3"}},{"fullUrl":"https://madie.cms.gov/Observation/5d014eb1b84846087238048f","resource":{"resourceType":"Observation","id":"7cb13cc9-8ec8-4b84-b691-9f585b7eb65d","meta":{"profile":["http://hl7.org/fhir/us/qicore/StructureDefinition/qicore-observation"]},"status":"final","category":[{"coding":[{"system":"http://terminology.hl7.org/CodeSystem/observation-category","code":"exam","display":"exam","userSelected":true}]}],"code":{"coding":[{"system":"http://loinc.org","code":"11996-6"}]},"subject":{"reference":"Patient/1df41494-87ab-4167-95a8-8d38e0c059f3"},"effectiveDateTime":"2025-06-08T08:00:00.000+00:00","valueInteger":1},"request":{"method":"PUT","url":"Observation/7cb13cc9-8ec8-4b84-b691-9f585b7eb65d"}},{"fullUrl":"https://madie.cms.gov/Observation/5d014eb1b848460872380491","resource":{"resourceType":"Observation","id":"7ec07412-94e5-48e0-a76d-c4c759e5ad34","meta":{"profile":["http://hl7.org/fhir/us/qicore/StructureDefinition/qicore-observation"]},"status":"final","category":[{"coding":[{"system":"http://terminology.hl7.org/CodeSystem/observation-category","code":"exam","display":"exam","userSelected":true}]}],"code":{"coding":[{"system":"http://loinc.org","code":"11884-4"}]},"subject":{"reference":"Patient/1df41494-87ab-4167-95a8-8d38e0c059f3"},"effectiveDateTime":"2025-06-10T08:15:00.000+00:00","valueQuantity":{"value":38.0,"system":"http://unitsofmeasure.org","code":"weeks"}},"request":{"method":"PUT","url":"Observation/7ec07412-94e5-48e0-a76d-c4c759e5ad34"}},{"fullUrl":"https://madie.cms.gov/Observation/5e69349d7ffec7000031e6e1","resource":{"resourceType":"Observation","id":"895783bd-1c58-449f-b1e4-fe25738bbed6","meta":{"profile":["http://hl7.org/fhir/us/qicore/StructureDefinition/qicore-observation"]},"status":"final","category":[{"coding":[{"system":"http://terminology.hl7.org/CodeSystem/observation-category","code":"exam","display":"exam","userSelected":true}]}],"code":{"coding":[{"system":"http://loinc.org","code":"93857-1"}]},"subject":{"reference":"Patient/1df41494-87ab-4167-95a8-8d38e0c059f3"},"effectiveDateTime":"2025-06-10T08:15:00.000+00:00","valueDateTime":"2025-06-10T08:15:00+00:00"},"request":{"method":"PUT","url":"Observation/895783bd-1c58-449f-b1e4-fe25738bbed6"}},{"fullUrl":"https://madie.cms.gov/Encounter/5d014eb1b84846087238048d","resource":{"resourceType":"Encounter","id":"a9bcef75-4f25-41b7-ace4-48a8a326e472","meta":{"profile":["http://hl7.org/fhir/us/qicore/StructureDefinition/qicore-encounter"]},"status":"finished","class":{"system":"http://terminology.hl7.org/CodeSystem/v3-ActCode","code":"IMP","display":"inpatient encounter"},"type":[{"coding":[{"system":"http://snomed.info/sct","code":"183452005"}]}],"subject":{"reference":"Patient/1df41494-87ab-4167-95a8-8d38e0c059f3"},"period":{"start":"2025-06-08T08:00:00.000Z","end":"2025-06-10T08:15:00.000Z"},"length":{"value":2.0,"unit":"days"},"diagnosis":[{"condition":{"reference":"Condition/delivery-of-singleton-f83c"},"use":{"coding":[{"system":"http://snomed.info/sct","code":"169826009","display":"Delivery of Singleton"}]}},{"condition":{"reference":"Condition/delivery-of-singleton-7765"}}]},"request":{"method":"PUT","url":"Encounter/a9bcef75-4f25-41b7-ace4-48a8a326e472"}},{"fullUrl":"https://madie.cms.gov/Procedure/5d014eb1b84846087238048e","resource":{"resourceType":"Procedure","id":"d36bfedb-4392-448a-9a34-fdec093c7e28","meta":{"profile":["http://hl7.org/fhir/us/qicore/StructureDefinition/qicore-procedure"]},"extension":[{"url":"http://hl7.org/fhir/us/qicore/StructureDefinition/qicore-recorded","valueDateTime":"2013-04-05T09:35:00-04:00"}],"status":"completed","code":{"coding":[{"system":"http://www.cms.gov/Medicare/Coding/ICD10","code":"10D00Z0"},{"system":"http://www.icd10data.com/icd10pcs","code":"10D00Z0","userSelected":true}]},"subject":{"reference":"Patient/1df41494-87ab-4167-95a8-8d38e0c059f3"},"performedPeriod":{"start":"2025-06-08T08:00:00.000Z","end":"2025-06-08T09:15:00.000Z"}},"request":{"method":"PUT","url":"Procedure/d36bfedb-4392-448a-9a34-fdec093c7e28"}},{"fullUrl":"https://madie.cms.gov/Condition/delivery-of-singleton-7765","resource":{"resourceType":"Condition","id":"a19a86a4-0bd3-4b3e-bc2f-d147d1d0aee1","meta":{"profile":["http://hl7.org/fhir/us/qicore/StructureDefinition/qicore-condition"]},"category":[{"coding":[{"system":"http://terminology.hl7.org/CodeSystem/condition-category","code":"encounter-diagnosis","display":"Encounter Diagnosis"}]}],"code":{"coding":[{"system":"http://snomed.info/sct","version":"2022-09","code":"169826009","display":"Single live birth (finding)","userSelected":true}]},"subject":{"reference":"Patient/1df41494-87ab-4167-95a8-8d38e0c059f3"},"recordedDate":"2025-10-20T08:00:00.000+00:00"},"request":{"method":"PUT","url":"Condition/a19a86a4-0bd3-4b3e-bc2f-d147d1d0aee1"}},{"fullUrl":"https://madie.cms.gov/Coverage/1","resource":{"resourceType":"Coverage","id":"a8096667-e9dd-4d1f-bbe2-5e4a4ffa9370","meta":{"profile":["http://hl7.org/fhir/us/qicore/StructureDefinition/qicore-coverage"]},"status":"active","beneficiary":{"reference":"Patient/1df41494-87ab-4167-95a8-8d38e0c059f3"},"payor":[{"reference":"Organization/4b5a882f-1f43-485c-85c6-f5ad2337d5b1"}]},"request":{"method":"PUT","url":"Coverage/a8096667-e9dd-4d1f-bbe2-5e4a4ffa9370"}},{"fullUrl":"https://madie.cms.gov/Organization/123456","resource":{"resourceType":"Organization","id":"4b5a882f-1f43-485c-85c6-f5ad2337d5b1","meta":{"profile":["http://hl7.org/fhir/us/qicore/StructureDefinition/qicore-organization"]},"identifier":[{"use":"temp","system":"urn:oid:2.16.840.1.113883.4.4","value":"21-3259825"}],"active":true,"type":[{"coding":[{"system":"http://terminology.hl7.org/CodeSystem/organization-type","code":"pay","display":"Payer"}]}],"name":"Blue Cross Blue Shield of Texas","telecom":[{"system":"phone","value":"(+1) 972-766-6900"}],"address":[{"use":"billing","type":"postal","line":["P.O. Box 660044"],"city":"Dallas","state":"TX","postalCode":"75266-0044","country":"USA"}]},"request":{"method":"PUT","url":"Organization/4b5a882f-1f43-485c-85c6-f5ad2337d5b1"}},{"fullUrl":"https://madie.cms.gov/Practitioner/practitioner-123456","resource":{"resourceType":"Practitioner","id":"c036e774-a1b6-4f02-a511-0cd805d1cab8","identifier":[{"system":"http://hl7.org/fhir/sid/us-npi","value":"123456"}],"name":[{"family":"Evil","prefix":["Dr"]}]},"request":{"method":"PUT","url":"Practitioner/c036e774-a1b6-4f02-a511-0cd805d1cab8"}},{"fullUrl":"https://madie.cms.gov/MeasureReport/e951fbee-3a95-40d7-9b89-bf78cde48cec","resource":{"resourceType":"MeasureReport","id":"e951fbee-3a95-40d7-9b89-bf78cde48cec","meta":{"profile":["http://hl7.org/fhir/us/cqfmeasures/StructureDefinition/test-case-cqfm"]},"contained":[{"resourceType":"Parameters","id":"0a012fdd-61ed-4665-bed0-ae00b86a1bef-parameters","parameter":[{"name":"subject","valueString":"1df41494-87ab-4167-95a8-8d38e0c059f3"}]}],"extension":[{"url":"http://hl7.org/fhir/us/cqfmeasures/StructureDefinition/cqfm-inputParameters","valueReference":{"reference":"#0a012fdd-61ed-4665-bed0-ae00b86a1bef-parameters"}},{"url":"http://hl7.org/fhir/us/cqfmeasures/StructureDefinition/cqfm-testCaseDescription","valueMarkdown":"Passes: IP, Pt is 27 years of age,  encounter dx of delivery of singleton, gravida, EGA @ 38 weeks, AsseDelivTm Is DelivEncEnd.  Tests \"TimeOfDelivery.RelvDatetime during DeliveryEncounters.relevantPeriod\".\n"}],"modifierExtension":[{"url":"http://hl7.org/fhir/us/cqfmeasures/StructureDefinition/cqfm-isTestCase","valueBoolean":true}],"status":"complete","type":"individual","measure":"https://madie.cms.gov/Measure/CesareanBirthFHIR","period":{"start":"2025-01-01","end":"2025-12-31"},"group":[{"population":[{"code":{"coding":[{"system":"http://terminology.hl7.org/CodeSystem/measure-population","code":"initial-population","display":"Initial Population"}]},"count":1},{"code":{"coding":[{"system":"http://terminology.hl7.org/CodeSystem/measure-population","code":"denominator","display":"Denominator"}]},"count":1},{"code":{"coding":[{"system":"http://terminology.hl7.org/CodeSystem/measure-population","code":"denominator-exclusion","display":"Denominator Exclusion"}]},"count":0},{"code":{"coding":[{"system":"http://terminology.hl7.org/CodeSystem/measure-population","code":"numerator","display":"Numerator"}]},"count":1}]}]},"request":{"method":"PUT","url":"MeasureReport/e951fbee-3a95-40d7-9b89-bf78cde48cec"}}]}