{"resourceType":"Bundle","id":"tests-dac80bea-c605-43b0-bbf6-49cf74b6001e-bundle","type":"transaction","entry":[{"fullUrl":"https://madie.cms.gov/Patient/dac80bea-c605-43b0-bbf6-49cf74b6001e","resource":{"resourceType":"Patient","id":"dac80bea-c605-43b0-bbf6-49cf74b6001e","meta":{"profile":["http://hl7.org/fhir/us/qicore/StructureDefinition/qicore-patient"]},"text":{"status":"generated","div":"<div xmlns=\"http://www.w3.org/1999/xhtml\"><div class=\"hapiHeaderText\">AssessG2P0PreTerm1Term1 <b>DENPASS </b></div><table class=\"hapiPropertyTable\"><tbody><tr><td>Identifier</td><td>b00b06f67015bda652373741cca10f65466d828e3a674df9528f73ec417ce0bb</td></tr><tr><td>Date of birth</td><td><span>14 February 1985</span></td></tr></tbody></table></div>"},"extension":[{"url":"http://hl7.org/fhir/us/core/StructureDefinition/us-core-race","extension":[{"url":"ombCategory","valueCoding":{"system":"urn:oid:2.16.840.1.113883.6.238","code":"1002-5","display":"American Indian or Alaska Native","userSelected":true}},{"url":"text","valueString":"American Indian or Alaska Native"}]},{"url":"http://hl7.org/fhir/us/core/StructureDefinition/us-core-ethnicity","extension":[{"url":"ombCategory","valueCoding":{"system":"urn:oid:2.16.840.1.113883.6.238","code":"2135-2","display":"Hispanic or Latino","userSelected":true}},{"url":"text","valueString":"Hispanic or Latino"}]}],"identifier":[{"type":{"coding":[{"system":"http://terminology.hl7.org/CodeSystem/v2-0203","code":"MR"}]},"system":"https://bonnie-fhir.healthit.gov/","value":"63487c300968f801225401b5"}],"active":true,"name":[{"use":"usual","family":"DENPass","given":["AssessG2P0PreTerm1Term1"]}],"gender":"female","birthDate":"1997-02-14"},"request":{"method":"PUT","url":"Patient/dac80bea-c605-43b0-bbf6-49cf74b6001e"}},{"fullUrl":"https://madie.cms.gov/Observation/5d014eb2b848460872380571","resource":{"resourceType":"Observation","id":"295fb81f-8300-4db6-a06c-b03c2599faaa","meta":{"profile":["http://hl7.org/fhir/us/qicore/StructureDefinition/qicore-observation"]},"status":"final","category":[{"coding":[{"system":"http://terminology.hl7.org/CodeSystem/observation-category","code":"exam","display":"exam","userSelected":true}]}],"code":{"coding":[{"system":"http://loinc.org","code":"11996-6"}]},"subject":{"reference":"Patient/dac80bea-c605-43b0-bbf6-49cf74b6001e"},"effectiveDateTime":"2024-10-19T08:10:00.000+00:00","valueInteger":2},"request":{"method":"PUT","url":"Observation/295fb81f-8300-4db6-a06c-b03c2599faaa"}},{"fullUrl":"https://madie.cms.gov/Observation/5d014eb2b848460872380573","resource":{"resourceType":"Observation","id":"e0b63b5a-9eb8-4e5b-bded-543a07660390","meta":{"profile":["http://hl7.org/fhir/us/qicore/StructureDefinition/qicore-observation"]},"status":"final","category":[{"coding":[{"system":"http://terminology.hl7.org/CodeSystem/observation-category","code":"exam","display":"exam","userSelected":true}]}],"code":{"coding":[{"system":"http://loinc.org","code":"11884-4"}]},"subject":{"reference":"Patient/dac80bea-c605-43b0-bbf6-49cf74b6001e"},"effectiveDateTime":"2025-06-08T09:15:00.000+00:00","valueQuantity":{"value":38.0,"system":"http://unitsofmeasure.org","code":"weeks"}},"request":{"method":"PUT","url":"Observation/e0b63b5a-9eb8-4e5b-bded-543a07660390"}},{"fullUrl":"https://madie.cms.gov/Observation/5e6165403e992300009b6c80","resource":{"resourceType":"Observation","id":"3697977e-283e-40de-84e1-8bba9fc136a5","meta":{"profile":["http://hl7.org/fhir/us/qicore/StructureDefinition/qicore-observation"]},"status":"final","category":[{"coding":[{"system":"http://terminology.hl7.org/CodeSystem/observation-category","code":"exam","display":"exam","userSelected":true}]}],"code":{"coding":[{"system":"http://loinc.org","code":"93857-1"}]},"subject":{"reference":"Patient/dac80bea-c605-43b0-bbf6-49cf74b6001e"},"effectiveDateTime":"2025-06-08T20:00:00.000+00:00","valueDateTime":"2025-06-08T20:00:00+00:00"},"request":{"method":"PUT","url":"Observation/3697977e-283e-40de-84e1-8bba9fc136a5"}},{"fullUrl":"https://madie.cms.gov/Observation/5e948de20f84f0000027a786","resource":{"resourceType":"Observation","id":"2d5e49e3-cc84-4ea8-bb93-674daeb835e6","meta":{"profile":["http://hl7.org/fhir/us/qicore/StructureDefinition/qicore-observation"]},"status":"final","category":[{"coding":[{"system":"http://terminology.hl7.org/CodeSystem/observation-category","code":"exam","display":"exam","userSelected":true}]}],"code":{"coding":[{"system":"http://loinc.org","code":"11977-6"}]},"subject":{"reference":"Patient/dac80bea-c605-43b0-bbf6-49cf74b6001e"},"effectiveDateTime":"2025-06-08T08:00:00.000+00:00","valueInteger":0},"request":{"method":"PUT","url":"Observation/2d5e49e3-cc84-4ea8-bb93-674daeb835e6"}},{"fullUrl":"https://madie.cms.gov/Observation/5e948ec30f84f0000027a814","resource":{"resourceType":"Observation","id":"aa1532e9-5bab-48a1-8251-6af60352cb64","meta":{"profile":["http://hl7.org/fhir/us/qicore/StructureDefinition/qicore-observation"]},"status":"final","category":[{"coding":[{"system":"http://terminology.hl7.org/CodeSystem/observation-category","code":"exam","display":"exam","userSelected":true}]}],"code":{"coding":[{"system":"http://loinc.org","code":"11637-6"}]},"subject":{"reference":"Patient/dac80bea-c605-43b0-bbf6-49cf74b6001e"},"effectiveDateTime":"2025-06-08T08:00:00.000+00:00","valueInteger":1},"request":{"method":"PUT","url":"Observation/aa1532e9-5bab-48a1-8251-6af60352cb64"}},{"fullUrl":"https://madie.cms.gov/Observation/5e948f9e0f84f0000027a89d","resource":{"resourceType":"Observation","id":"b14d4f16-239d-4b83-a0d4-0b921f0a8748","meta":{"profile":["http://hl7.org/fhir/us/qicore/StructureDefinition/qicore-observation"]},"status":"final","category":[{"coding":[{"system":"http://terminology.hl7.org/CodeSystem/observation-category","code":"exam","display":"exam","userSelected":true}]}],"code":{"coding":[{"system":"http://loinc.org","code":"11639-2"}]},"subject":{"reference":"Patient/dac80bea-c605-43b0-bbf6-49cf74b6001e"},"effectiveDateTime":"2025-06-08T08:00:00.000+00:00","valueInteger":1},"request":{"method":"PUT","url":"Observation/b14d4f16-239d-4b83-a0d4-0b921f0a8748"}},{"fullUrl":"https://madie.cms.gov/Encounter/5d014eb2b84846087238056f","resource":{"resourceType":"Encounter","id":"1e0a8681-06d3-43f8-97e4-b77687f8e031","meta":{"profile":["http://hl7.org/fhir/us/qicore/StructureDefinition/qicore-encounter"]},"status":"finished","class":{"system":"http://terminology.hl7.org/CodeSystem/v3-ActCode","code":"IMP","display":"inpatient encounter"},"type":[{"coding":[{"system":"http://snomed.info/sct","code":"183452005"}]}],"subject":{"reference":"Patient/dac80bea-c605-43b0-bbf6-49cf74b6001e"},"period":{"start":"2025-06-08T08:00:00.000Z","end":"2025-06-10T08:15:00.000Z"},"length":{"value":2.0,"unit":"days"},"diagnosis":[{"condition":{"reference":"Condition/delivery-of-singleton-f83c"},"use":{"coding":[{"system":"http://snomed.info/sct","code":"169826009","display":"Delivery of Singleton"}]}},{"condition":{"reference":"Condition/delivery-of-singleton-4d2c"}}]},"request":{"method":"PUT","url":"Encounter/1e0a8681-06d3-43f8-97e4-b77687f8e031"}},{"fullUrl":"https://madie.cms.gov/Procedure/5d014eb2b848460872380570","resource":{"resourceType":"Procedure","id":"30838186-e4df-4472-9440-607bbd2d2591","meta":{"profile":["http://hl7.org/fhir/us/qicore/StructureDefinition/qicore-procedure"]},"extension":[{"url":"http://hl7.org/fhir/us/qicore/StructureDefinition/qicore-recorded","valueDateTime":"2013-04-05T09:35:00-04:00"}],"status":"completed","code":{"coding":[{"system":"http://www.cms.gov/Medicare/Coding/ICD10","code":"10D07Z3"},{"system":"http://www.icd10data.com/icd10pcs","code":"10D07Z3","userSelected":true}]},"subject":{"reference":"Patient/dac80bea-c605-43b0-bbf6-49cf74b6001e"},"performedPeriod":{"start":"2025-06-08T08:10:00.000Z","end":"2025-06-08T09:14:00.000Z"}},"request":{"method":"PUT","url":"Procedure/30838186-e4df-4472-9440-607bbd2d2591"}},{"fullUrl":"https://madie.cms.gov/Condition/delivery-of-singleton-4d2c","resource":{"resourceType":"Condition","id":"38dcbf7a-1d3c-4364-9c46-94abed30fe77","meta":{"profile":["http://hl7.org/fhir/us/qicore/StructureDefinition/qicore-condition"]},"category":[{"coding":[{"system":"http://terminology.hl7.org/CodeSystem/condition-category","code":"encounter-diagnosis","display":"Encounter Diagnosis"}]}],"code":{"coding":[{"system":"http://snomed.info/sct","version":"2022-09","code":"169826009","display":"Single live birth (finding)","userSelected":true}]},"subject":{"reference":"Patient/dac80bea-c605-43b0-bbf6-49cf74b6001e"},"recordedDate":"2025-10-18T08:00:00.000+00:00"},"request":{"method":"PUT","url":"Condition/38dcbf7a-1d3c-4364-9c46-94abed30fe77"}},{"fullUrl":"https://madie.cms.gov/Coverage/1","resource":{"resourceType":"Coverage","id":"135013a2-d0ac-4e0e-8874-4aa11c968fe8","meta":{"profile":["http://hl7.org/fhir/us/qicore/StructureDefinition/qicore-coverage"]},"status":"active","beneficiary":{"reference":"Patient/dac80bea-c605-43b0-bbf6-49cf74b6001e"},"payor":[{"reference":"Organization/4b5a882f-1f43-485c-85c6-f5ad2337d5b1"}]},"request":{"method":"PUT","url":"Coverage/135013a2-d0ac-4e0e-8874-4aa11c968fe8"}},{"fullUrl":"https://madie.cms.gov/Organization/123456","resource":{"resourceType":"Organization","id":"4b5a882f-1f43-485c-85c6-f5ad2337d5b1","meta":{"profile":["http://hl7.org/fhir/us/qicore/StructureDefinition/qicore-organization"]},"identifier":[{"use":"temp","system":"urn:oid:2.16.840.1.113883.4.4","value":"21-3259825"}],"active":true,"type":[{"coding":[{"system":"http://terminology.hl7.org/CodeSystem/organization-type","code":"pay","display":"Payer"}]}],"name":"Blue Cross Blue Shield of Texas","telecom":[{"system":"phone","value":"(+1) 972-766-6900"}],"address":[{"use":"billing","type":"postal","line":["P.O. Box 660044"],"city":"Dallas","state":"TX","postalCode":"75266-0044","country":"USA"}]},"request":{"method":"PUT","url":"Organization/4b5a882f-1f43-485c-85c6-f5ad2337d5b1"}},{"fullUrl":"https://madie.cms.gov/Practitioner/practitioner-123456","resource":{"resourceType":"Practitioner","id":"c8e40dcd-3aaf-49af-828a-04ff2a1a72aa","identifier":[{"system":"http://hl7.org/fhir/sid/us-npi","value":"123456"}],"name":[{"family":"Evil","prefix":["Dr"]}]},"request":{"method":"PUT","url":"Practitioner/c8e40dcd-3aaf-49af-828a-04ff2a1a72aa"}},{"fullUrl":"https://madie.cms.gov/MeasureReport/e6924f1c-4e1e-48c1-b603-4eb78fbb83d2","resource":{"resourceType":"MeasureReport","id":"e6924f1c-4e1e-48c1-b603-4eb78fbb83d2","meta":{"profile":["http://hl7.org/fhir/us/cqfmeasures/StructureDefinition/test-case-cqfm"]},"contained":[{"resourceType":"Parameters","id":"be6571cc-8f0a-47e3-b06f-54bed775407b-parameters","parameter":[{"name":"subject","valueString":"dac80bea-c605-43b0-bbf6-49cf74b6001e"}]}],"extension":[{"url":"http://hl7.org/fhir/us/cqfmeasures/StructureDefinition/cqfm-inputParameters","valueReference":{"reference":"#be6571cc-8f0a-47e3-b06f-54bed775407b-parameters"}},{"url":"http://hl7.org/fhir/us/cqfmeasures/StructureDefinition/cqfm-testCaseDescription","valueMarkdown":"Passes: IP, PassesDENOM,  Pt is 27 years of age,  encounter dx delivery of singleton, G2, P0, PreTerm 1 Term 1 rel date/time less than 42 weeks prior to delivery, EGA @ 38 weeks\n"}],"modifierExtension":[{"url":"http://hl7.org/fhir/us/cqfmeasures/StructureDefinition/cqfm-isTestCase","valueBoolean":true}],"status":"complete","type":"individual","measure":"https://madie.cms.gov/Measure/CesareanBirthFHIR","period":{"start":"2025-01-01","end":"2025-12-31"},"group":[{"population":[{"code":{"coding":[{"system":"http://terminology.hl7.org/CodeSystem/measure-population","code":"initial-population","display":"Initial Population"}]},"count":1},{"code":{"coding":[{"system":"http://terminology.hl7.org/CodeSystem/measure-population","code":"denominator","display":"Denominator"}]},"count":1},{"code":{"coding":[{"system":"http://terminology.hl7.org/CodeSystem/measure-population","code":"denominator-exclusion","display":"Denominator Exclusion"}]},"count":0},{"code":{"coding":[{"system":"http://terminology.hl7.org/CodeSystem/measure-population","code":"numerator","display":"Numerator"}]},"count":0}]}]},"request":{"method":"PUT","url":"MeasureReport/e6924f1c-4e1e-48c1-b603-4eb78fbb83d2"}}]}