{"resourceType":"Bundle","id":"tests-ee486b94-1eb2-4914-9f1d-631b4057a3e4-bundle","type":"transaction","entry":[{"fullUrl":"https://madie.cms.gov/Patient/ee486b94-1eb2-4914-9f1d-631b4057a3e4","resource":{"resourceType":"Patient","id":"ee486b94-1eb2-4914-9f1d-631b4057a3e4","meta":{"profile":["http://hl7.org/fhir/us/qicore/StructureDefinition/qicore-patient"]},"text":{"status":"generated","div":"<div xmlns=\"http://www.w3.org/1999/xhtml\"><div class=\"hapiHeaderText\">GravidaResultNull <b>DENFAIL </b></div><table class=\"hapiPropertyTable\"><tbody><tr><td>Identifier</td><td>bd5809d63a645d5cb579233f12fec6c8e8831d73a2d817f7f0d8c7114f516c32</td></tr><tr><td>Date of birth</td><td><span>14 February 1985</span></td></tr></tbody></table></div>"},"extension":[{"url":"http://hl7.org/fhir/us/core/StructureDefinition/us-core-race","extension":[{"url":"ombCategory","valueCoding":{"system":"urn:oid:2.16.840.1.113883.6.238","code":"1002-5","display":"American Indian or Alaska Native","userSelected":true}},{"url":"text","valueString":"American Indian or Alaska Native"}]},{"url":"http://hl7.org/fhir/us/core/StructureDefinition/us-core-ethnicity","extension":[{"url":"ombCategory","valueCoding":{"system":"urn:oid:2.16.840.1.113883.6.238","code":"2135-2","display":"Hispanic or Latino","userSelected":true}},{"url":"text","valueString":"Hispanic or Latino"}]}],"identifier":[{"type":{"coding":[{"system":"http://terminology.hl7.org/CodeSystem/v2-0203","code":"MR"}]},"system":"https://bonnie-fhir.healthit.gov/","value":"63487c2d0968f80122540146"}],"active":true,"name":[{"use":"usual","family":"DENFail","given":["GravidaResultNull"]}],"gender":"female","birthDate":"1997-02-14"},"request":{"method":"PUT","url":"Patient/ee486b94-1eb2-4914-9f1d-631b4057a3e4"}},{"fullUrl":"https://madie.cms.gov/Observation/5d014eb1b8484608723804df","resource":{"resourceType":"Observation","id":"9791bb3a-1407-4b49-bc31-d862620c7d85","meta":{"profile":["http://hl7.org/fhir/us/qicore/StructureDefinition/qicore-observation"]},"status":"final","category":[{"coding":[{"system":"http://terminology.hl7.org/CodeSystem/observation-category","code":"exam","display":"exam","userSelected":true}]}],"code":{"coding":[{"system":"http://loinc.org","code":"11996-6"}]},"subject":{"reference":"Patient/ee486b94-1eb2-4914-9f1d-631b4057a3e4"},"effectiveDateTime":"2025-03-08T09:00:00.000+00:00"},"request":{"method":"PUT","url":"Observation/9791bb3a-1407-4b49-bc31-d862620c7d85"}},{"fullUrl":"https://madie.cms.gov/Observation/5d014eb1b8484608723804e1","resource":{"resourceType":"Observation","id":"7eaa1956-0638-4873-b8ec-53e6da58e9ca","meta":{"profile":["http://hl7.org/fhir/us/qicore/StructureDefinition/qicore-observation"]},"status":"final","category":[{"coding":[{"system":"http://terminology.hl7.org/CodeSystem/observation-category","code":"exam","display":"exam","userSelected":true}]}],"code":{"coding":[{"system":"http://loinc.org","code":"11884-4"}]},"subject":{"reference":"Patient/ee486b94-1eb2-4914-9f1d-631b4057a3e4"},"effectiveDateTime":"2025-06-08T20:00:00.000+00:00","valueQuantity":{"value":37.0,"system":"http://unitsofmeasure.org","code":"weeks"}},"request":{"method":"PUT","url":"Observation/7eaa1956-0638-4873-b8ec-53e6da58e9ca"}},{"fullUrl":"https://madie.cms.gov/Observation/5e69651b7ffec7000032142b","resource":{"resourceType":"Observation","id":"39282300-8976-4ca9-a117-3e377e4d31c2","meta":{"profile":["http://hl7.org/fhir/us/qicore/StructureDefinition/qicore-observation"]},"status":"final","category":[{"coding":[{"system":"http://terminology.hl7.org/CodeSystem/observation-category","code":"exam","display":"exam","userSelected":true}]}],"code":{"coding":[{"system":"http://loinc.org","code":"93857-1"}]},"subject":{"reference":"Patient/ee486b94-1eb2-4914-9f1d-631b4057a3e4"},"effectiveDateTime":"2025-06-08T20:00:00.000+00:00","valueDateTime":"2025-06-08T20:00:00+00:00"},"request":{"method":"PUT","url":"Observation/39282300-8976-4ca9-a117-3e377e4d31c2"}},{"fullUrl":"https://madie.cms.gov/Encounter/5d014eb1b8484608723804dd","resource":{"resourceType":"Encounter","id":"4597add7-1768-41ff-9ab3-36c89f771496","meta":{"profile":["http://hl7.org/fhir/us/qicore/StructureDefinition/qicore-encounter"]},"status":"finished","class":{"system":"http://terminology.hl7.org/CodeSystem/v3-ActCode","code":"IMP","display":"inpatient encounter"},"type":[{"coding":[{"system":"http://snomed.info/sct","code":"8715000"}]}],"subject":{"reference":"Patient/ee486b94-1eb2-4914-9f1d-631b4057a3e4"},"period":{"start":"2025-06-08T08:00:00.000Z","end":"2025-06-10T08:15:00.000Z"},"length":{"value":2.0,"unit":"days"},"diagnosis":[{"condition":{"reference":"Condition/delivery-of-singleton-f83c"},"use":{"coding":[{"system":"http://snomed.info/sct","code":"169826009","display":"Delivery of Singleton"}]}},{"condition":{"reference":"Condition/delivery-of-singleton-4b2d"}}]},"request":{"method":"PUT","url":"Encounter/4597add7-1768-41ff-9ab3-36c89f771496"}},{"fullUrl":"https://madie.cms.gov/Procedure/5d014eb1b8484608723804de","resource":{"resourceType":"Procedure","id":"cbae40dc-444d-4585-bfe4-91144ec7883c","meta":{"profile":["http://hl7.org/fhir/us/qicore/StructureDefinition/qicore-procedure"]},"extension":[{"url":"http://hl7.org/fhir/us/qicore/StructureDefinition/qicore-recorded","valueDateTime":"2013-04-05T09:35:00-04:00"}],"status":"completed","code":{"coding":[{"system":"http://www.cms.gov/Medicare/Coding/ICD10","code":"10D00Z0"},{"system":"http://snomed.info/sct","code":"4504004"},{"system":"http://www.icd10data.com/icd10pcs","code":"10D00Z0","userSelected":true}]},"subject":{"reference":"Patient/ee486b94-1eb2-4914-9f1d-631b4057a3e4"},"performedPeriod":{"start":"2025-06-08T20:00:00.000Z","end":"2025-06-08T20:15:00.000Z"}},"request":{"method":"PUT","url":"Procedure/cbae40dc-444d-4585-bfe4-91144ec7883c"}},{"fullUrl":"https://madie.cms.gov/Condition/delivery-of-singleton-4b2d","resource":{"resourceType":"Condition","id":"a6e6fe02-cabe-4b30-898e-f284c5d552ad","meta":{"profile":["http://hl7.org/fhir/us/qicore/StructureDefinition/qicore-condition"]},"category":[{"coding":[{"system":"http://terminology.hl7.org/CodeSystem/condition-category","code":"encounter-diagnosis","display":"Encounter Diagnosis"}]}],"code":{"coding":[{"system":"http://snomed.info/sct","version":"2022-09","code":"169826009","display":"Single live birth (finding)","userSelected":true}]},"subject":{"reference":"Patient/ee486b94-1eb2-4914-9f1d-631b4057a3e4"},"recordedDate":"2025-10-21T08:00:00.000+00:00"},"request":{"method":"PUT","url":"Condition/a6e6fe02-cabe-4b30-898e-f284c5d552ad"}},{"fullUrl":"https://madie.cms.gov/Coverage/1","resource":{"resourceType":"Coverage","id":"3307275d-7c3c-4d0f-bad9-c2ba5ce268cf","meta":{"profile":["http://hl7.org/fhir/us/qicore/StructureDefinition/qicore-coverage"]},"status":"active","beneficiary":{"reference":"Patient/ee486b94-1eb2-4914-9f1d-631b4057a3e4"},"payor":[{"reference":"Organization/4b5a882f-1f43-485c-85c6-f5ad2337d5b1"}]},"request":{"method":"PUT","url":"Coverage/3307275d-7c3c-4d0f-bad9-c2ba5ce268cf"}},{"fullUrl":"https://madie.cms.gov/Organization/123456","resource":{"resourceType":"Organization","id":"4b5a882f-1f43-485c-85c6-f5ad2337d5b1","meta":{"profile":["http://hl7.org/fhir/us/qicore/StructureDefinition/qicore-organization"]},"identifier":[{"use":"temp","system":"urn:oid:2.16.840.1.113883.4.4","value":"21-3259825"}],"active":true,"type":[{"coding":[{"system":"http://terminology.hl7.org/CodeSystem/organization-type","code":"pay","display":"Payer"}]}],"name":"Blue Cross Blue Shield of Texas","telecom":[{"system":"phone","value":"(+1) 972-766-6900"}],"address":[{"use":"billing","type":"postal","line":["P.O. Box 660044"],"city":"Dallas","state":"TX","postalCode":"75266-0044","country":"USA"}]},"request":{"method":"PUT","url":"Organization/4b5a882f-1f43-485c-85c6-f5ad2337d5b1"}},{"fullUrl":"https://madie.cms.gov/Practitioner/practitioner-123456","resource":{"resourceType":"Practitioner","id":"6feb867b-f042-4c01-a27f-54d9a34cdf8c","identifier":[{"system":"http://hl7.org/fhir/sid/us-npi","value":"123456"}],"name":[{"family":"Evil","prefix":["Dr"]}]},"request":{"method":"PUT","url":"Practitioner/6feb867b-f042-4c01-a27f-54d9a34cdf8c"}},{"fullUrl":"https://madie.cms.gov/MeasureReport/75d52ffb-714d-45ff-bd59-98b2ff048470","resource":{"resourceType":"MeasureReport","id":"75d52ffb-714d-45ff-bd59-98b2ff048470","meta":{"profile":["http://hl7.org/fhir/us/cqfmeasures/StructureDefinition/test-case-cqfm"]},"contained":[{"resourceType":"Parameters","id":"495296ee-88b2-4299-8871-ddb54aa771a7-parameters","parameter":[{"name":"subject","valueString":"ee486b94-1eb2-4914-9f1d-631b4057a3e4"}]}],"extension":[{"url":"http://hl7.org/fhir/us/cqfmeasures/StructureDefinition/cqfm-inputParameters","valueReference":{"reference":"#495296ee-88b2-4299-8871-ddb54aa771a7-parameters"}},{"url":"http://hl7.org/fhir/us/cqfmeasures/StructureDefinition/cqfm-testCaseDescription","valueMarkdown":"Passes IP,  Gravida result is missing\n"}],"modifierExtension":[{"url":"http://hl7.org/fhir/us/cqfmeasures/StructureDefinition/cqfm-isTestCase","valueBoolean":true}],"status":"complete","type":"individual","measure":"https://madie.cms.gov/Measure/CesareanBirthFHIR","period":{"start":"2025-01-01","end":"2025-12-31"},"group":[{"population":[{"code":{"coding":[{"system":"http://terminology.hl7.org/CodeSystem/measure-population","code":"initial-population","display":"Initial Population"}]},"count":1},{"code":{"coding":[{"system":"http://terminology.hl7.org/CodeSystem/measure-population","code":"denominator","display":"Denominator"}]},"count":0},{"code":{"coding":[{"system":"http://terminology.hl7.org/CodeSystem/measure-population","code":"denominator-exclusion","display":"Denominator Exclusion"}]},"count":0},{"code":{"coding":[{"system":"http://terminology.hl7.org/CodeSystem/measure-population","code":"numerator","display":"Numerator"}]},"count":0}]}]},"request":{"method":"PUT","url":"MeasureReport/75d52ffb-714d-45ff-bd59-98b2ff048470"}}]}