{"resourceType":"Bundle","id":"tests-c5af304c-319a-4b77-89e9-e51d5db99832-bundle","type":"transaction","entry":[{"fullUrl":"https://madie.cms.gov/Patient/c5af304c-319a-4b77-89e9-e51d5db99832","resource":{"resourceType":"Patient","id":"c5af304c-319a-4b77-89e9-e51d5db99832","meta":{"profile":["http://hl7.org/fhir/us/qicore/StructureDefinition/qicore-patient"]},"text":{"status":"generated","div":"<div xmlns=\"http://www.w3.org/1999/xhtml\"><div class=\"hapiHeaderText\">NoEncDx <b>DENFAIL </b></div><table class=\"hapiPropertyTable\"><tbody><tr><td>Identifier</td><td>71189d70ba3427612f2a418107466ed1652ec9a0e76c1b9c30a1691a1d91b34c</td></tr><tr><td>Date of birth</td><td><span>14 February 1985</span></td></tr></tbody></table></div>"},"extension":[{"url":"http://hl7.org/fhir/us/core/StructureDefinition/us-core-race","extension":[{"url":"ombCategory","valueCoding":{"system":"urn:oid:2.16.840.1.113883.6.238","code":"1002-5","display":"American Indian or Alaska Native","userSelected":true}},{"url":"text","valueString":"American Indian or Alaska Native"}]},{"url":"http://hl7.org/fhir/us/core/StructureDefinition/us-core-ethnicity","extension":[{"url":"ombCategory","valueCoding":{"system":"urn:oid:2.16.840.1.113883.6.238","code":"2135-2","display":"Hispanic or Latino","userSelected":true}},{"url":"text","valueString":"Hispanic or Latino"}]}],"identifier":[{"type":{"coding":[{"system":"http://terminology.hl7.org/CodeSystem/v2-0203","code":"MR"}]},"system":"https://bonnie-fhir.healthit.gov/","value":"63487c2f0968f801225401b2"}],"active":true,"name":[{"use":"usual","family":"DENFail","given":["NoEncDx"]}],"gender":"female","birthDate":"1997-02-14"},"request":{"method":"PUT","url":"Patient/c5af304c-319a-4b77-89e9-e51d5db99832"}},{"fullUrl":"https://madie.cms.gov/Observation/5d014eb1b848460872380537","resource":{"resourceType":"Observation","id":"08fbce52-eec2-41fb-9983-59f452b7b259","meta":{"profile":["http://hl7.org/fhir/us/qicore/StructureDefinition/qicore-observation"]},"status":"final","category":[{"coding":[{"system":"http://terminology.hl7.org/CodeSystem/observation-category","code":"exam","display":"exam","userSelected":true}]}],"code":{"coding":[{"system":"http://loinc.org","code":"11996-6"}]},"subject":{"reference":"Patient/c5af304c-319a-4b77-89e9-e51d5db99832"},"effectiveDateTime":"2025-02-09T08:00:00.000+00:00","valueInteger":1},"request":{"method":"PUT","url":"Observation/08fbce52-eec2-41fb-9983-59f452b7b259"}},{"fullUrl":"https://madie.cms.gov/Observation/5d014eb1b848460872380539","resource":{"resourceType":"Observation","id":"a4235cbd-649d-4d0a-abd9-0047ba7fb90b","meta":{"profile":["http://hl7.org/fhir/us/qicore/StructureDefinition/qicore-observation"]},"status":"final","category":[{"coding":[{"system":"http://terminology.hl7.org/CodeSystem/observation-category","code":"exam","display":"exam","userSelected":true}]}],"code":{"coding":[{"system":"http://loinc.org","code":"11884-4"}]},"subject":{"reference":"Patient/c5af304c-319a-4b77-89e9-e51d5db99832"},"effectiveDateTime":"2025-11-28T21:15:00.000+00:00","valueQuantity":{"value":40.0,"system":"http://unitsofmeasure.org","code":"weeks"}},"request":{"method":"PUT","url":"Observation/a4235cbd-649d-4d0a-abd9-0047ba7fb90b"}},{"fullUrl":"https://madie.cms.gov/Observation/5e693e147ffec7000031f2d2","resource":{"resourceType":"Observation","id":"0d1e0d5c-ada0-40d7-8c31-5f1e721f1f01","meta":{"profile":["http://hl7.org/fhir/us/qicore/StructureDefinition/qicore-observation"]},"status":"final","category":[{"coding":[{"system":"http://terminology.hl7.org/CodeSystem/observation-category","code":"exam","display":"exam","userSelected":true}]}],"code":{"coding":[{"system":"http://loinc.org","code":"93857-1"}]},"subject":{"reference":"Patient/c5af304c-319a-4b77-89e9-e51d5db99832"},"effectiveDateTime":"2025-11-28T21:15:00.000+00:00","valueDateTime":"2025-11-28T21:15:00+00:00"},"request":{"method":"PUT","url":"Observation/0d1e0d5c-ada0-40d7-8c31-5f1e721f1f01"}},{"fullUrl":"https://madie.cms.gov/Encounter/5d014eb1b848460872380535","resource":{"resourceType":"Encounter","id":"5269efe0-86e0-43c5-ae65-52e75debae22","meta":{"profile":["http://hl7.org/fhir/us/qicore/StructureDefinition/qicore-encounter"]},"status":"finished","class":{"system":"http://terminology.hl7.org/CodeSystem/v3-ActCode","code":"IMP","display":"inpatient encounter"},"type":[{"coding":[{"system":"http://snomed.info/sct","code":"8715000"}]}],"subject":{"reference":"Patient/c5af304c-319a-4b77-89e9-e51d5db99832"},"period":{"start":"2025-11-28T08:00:00.000Z","end":"2025-11-30T08:15:00.000Z"},"length":{"value":2.0,"unit":"days"}},"request":{"method":"PUT","url":"Encounter/5269efe0-86e0-43c5-ae65-52e75debae22"}},{"fullUrl":"https://madie.cms.gov/Procedure/5d014eb1b848460872380536","resource":{"resourceType":"Procedure","id":"4d776511-f743-4535-8804-6794ee7ca2a5","meta":{"profile":["http://hl7.org/fhir/us/qicore/StructureDefinition/qicore-procedure"]},"extension":[{"url":"http://hl7.org/fhir/us/qicore/StructureDefinition/qicore-recorded","valueDateTime":"2013-04-05T09:35:00-04:00"}],"status":"completed","code":{"coding":[{"system":"http://snomed.info/sct","code":"22633006"}]},"subject":{"reference":"Patient/c5af304c-319a-4b77-89e9-e51d5db99832"},"performedPeriod":{"start":"2025-11-28T20:00:00.000Z","end":"2025-11-28T20:15:00.000Z"}},"request":{"method":"PUT","url":"Procedure/4d776511-f743-4535-8804-6794ee7ca2a5"}},{"fullUrl":"https://madie.cms.gov/Coverage/1","resource":{"resourceType":"Coverage","id":"1597d529-8518-4e2b-a8ba-79f49465c893","meta":{"profile":["http://hl7.org/fhir/us/qicore/StructureDefinition/qicore-coverage"]},"status":"active","beneficiary":{"reference":"Patient/c5af304c-319a-4b77-89e9-e51d5db99832"},"payor":[{"reference":"Organization/4b5a882f-1f43-485c-85c6-f5ad2337d5b1"}]},"request":{"method":"PUT","url":"Coverage/1597d529-8518-4e2b-a8ba-79f49465c893"}},{"fullUrl":"https://madie.cms.gov/Organization/123456","resource":{"resourceType":"Organization","id":"4b5a882f-1f43-485c-85c6-f5ad2337d5b1","meta":{"profile":["http://hl7.org/fhir/us/qicore/StructureDefinition/qicore-organization"]},"identifier":[{"use":"temp","system":"urn:oid:2.16.840.1.113883.4.4","value":"21-3259825"}],"active":true,"type":[{"coding":[{"system":"http://terminology.hl7.org/CodeSystem/organization-type","code":"pay","display":"Payer"}]}],"name":"Blue Cross Blue Shield of Texas","telecom":[{"system":"phone","value":"(+1) 972-766-6900"}],"address":[{"use":"billing","type":"postal","line":["P.O. Box 660044"],"city":"Dallas","state":"TX","postalCode":"75266-0044","country":"USA"}]},"request":{"method":"PUT","url":"Organization/4b5a882f-1f43-485c-85c6-f5ad2337d5b1"}},{"fullUrl":"https://madie.cms.gov/Practitioner/practitioner-123456","resource":{"resourceType":"Practitioner","id":"04845307-2f6b-4e0f-ba17-52860ce27e18","identifier":[{"system":"http://hl7.org/fhir/sid/us-npi","value":"123456"}],"name":[{"family":"Evil","prefix":["Dr"]}]},"request":{"method":"PUT","url":"Practitioner/04845307-2f6b-4e0f-ba17-52860ce27e18"}},{"fullUrl":"https://madie.cms.gov/MeasureReport/a903ab51-5fcd-496b-8325-39db5f699b06","resource":{"resourceType":"MeasureReport","id":"a903ab51-5fcd-496b-8325-39db5f699b06","meta":{"profile":["http://hl7.org/fhir/us/cqfmeasures/StructureDefinition/test-case-cqfm"]},"contained":[{"resourceType":"Parameters","id":"15abe937-e9ad-4db1-bc2d-897e30b89ebb-parameters","parameter":[{"name":"subject","valueString":"c5af304c-319a-4b77-89e9-e51d5db99832"}]}],"extension":[{"url":"http://hl7.org/fhir/us/cqfmeasures/StructureDefinition/cqfm-inputParameters","valueReference":{"reference":"#15abe937-e9ad-4db1-bc2d-897e30b89ebb-parameters"}},{"url":"http://hl7.org/fhir/us/cqfmeasures/StructureDefinition/cqfm-testCaseDescription","valueMarkdown":"Passes IP, Fails DENOM and fails NUM; Gravida 1(auth 42 weeks)  and EGA 40 weeks;  No EncDx for Singleton Birth \n"}],"modifierExtension":[{"url":"http://hl7.org/fhir/us/cqfmeasures/StructureDefinition/cqfm-isTestCase","valueBoolean":true}],"status":"complete","type":"individual","measure":"https://madie.cms.gov/Measure/CesareanBirthFHIR","period":{"start":"2025-01-01","end":"2025-12-31"},"group":[{"population":[{"code":{"coding":[{"system":"http://terminology.hl7.org/CodeSystem/measure-population","code":"initial-population","display":"Initial Population"}]},"count":1},{"code":{"coding":[{"system":"http://terminology.hl7.org/CodeSystem/measure-population","code":"denominator","display":"Denominator"}]},"count":0},{"code":{"coding":[{"system":"http://terminology.hl7.org/CodeSystem/measure-population","code":"denominator-exclusion","display":"Denominator Exclusion"}]},"count":0},{"code":{"coding":[{"system":"http://terminology.hl7.org/CodeSystem/measure-population","code":"numerator","display":"Numerator"}]},"count":0}]}]},"request":{"method":"PUT","url":"MeasureReport/a903ab51-5fcd-496b-8325-39db5f699b06"}}]}