{"resourceType":"Bundle","id":"tests-446532f2-7a4c-43cd-91ab-44bcd198526c-bundle","type":"transaction","entry":[{"fullUrl":"https://madie.cms.gov/Patient/446532f2-7a4c-43cd-91ab-44bcd198526c","resource":{"resourceType":"Patient","id":"446532f2-7a4c-43cd-91ab-44bcd198526c","meta":{"profile":["http://hl7.org/fhir/us/qicore/StructureDefinition/qicore-patient"]},"text":{"status":"generated","div":"<div xmlns=\"http://www.w3.org/1999/xhtml\"><div class=\"hapiHeaderText\">AssessTerm0RelDtTimeEQTimeOfDeliv <b>DENFAIL </b></div><table class=\"hapiPropertyTable\"><tbody><tr><td>Identifier</td><td>6673ad2e7afdbe2b64b32198d497922374113f8e5685f7318cb6bb4ecc9fb9d7</td></tr><tr><td>Date of birth</td><td><span>14 February 1985</span></td></tr></tbody></table></div>"},"extension":[{"url":"http://hl7.org/fhir/us/core/StructureDefinition/us-core-race","extension":[{"url":"ombCategory","valueCoding":{"system":"urn:oid:2.16.840.1.113883.6.238","code":"1002-5","display":"American Indian or Alaska Native","userSelected":true}},{"url":"text","valueString":"American Indian or Alaska Native"}]},{"url":"http://hl7.org/fhir/us/core/StructureDefinition/us-core-ethnicity","extension":[{"url":"ombCategory","valueCoding":{"system":"urn:oid:2.16.840.1.113883.6.238","code":"2135-2","display":"Hispanic or Latino","userSelected":true}},{"url":"text","valueString":"Hispanic or Latino"}]}],"identifier":[{"type":{"coding":[{"system":"http://terminology.hl7.org/CodeSystem/v2-0203","code":"MR"}]},"system":"https://bonnie-fhir.healthit.gov/","value":"63487c2d0968f80122540161"}],"active":true,"name":[{"use":"usual","family":"DENFail","given":["AssessTerm0RelDtTimeEQTimeOfDeliv"]}],"gender":"female","birthDate":"1997-02-14"},"request":{"method":"PUT","url":"Patient/446532f2-7a4c-43cd-91ab-44bcd198526c"}},{"fullUrl":"https://madie.cms.gov/Observation/5d014eb2b84846087238067d","resource":{"resourceType":"Observation","id":"798fb9a8-583a-431a-866d-8f90257181cf","meta":{"profile":["http://hl7.org/fhir/us/qicore/StructureDefinition/qicore-observation"]},"status":"final","category":[{"coding":[{"system":"http://terminology.hl7.org/CodeSystem/observation-category","code":"exam","display":"exam","userSelected":true}]}],"code":{"coding":[{"system":"http://loinc.org","code":"11637-6"}]},"subject":{"reference":"Patient/446532f2-7a4c-43cd-91ab-44bcd198526c"},"effectiveDateTime":"2024-09-19T09:00:00.000+00:00","valueInteger":0},"request":{"method":"PUT","url":"Observation/798fb9a8-583a-431a-866d-8f90257181cf"}},{"fullUrl":"https://madie.cms.gov/Observation/5d014eb2b84846087238067f","resource":{"resourceType":"Observation","id":"82d30be6-36bd-4cd7-ab22-ced5a91c980b","meta":{"profile":["http://hl7.org/fhir/us/qicore/StructureDefinition/qicore-observation"]},"status":"final","category":[{"coding":[{"system":"http://terminology.hl7.org/CodeSystem/observation-category","code":"exam","display":"exam","userSelected":true}]}],"code":{"coding":[{"system":"http://loinc.org","code":"11639-2"}]},"subject":{"reference":"Patient/446532f2-7a4c-43cd-91ab-44bcd198526c"},"effectiveDateTime":"2025-06-08T20:00:00.000+00:00","valueInteger":0},"request":{"method":"PUT","url":"Observation/82d30be6-36bd-4cd7-ab22-ced5a91c980b"}},{"fullUrl":"https://madie.cms.gov/Observation/5d014eb2b848460872380682","resource":{"resourceType":"Observation","id":"4d9c9dc9-d8f2-48ec-a680-425714327f80","meta":{"profile":["http://hl7.org/fhir/us/qicore/StructureDefinition/qicore-observation"]},"status":"final","category":[{"coding":[{"system":"http://terminology.hl7.org/CodeSystem/observation-category","code":"exam","display":"exam","userSelected":true}]}],"code":{"coding":[{"system":"http://loinc.org","code":"11884-4"}]},"subject":{"reference":"Patient/446532f2-7a4c-43cd-91ab-44bcd198526c"},"effectiveDateTime":"2025-06-08T20:00:00.000+00:00","valueQuantity":{"value":37.0,"system":"http://unitsofmeasure.org","code":"weeks"}},"request":{"method":"PUT","url":"Observation/4d9c9dc9-d8f2-48ec-a680-425714327f80"}},{"fullUrl":"https://madie.cms.gov/Observation/5e6971587ffec70000322b19","resource":{"resourceType":"Observation","id":"2fd66b5b-a42a-45c5-a40e-87212f4ce85b","meta":{"profile":["http://hl7.org/fhir/us/qicore/StructureDefinition/qicore-observation"]},"status":"final","category":[{"coding":[{"system":"http://terminology.hl7.org/CodeSystem/observation-category","code":"exam","display":"exam","userSelected":true}]}],"code":{"coding":[{"system":"http://loinc.org","code":"93857-1"}]},"subject":{"reference":"Patient/446532f2-7a4c-43cd-91ab-44bcd198526c"},"effectiveDateTime":"2025-06-08T20:00:00.000+00:00","valueDateTime":"2025-06-08T20:00:00+00:00"},"request":{"method":"PUT","url":"Observation/2fd66b5b-a42a-45c5-a40e-87212f4ce85b"}},{"fullUrl":"https://madie.cms.gov/Encounter/5d014eb2b84846087238067b","resource":{"resourceType":"Encounter","id":"58c53356-a76d-4709-b32d-e896649d1082","meta":{"profile":["http://hl7.org/fhir/us/qicore/StructureDefinition/qicore-encounter"]},"status":"finished","class":{"system":"http://terminology.hl7.org/CodeSystem/v3-ActCode","code":"IMP","display":"inpatient encounter"},"type":[{"coding":[{"system":"http://snomed.info/sct","code":"8715000"}]}],"subject":{"reference":"Patient/446532f2-7a4c-43cd-91ab-44bcd198526c"},"period":{"start":"2025-06-08T08:00:00.000Z","end":"2025-06-10T08:15:00.000Z"},"length":{"value":2.0,"unit":"days"},"diagnosis":[{"condition":{"reference":"Condition/delivery-of-singleton-f83c"},"use":{"coding":[{"system":"http://snomed.info/sct","code":"169826009","display":"Delivery of Singleton"}]}},{"condition":{"reference":"Condition/delivery-of-singleton-4b1b"}}]},"request":{"method":"PUT","url":"Encounter/58c53356-a76d-4709-b32d-e896649d1082"}},{"fullUrl":"https://madie.cms.gov/Procedure/5d014eb2b84846087238067c","resource":{"resourceType":"Procedure","id":"094ad0b6-5041-4706-a35f-449643617a56","meta":{"profile":["http://hl7.org/fhir/us/qicore/StructureDefinition/qicore-procedure"]},"extension":[{"url":"http://hl7.org/fhir/us/qicore/StructureDefinition/qicore-recorded","valueDateTime":"2013-04-05T09:35:00-04:00"}],"status":"completed","code":{"coding":[{"system":"http://www.cms.gov/Medicare/Coding/ICD10","code":"10D00Z0"},{"system":"http://snomed.info/sct","code":"4504004"},{"system":"http://www.icd10data.com/icd10pcs","code":"10D00Z0","userSelected":true}]},"subject":{"reference":"Patient/446532f2-7a4c-43cd-91ab-44bcd198526c"},"performedPeriod":{"start":"2025-06-08T20:00:00.000Z","end":"2025-06-08T20:15:00.000Z"}},"request":{"method":"PUT","url":"Procedure/094ad0b6-5041-4706-a35f-449643617a56"}},{"fullUrl":"https://madie.cms.gov/Condition/delivery-of-singleton-4b1b","resource":{"resourceType":"Condition","id":"94674d4a-5465-4747-8808-d1b909ddd16d","meta":{"profile":["http://hl7.org/fhir/us/qicore/StructureDefinition/qicore-condition"]},"category":[{"coding":[{"system":"http://terminology.hl7.org/CodeSystem/condition-category","code":"encounter-diagnosis","display":"Encounter Diagnosis"}]}],"code":{"coding":[{"system":"http://snomed.info/sct","version":"2022-09","code":"169826009","display":"Single live birth (finding)","userSelected":true}]},"subject":{"reference":"Patient/446532f2-7a4c-43cd-91ab-44bcd198526c"},"recordedDate":"2025-10-21T08:00:00.000+00:00"},"request":{"method":"PUT","url":"Condition/94674d4a-5465-4747-8808-d1b909ddd16d"}},{"fullUrl":"https://madie.cms.gov/Coverage/1","resource":{"resourceType":"Coverage","id":"1ec4a3a4-26b8-473f-a4b5-fb93cc62bdc7","meta":{"profile":["http://hl7.org/fhir/us/qicore/StructureDefinition/qicore-coverage"]},"status":"active","beneficiary":{"reference":"Patient/446532f2-7a4c-43cd-91ab-44bcd198526c"},"payor":[{"reference":"Organization/4b5a882f-1f43-485c-85c6-f5ad2337d5b1"}]},"request":{"method":"PUT","url":"Coverage/1ec4a3a4-26b8-473f-a4b5-fb93cc62bdc7"}},{"fullUrl":"https://madie.cms.gov/Organization/123456","resource":{"resourceType":"Organization","id":"4b5a882f-1f43-485c-85c6-f5ad2337d5b1","meta":{"profile":["http://hl7.org/fhir/us/qicore/StructureDefinition/qicore-organization"]},"identifier":[{"use":"temp","system":"urn:oid:2.16.840.1.113883.4.4","value":"21-3259825"}],"active":true,"type":[{"coding":[{"system":"http://terminology.hl7.org/CodeSystem/organization-type","code":"pay","display":"Payer"}]}],"name":"Blue Cross Blue Shield of Texas","telecom":[{"system":"phone","value":"(+1) 972-766-6900"}],"address":[{"use":"billing","type":"postal","line":["P.O. Box 660044"],"city":"Dallas","state":"TX","postalCode":"75266-0044","country":"USA"}]},"request":{"method":"PUT","url":"Organization/4b5a882f-1f43-485c-85c6-f5ad2337d5b1"}},{"fullUrl":"https://madie.cms.gov/Practitioner/practitioner-123456","resource":{"resourceType":"Practitioner","id":"120ab742-661b-4134-a8e5-9c3d1478dd67","identifier":[{"system":"http://hl7.org/fhir/sid/us-npi","value":"123456"}],"name":[{"family":"Evil","prefix":["Dr"]}]},"request":{"method":"PUT","url":"Practitioner/120ab742-661b-4134-a8e5-9c3d1478dd67"}},{"fullUrl":"https://madie.cms.gov/MeasureReport/5afa1123-1126-4e26-be7b-a1d69dd457ba","resource":{"resourceType":"MeasureReport","id":"5afa1123-1126-4e26-be7b-a1d69dd457ba","meta":{"profile":["http://hl7.org/fhir/us/cqfmeasures/StructureDefinition/test-case-cqfm"]},"contained":[{"resourceType":"Parameters","id":"5aba0616-dbf2-4284-83a7-df76927983d3-parameters","parameter":[{"name":"subject","valueString":"446532f2-7a4c-43cd-91ab-44bcd198526c"}]}],"extension":[{"url":"http://hl7.org/fhir/us/cqfmeasures/StructureDefinition/cqfm-inputParameters","valueReference":{"reference":"#5aba0616-dbf2-4284-83a7-df76927983d3-parameters"}},{"url":"http://hl7.org/fhir/us/cqfmeasures/StructureDefinition/cqfm-testCaseDescription","valueMarkdown":"\"Preterm Births=0, Relevant date/time < 42weeks prior to Asse delivery\nTerm Newborn=0, Relevant date/time same datetime as Asse delivery\"\n"}],"modifierExtension":[{"url":"http://hl7.org/fhir/us/cqfmeasures/StructureDefinition/cqfm-isTestCase","valueBoolean":true}],"status":"complete","type":"individual","measure":"https://madie.cms.gov/Measure/CesareanBirthFHIR","period":{"start":"2025-01-01","end":"2025-12-31"},"group":[{"population":[{"code":{"coding":[{"system":"http://terminology.hl7.org/CodeSystem/measure-population","code":"initial-population","display":"Initial Population"}]},"count":1},{"code":{"coding":[{"system":"http://terminology.hl7.org/CodeSystem/measure-population","code":"denominator","display":"Denominator"}]},"count":0},{"code":{"coding":[{"system":"http://terminology.hl7.org/CodeSystem/measure-population","code":"denominator-exclusion","display":"Denominator Exclusion"}]},"count":0},{"code":{"coding":[{"system":"http://terminology.hl7.org/CodeSystem/measure-population","code":"numerator","display":"Numerator"}]},"count":0}]}]},"request":{"method":"PUT","url":"MeasureReport/5afa1123-1126-4e26-be7b-a1d69dd457ba"}}]}