{"resourceType":"Bundle","id":"tests-e45bf79e-2de3-47c1-b3f7-d5c06e9bc8ec-bundle","type":"transaction","entry":[{"fullUrl":"https://madie.cms.gov/Patient/e45bf79e-2de3-47c1-b3f7-d5c06e9bc8ec","resource":{"resourceType":"Patient","id":"e45bf79e-2de3-47c1-b3f7-d5c06e9bc8ec","meta":{"profile":["http://hl7.org/fhir/us/qicore/StructureDefinition/qicore-patient"]},"text":{"status":"generated","div":"<div xmlns=\"http://www.w3.org/1999/xhtml\"><div class=\"hapiHeaderText\">AssessGARelDtTime24Hours1minB4TimeOfDeliv <b>DENFAIL </b></div><table class=\"hapiPropertyTable\"><tbody><tr><td>Identifier</td><td>a645956ac82be668a9abacd6af25539c9cb78de06f5eccbbf48e18ab21ca3396</td></tr><tr><td>Date of birth</td><td><span>14 February 1985</span></td></tr></tbody></table></div>"},"extension":[{"url":"http://hl7.org/fhir/us/core/StructureDefinition/us-core-race","extension":[{"url":"ombCategory","valueCoding":{"system":"urn:oid:2.16.840.1.113883.6.238","code":"1002-5","display":"American Indian or Alaska Native","userSelected":true}},{"url":"text","valueString":"American Indian or Alaska Native"}]},{"url":"http://hl7.org/fhir/us/core/StructureDefinition/us-core-ethnicity","extension":[{"url":"ombCategory","valueCoding":{"system":"urn:oid:2.16.840.1.113883.6.238","code":"2135-2","display":"Hispanic or Latino","userSelected":true}},{"url":"text","valueString":"Hispanic or Latino"}]}],"identifier":[{"type":{"coding":[{"system":"http://terminology.hl7.org/CodeSystem/v2-0203","code":"MR"}]},"system":"https://bonnie-fhir.healthit.gov/","value":"63487c2e0968f80122540183"}],"active":true,"name":[{"use":"usual","family":"DENFail","given":["AssessGARelDtTime24Hours1minB4TimeOfDeliv"]}],"gender":"female","birthDate":"1997-02-14"},"request":{"method":"PUT","url":"Patient/e45bf79e-2de3-47c1-b3f7-d5c06e9bc8ec"}},{"fullUrl":"https://madie.cms.gov/Observation/5d014eb1b84846087238049d","resource":{"resourceType":"Observation","id":"0aaf53ab-d3fb-4cee-8683-7c5e4bd7553d","meta":{"profile":["http://hl7.org/fhir/us/qicore/StructureDefinition/qicore-observation"]},"status":"final","category":[{"coding":[{"system":"http://terminology.hl7.org/CodeSystem/observation-category","code":"exam","display":"exam","userSelected":true}]}],"code":{"coding":[{"system":"http://loinc.org","code":"11884-4"}]},"subject":{"reference":"Patient/e45bf79e-2de3-47c1-b3f7-d5c06e9bc8ec"},"effectiveDateTime":"2025-06-07T12:59:00.000+00:00","valueQuantity":{"value":37.0,"system":"http://unitsofmeasure.org","code":"weeks"}},"request":{"method":"PUT","url":"Observation/0aaf53ab-d3fb-4cee-8683-7c5e4bd7553d"}},{"fullUrl":"https://madie.cms.gov/Observation/5d014eb1b84846087238049f","resource":{"resourceType":"Observation","id":"08e73f55-5771-4ce7-947c-b9a3c00eac03","meta":{"profile":["http://hl7.org/fhir/us/qicore/StructureDefinition/qicore-observation"]},"status":"final","category":[{"coding":[{"system":"http://terminology.hl7.org/CodeSystem/observation-category","code":"exam","display":"exam","userSelected":true}]}],"code":{"coding":[{"system":"http://loinc.org","code":"11996-6"}]},"subject":{"reference":"Patient/e45bf79e-2de3-47c1-b3f7-d5c06e9bc8ec"},"effectiveDateTime":"2025-06-08T08:00:00.000+00:00","valueInteger":1},"request":{"method":"PUT","url":"Observation/08e73f55-5771-4ce7-947c-b9a3c00eac03"}},{"fullUrl":"https://madie.cms.gov/Observation/5e694fec7ffec700003206fe","resource":{"resourceType":"Observation","id":"47ca44a0-7947-4098-978d-7a3466645597","meta":{"profile":["http://hl7.org/fhir/us/qicore/StructureDefinition/qicore-observation"]},"status":"final","category":[{"coding":[{"system":"http://terminology.hl7.org/CodeSystem/observation-category","code":"exam","display":"exam","userSelected":true}]}],"code":{"coding":[{"system":"http://loinc.org","code":"93857-1"}]},"subject":{"reference":"Patient/e45bf79e-2de3-47c1-b3f7-d5c06e9bc8ec"},"effectiveDateTime":"2025-06-08T13:00:00.000+00:00","valueDateTime":"2025-06-08T13:00:00+00:00"},"request":{"method":"PUT","url":"Observation/47ca44a0-7947-4098-978d-7a3466645597"}},{"fullUrl":"https://madie.cms.gov/Encounter/5d014eb1b84846087238049b","resource":{"resourceType":"Encounter","id":"841ba4a8-6857-4edd-a730-1f578c864860","meta":{"profile":["http://hl7.org/fhir/us/qicore/StructureDefinition/qicore-encounter"]},"status":"finished","class":{"system":"http://terminology.hl7.org/CodeSystem/v3-ActCode","code":"IMP","display":"inpatient encounter"},"type":[{"coding":[{"system":"http://snomed.info/sct","code":"183452005"}]}],"subject":{"reference":"Patient/e45bf79e-2de3-47c1-b3f7-d5c06e9bc8ec"},"period":{"start":"2025-06-08T08:00:00.000Z","end":"2025-06-10T08:15:00.000Z"},"length":{"value":2.0,"unit":"days"},"diagnosis":[{"condition":{"reference":"Condition/delivery-of-singleton-f83c"},"use":{"coding":[{"system":"http://snomed.info/sct","code":"169826009","display":"Delivery of Singleton"}]}},{"condition":{"reference":"Condition/delivery-of-singleton-9a86"}}]},"request":{"method":"PUT","url":"Encounter/841ba4a8-6857-4edd-a730-1f578c864860"}},{"fullUrl":"https://madie.cms.gov/Procedure/5d014eb1b84846087238049c","resource":{"resourceType":"Procedure","id":"25888086-9590-4781-8461-24c70f481742","meta":{"profile":["http://hl7.org/fhir/us/qicore/StructureDefinition/qicore-procedure"]},"extension":[{"url":"http://hl7.org/fhir/us/qicore/StructureDefinition/qicore-recorded","valueDateTime":"2013-04-05T09:35:00-04:00"}],"status":"completed","code":{"coding":[{"system":"http://www.cms.gov/Medicare/Coding/ICD10","code":"10D00Z0"},{"system":"http://www.icd10data.com/icd10pcs","code":"10D00Z0","userSelected":true}]},"subject":{"reference":"Patient/e45bf79e-2de3-47c1-b3f7-d5c06e9bc8ec"},"performedPeriod":{"start":"2025-06-08T08:00:00.000Z","end":"2025-06-08T09:15:00.000Z"}},"request":{"method":"PUT","url":"Procedure/25888086-9590-4781-8461-24c70f481742"}},{"fullUrl":"https://madie.cms.gov/Condition/delivery-of-singleton-9a86","resource":{"resourceType":"Condition","id":"b9daf1a3-a688-43ef-a5fe-36363c3b7b15","meta":{"profile":["http://hl7.org/fhir/us/qicore/StructureDefinition/qicore-condition"]},"category":[{"coding":[{"system":"http://terminology.hl7.org/CodeSystem/condition-category","code":"encounter-diagnosis","display":"Encounter Diagnosis"}]}],"code":{"coding":[{"system":"http://snomed.info/sct","version":"2022-09","code":"169826009","display":"Single live birth (finding)","userSelected":true}]},"subject":{"reference":"Patient/e45bf79e-2de3-47c1-b3f7-d5c06e9bc8ec"},"recordedDate":"2025-10-21T08:00:00.000+00:00"},"request":{"method":"PUT","url":"Condition/b9daf1a3-a688-43ef-a5fe-36363c3b7b15"}},{"fullUrl":"https://madie.cms.gov/Coverage/1","resource":{"resourceType":"Coverage","id":"a441b15f-3585-4be4-996d-e797c01ad4e3","meta":{"profile":["http://hl7.org/fhir/us/qicore/StructureDefinition/qicore-coverage"]},"status":"active","beneficiary":{"reference":"Patient/e45bf79e-2de3-47c1-b3f7-d5c06e9bc8ec"},"payor":[{"reference":"Organization/4b5a882f-1f43-485c-85c6-f5ad2337d5b1"}]},"request":{"method":"PUT","url":"Coverage/a441b15f-3585-4be4-996d-e797c01ad4e3"}},{"fullUrl":"https://madie.cms.gov/Organization/123456","resource":{"resourceType":"Organization","id":"4b5a882f-1f43-485c-85c6-f5ad2337d5b1","meta":{"profile":["http://hl7.org/fhir/us/qicore/StructureDefinition/qicore-organization"]},"identifier":[{"use":"temp","system":"urn:oid:2.16.840.1.113883.4.4","value":"21-3259825"}],"active":true,"type":[{"coding":[{"system":"http://terminology.hl7.org/CodeSystem/organization-type","code":"pay","display":"Payer"}]}],"name":"Blue Cross Blue Shield of Texas","telecom":[{"system":"phone","value":"(+1) 972-766-6900"}],"address":[{"use":"billing","type":"postal","line":["P.O. Box 660044"],"city":"Dallas","state":"TX","postalCode":"75266-0044","country":"USA"}]},"request":{"method":"PUT","url":"Organization/4b5a882f-1f43-485c-85c6-f5ad2337d5b1"}},{"fullUrl":"https://madie.cms.gov/Practitioner/practitioner-123456","resource":{"resourceType":"Practitioner","id":"c9197665-e3ec-4002-a0bd-e3d43d34c149","identifier":[{"system":"http://hl7.org/fhir/sid/us-npi","value":"123456"}],"name":[{"family":"Evil","prefix":["Dr"]}]},"request":{"method":"PUT","url":"Practitioner/c9197665-e3ec-4002-a0bd-e3d43d34c149"}},{"fullUrl":"https://madie.cms.gov/MeasureReport/6869f3fa-6b79-4cbf-b434-260a3d5e3726","resource":{"resourceType":"MeasureReport","id":"6869f3fa-6b79-4cbf-b434-260a3d5e3726","meta":{"profile":["http://hl7.org/fhir/us/cqfmeasures/StructureDefinition/test-case-cqfm"]},"contained":[{"resourceType":"Parameters","id":"14ac4c1e-2290-4ab9-b297-71eab7e2e32e-parameters","parameter":[{"name":"subject","valueString":"e45bf79e-2de3-47c1-b3f7-d5c06e9bc8ec"}]}],"extension":[{"url":"http://hl7.org/fhir/us/cqfmeasures/StructureDefinition/cqfm-inputParameters","valueReference":{"reference":"#14ac4c1e-2290-4ab9-b297-71eab7e2e32e-parameters"}},{"url":"http://hl7.org/fhir/us/cqfmeasures/StructureDefinition/cqfm-testCaseDescription","valueMarkdown":"Passes: IP, Pt is 27 years of age,  encounter dx of delivery of singleton, gravida, AsseEGA37 (24 hours and 1 minute before  TmDelivery rel datetime.  Tests \"Gestation37PlusWeeks.RelevantDatetime 1 day or less on or before TimeOfDel\".\n"}],"modifierExtension":[{"url":"http://hl7.org/fhir/us/cqfmeasures/StructureDefinition/cqfm-isTestCase","valueBoolean":true}],"status":"complete","type":"individual","measure":"https://madie.cms.gov/Measure/CesareanBirthFHIR","period":{"start":"2025-01-01","end":"2025-12-31"},"group":[{"population":[{"code":{"coding":[{"system":"http://terminology.hl7.org/CodeSystem/measure-population","code":"initial-population","display":"Initial Population"}]},"count":1},{"code":{"coding":[{"system":"http://terminology.hl7.org/CodeSystem/measure-population","code":"denominator","display":"Denominator"}]},"count":0},{"code":{"coding":[{"system":"http://terminology.hl7.org/CodeSystem/measure-population","code":"denominator-exclusion","display":"Denominator Exclusion"}]},"count":0},{"code":{"coding":[{"system":"http://terminology.hl7.org/CodeSystem/measure-population","code":"numerator","display":"Numerator"}]},"count":0}]}]},"request":{"method":"PUT","url":"MeasureReport/6869f3fa-6b79-4cbf-b434-260a3d5e3726"}}]}