{"resourceType":"Bundle","id":"tests-13fc77fb-6db3-4c4d-ae11-2ee08ff9acde-bundle","type":"transaction","entry":[{"fullUrl":"https://madie.cms.gov/Patient/13fc77fb-6db3-4c4d-ae11-2ee08ff9acde","resource":{"resourceType":"Patient","id":"13fc77fb-6db3-4c4d-ae11-2ee08ff9acde","meta":{"profile":["http://hl7.org/fhir/us/qicore/StructureDefinition/qicore-patient"]},"text":{"status":"generated","div":"<div xmlns=\"http://www.w3.org/1999/xhtml\"><div class=\"hapiHeaderText\">AssessPreTerm0RelDate46wk3DaysB4TimeOfDeliv <b>DENFAIL </b></div><table class=\"hapiPropertyTable\"><tbody><tr><td>Identifier</td><td>170a38ed2b827548e0441398231df0f76d8e6e9b3607e465a5af99e766749607</td></tr><tr><td>Date of birth</td><td><span>14 February 1985</span></td></tr></tbody></table></div>"},"extension":[{"url":"http://hl7.org/fhir/us/core/StructureDefinition/us-core-race","extension":[{"url":"ombCategory","valueCoding":{"system":"urn:oid:2.16.840.1.113883.6.238","code":"1002-5","display":"American Indian or Alaska Native","userSelected":true}},{"url":"text","valueString":"American Indian or Alaska Native"}]},{"url":"http://hl7.org/fhir/us/core/StructureDefinition/us-core-ethnicity","extension":[{"url":"ombCategory","valueCoding":{"system":"urn:oid:2.16.840.1.113883.6.238","code":"2135-2","display":"Hispanic or Latino","userSelected":true}},{"url":"text","valueString":"Hispanic or Latino"}]}],"identifier":[{"type":{"coding":[{"system":"http://terminology.hl7.org/CodeSystem/v2-0203","code":"MR"}]},"system":"https://bonnie-fhir.healthit.gov/","value":"63487c2d0968f80122540154"}],"active":true,"name":[{"use":"usual","family":"DENFail","given":["AssessPreTerm0RelDate46wk3DaysB4TimeOfDeliv"]}],"gender":"female","birthDate":"1997-02-14"},"request":{"method":"PUT","url":"Patient/13fc77fb-6db3-4c4d-ae11-2ee08ff9acde"}},{"fullUrl":"https://madie.cms.gov/Observation/5d014eb3b8484608723806e0","resource":{"resourceType":"Observation","id":"289aab44-2a6e-4119-bc59-6f912fee9ee2","meta":{"profile":["http://hl7.org/fhir/us/qicore/StructureDefinition/qicore-observation"]},"status":"final","category":[{"coding":[{"system":"http://terminology.hl7.org/CodeSystem/observation-category","code":"exam","display":"exam","userSelected":true}]}],"code":{"coding":[{"system":"http://loinc.org","code":"11637-6"}]},"subject":{"reference":"Patient/13fc77fb-6db3-4c4d-ae11-2ee08ff9acde"},"effectiveDateTime":"2024-08-18T20:00:00.000+00:00","valueInteger":0},"request":{"method":"PUT","url":"Observation/289aab44-2a6e-4119-bc59-6f912fee9ee2"}},{"fullUrl":"https://madie.cms.gov/Observation/5d014eb3b8484608723806e2","resource":{"resourceType":"Observation","id":"66942b0d-44e2-4607-aeae-3b540fc46d97","meta":{"profile":["http://hl7.org/fhir/us/qicore/StructureDefinition/qicore-observation"]},"status":"final","category":[{"coding":[{"system":"http://terminology.hl7.org/CodeSystem/observation-category","code":"exam","display":"exam","userSelected":true}]}],"code":{"coding":[{"system":"http://loinc.org","code":"11639-2"}]},"subject":{"reference":"Patient/13fc77fb-6db3-4c4d-ae11-2ee08ff9acde"},"effectiveDateTime":"2011-09-19T09:00:00.000+00:00","valueInteger":0},"request":{"method":"PUT","url":"Observation/66942b0d-44e2-4607-aeae-3b540fc46d97"}},{"fullUrl":"https://madie.cms.gov/Observation/5d014eb3b8484608723806e6","resource":{"resourceType":"Observation","id":"59c22516-5200-49e1-a1e8-ea2ce69b6b4d","meta":{"profile":["http://hl7.org/fhir/us/qicore/StructureDefinition/qicore-observation"]},"status":"final","category":[{"coding":[{"system":"http://terminology.hl7.org/CodeSystem/observation-category","code":"exam","display":"exam","userSelected":true}]}],"code":{"coding":[{"system":"http://loinc.org","code":"11884-4"}]},"subject":{"reference":"Patient/13fc77fb-6db3-4c4d-ae11-2ee08ff9acde"},"effectiveDateTime":"2025-06-08T20:00:00.000+00:00","valueQuantity":{"value":37.0,"system":"http://unitsofmeasure.org","code":"weeks"}},"request":{"method":"PUT","url":"Observation/59c22516-5200-49e1-a1e8-ea2ce69b6b4d"}},{"fullUrl":"https://madie.cms.gov/Observation/5e6967fa7ffec70000321857","resource":{"resourceType":"Observation","id":"52b597ac-b200-4473-9f2e-e897d890a261","meta":{"profile":["http://hl7.org/fhir/us/qicore/StructureDefinition/qicore-observation"]},"status":"final","category":[{"coding":[{"system":"http://terminology.hl7.org/CodeSystem/observation-category","code":"exam","display":"exam","userSelected":true}]}],"code":{"coding":[{"system":"http://loinc.org","code":"93857-1"}]},"subject":{"reference":"Patient/13fc77fb-6db3-4c4d-ae11-2ee08ff9acde"},"effectiveDateTime":"2025-06-08T20:00:00.000+00:00","valueDateTime":"2025-06-08T20:00:00+00:00"},"request":{"method":"PUT","url":"Observation/52b597ac-b200-4473-9f2e-e897d890a261"}},{"fullUrl":"https://madie.cms.gov/Encounter/5d014eb3b8484608723806de","resource":{"resourceType":"Encounter","id":"21bfcb24-6307-4f0b-80f7-13b07729deee","meta":{"profile":["http://hl7.org/fhir/us/qicore/StructureDefinition/qicore-encounter"]},"status":"finished","class":{"system":"http://terminology.hl7.org/CodeSystem/v3-ActCode","code":"IMP","display":"inpatient encounter"},"type":[{"coding":[{"system":"http://snomed.info/sct","code":"8715000"}]}],"subject":{"reference":"Patient/13fc77fb-6db3-4c4d-ae11-2ee08ff9acde"},"period":{"start":"2025-06-08T08:00:00.000Z","end":"2025-06-10T08:15:00.000Z"},"length":{"value":2.0,"unit":"days"},"diagnosis":[{"condition":{"reference":"Condition/delivery-of-singleton-f83c"},"use":{"coding":[{"system":"http://snomed.info/sct","code":"169826009","display":"Delivery of Singleton"}]}},{"condition":{"reference":"Condition/delivery-of-singleton-4b0f"}}]},"request":{"method":"PUT","url":"Encounter/21bfcb24-6307-4f0b-80f7-13b07729deee"}},{"fullUrl":"https://madie.cms.gov/Procedure/5d014eb3b8484608723806df","resource":{"resourceType":"Procedure","id":"206fd399-5124-4852-bbd5-cba0ba7ff73a","meta":{"profile":["http://hl7.org/fhir/us/qicore/StructureDefinition/qicore-procedure"]},"extension":[{"url":"http://hl7.org/fhir/us/qicore/StructureDefinition/qicore-recorded","valueDateTime":"2013-04-05T09:35:00-04:00"}],"status":"completed","code":{"coding":[{"system":"http://www.cms.gov/Medicare/Coding/ICD10","code":"10D00Z0"},{"system":"http://snomed.info/sct","code":"4504004"},{"system":"http://www.icd10data.com/icd10pcs","code":"10D00Z0","userSelected":true}]},"subject":{"reference":"Patient/13fc77fb-6db3-4c4d-ae11-2ee08ff9acde"},"performedPeriod":{"start":"2025-06-08T20:00:00.000Z","end":"2025-06-08T20:15:00.000Z"}},"request":{"method":"PUT","url":"Procedure/206fd399-5124-4852-bbd5-cba0ba7ff73a"}},{"fullUrl":"https://madie.cms.gov/Condition/delivery-of-singleton-4b0f","resource":{"resourceType":"Condition","id":"f06bff1a-1830-4166-9c65-4f373ba5cf96","meta":{"profile":["http://hl7.org/fhir/us/qicore/StructureDefinition/qicore-condition"]},"category":[{"coding":[{"system":"http://terminology.hl7.org/CodeSystem/condition-category","code":"encounter-diagnosis","display":"Encounter Diagnosis"}]}],"code":{"coding":[{"system":"http://snomed.info/sct","version":"2022-09","code":"169826009","display":"Single live birth (finding)","userSelected":true}]},"subject":{"reference":"Patient/13fc77fb-6db3-4c4d-ae11-2ee08ff9acde"},"recordedDate":"2025-10-21T08:00:00.000+00:00"},"request":{"method":"PUT","url":"Condition/f06bff1a-1830-4166-9c65-4f373ba5cf96"}},{"fullUrl":"https://madie.cms.gov/Coverage/1","resource":{"resourceType":"Coverage","id":"70a88021-3d8b-4d9a-a720-24b2a5dff90e","meta":{"profile":["http://hl7.org/fhir/us/qicore/StructureDefinition/qicore-coverage"]},"status":"active","beneficiary":{"reference":"Patient/13fc77fb-6db3-4c4d-ae11-2ee08ff9acde"},"payor":[{"reference":"Organization/4b5a882f-1f43-485c-85c6-f5ad2337d5b1"}]},"request":{"method":"PUT","url":"Coverage/70a88021-3d8b-4d9a-a720-24b2a5dff90e"}},{"fullUrl":"https://madie.cms.gov/Organization/123456","resource":{"resourceType":"Organization","id":"4b5a882f-1f43-485c-85c6-f5ad2337d5b1","meta":{"profile":["http://hl7.org/fhir/us/qicore/StructureDefinition/qicore-organization"]},"identifier":[{"use":"temp","system":"urn:oid:2.16.840.1.113883.4.4","value":"21-3259825"}],"active":true,"type":[{"coding":[{"system":"http://terminology.hl7.org/CodeSystem/organization-type","code":"pay","display":"Payer"}]}],"name":"Blue Cross Blue Shield of Texas","telecom":[{"system":"phone","value":"(+1) 972-766-6900"}],"address":[{"use":"billing","type":"postal","line":["P.O. Box 660044"],"city":"Dallas","state":"TX","postalCode":"75266-0044","country":"USA"}]},"request":{"method":"PUT","url":"Organization/4b5a882f-1f43-485c-85c6-f5ad2337d5b1"}},{"fullUrl":"https://madie.cms.gov/Practitioner/practitioner-123456","resource":{"resourceType":"Practitioner","id":"12639ee5-097c-44a1-a491-5e0b89f2f977","identifier":[{"system":"http://hl7.org/fhir/sid/us-npi","value":"123456"}],"name":[{"family":"Evil","prefix":["Dr"]}]},"request":{"method":"PUT","url":"Practitioner/12639ee5-097c-44a1-a491-5e0b89f2f977"}},{"fullUrl":"https://madie.cms.gov/MeasureReport/6487f967-80e7-493d-be45-f13ef90ab278","resource":{"resourceType":"MeasureReport","id":"6487f967-80e7-493d-be45-f13ef90ab278","meta":{"profile":["http://hl7.org/fhir/us/cqfmeasures/StructureDefinition/test-case-cqfm"]},"contained":[{"resourceType":"Parameters","id":"5de734ef-2154-4d2d-b1dc-ffd45cb2f59d-parameters","parameter":[{"name":"subject","valueString":"13fc77fb-6db3-4c4d-ae11-2ee08ff9acde"}]}],"extension":[{"url":"http://hl7.org/fhir/us/cqfmeasures/StructureDefinition/cqfm-inputParameters","valueReference":{"reference":"#5de734ef-2154-4d2d-b1dc-ffd45cb2f59d-parameters"}},{"url":"http://hl7.org/fhir/us/cqfmeasures/StructureDefinition/cqfm-testCaseDescription","valueMarkdown":"\"Preterm Births=0, RelDtTime > 42weeks prior to Asse delivery\nTerm Newborn=0, RelDtTime < 42weeks prior to Asse delivery and both conditions are needed to be true for DENOM to pass\"\n"}],"modifierExtension":[{"url":"http://hl7.org/fhir/us/cqfmeasures/StructureDefinition/cqfm-isTestCase","valueBoolean":true}],"status":"complete","type":"individual","measure":"https://madie.cms.gov/Measure/CesareanBirthFHIR","period":{"start":"2025-01-01","end":"2025-12-31"},"group":[{"population":[{"code":{"coding":[{"system":"http://terminology.hl7.org/CodeSystem/measure-population","code":"initial-population","display":"Initial Population"}]},"count":1},{"code":{"coding":[{"system":"http://terminology.hl7.org/CodeSystem/measure-population","code":"denominator","display":"Denominator"}]},"count":0},{"code":{"coding":[{"system":"http://terminology.hl7.org/CodeSystem/measure-population","code":"denominator-exclusion","display":"Denominator Exclusion"}]},"count":0},{"code":{"coding":[{"system":"http://terminology.hl7.org/CodeSystem/measure-population","code":"numerator","display":"Numerator"}]},"count":0}]}]},"request":{"method":"PUT","url":"MeasureReport/6487f967-80e7-493d-be45-f13ef90ab278"}}]}