{"resourceType":"Bundle","id":"tests-d5827ad0-6e0a-4e2c-b2f5-c8200ddd5f1f-bundle","type":"transaction","entry":[{"fullUrl":"https://madie.cms.gov/Patient/d5827ad0-6e0a-4e2c-b2f5-c8200ddd5f1f","resource":{"resourceType":"Patient","id":"d5827ad0-6e0a-4e2c-b2f5-c8200ddd5f1f","meta":{"profile":["http://hl7.org/fhir/us/qicore/StructureDefinition/qicore-patient"]},"text":{"status":"generated","div":"<div xmlns=\"http://www.w3.org/1999/xhtml\"><div class=\"hapiHeaderText\">AssessP0RelDtTimeGTTimeOfDeliv <b>DENFAIL </b></div><table class=\"hapiPropertyTable\"><tbody><tr><td>Identifier</td><td>e81d53306e1d072e364f4cb1fe55e687c8eb216973693a9d8d3b7a70bc8067a7</td></tr><tr><td>Date of birth</td><td><span>14 February 1985</span></td></tr></tbody></table></div>"},"extension":[{"url":"http://hl7.org/fhir/us/core/StructureDefinition/us-core-race","extension":[{"url":"ombCategory","valueCoding":{"system":"urn:oid:2.16.840.1.113883.6.238","code":"1002-5","display":"American Indian or Alaska Native","userSelected":true}},{"url":"text","valueString":"American Indian or Alaska Native"}]},{"url":"http://hl7.org/fhir/us/core/StructureDefinition/us-core-ethnicity","extension":[{"url":"ombCategory","valueCoding":{"system":"urn:oid:2.16.840.1.113883.6.238","code":"2135-2","display":"Hispanic or Latino","userSelected":true}},{"url":"text","valueString":"Hispanic or Latino"}]}],"identifier":[{"type":{"coding":[{"system":"http://terminology.hl7.org/CodeSystem/v2-0203","code":"MR"}]},"system":"https://bonnie-fhir.healthit.gov/","value":"63487c2e0968f80122540169"}],"active":true,"name":[{"use":"usual","family":"DENFail","given":["AssessP0RelDtTimeGTTimeOfDeliv"]}],"gender":"female","birthDate":"1997-02-14"},"request":{"method":"PUT","url":"Patient/d5827ad0-6e0a-4e2c-b2f5-c8200ddd5f1f"}},{"fullUrl":"https://madie.cms.gov/Observation/5d014eb2b848460872380624","resource":{"resourceType":"Observation","id":"2ca59d49-b2d0-4d36-9029-3f688b708c91","meta":{"profile":["http://hl7.org/fhir/us/qicore/StructureDefinition/qicore-observation"]},"status":"final","category":[{"coding":[{"system":"http://terminology.hl7.org/CodeSystem/observation-category","code":"exam","display":"exam","userSelected":true}]}],"code":{"coding":[{"system":"http://loinc.org","code":"11884-4"}]},"subject":{"reference":"Patient/d5827ad0-6e0a-4e2c-b2f5-c8200ddd5f1f"},"issued":"2025-06-08T20:00:00.000+00:00","valueQuantity":{"value":37.0,"system":"http://unitsofmeasure.org","code":"weeks"}},"request":{"method":"PUT","url":"Observation/2ca59d49-b2d0-4d36-9029-3f688b708c91"}},{"fullUrl":"https://madie.cms.gov/Observation/5d014eb2b848460872380626","resource":{"resourceType":"Observation","id":"bb49cf8c-a9a7-460b-af2f-6e43440c5857","meta":{"profile":["http://hl7.org/fhir/us/qicore/StructureDefinition/qicore-observation"]},"status":"final","category":[{"coding":[{"system":"http://terminology.hl7.org/CodeSystem/observation-category","code":"exam","display":"exam","userSelected":true}]}],"code":{"coding":[{"system":"http://loinc.org","code":"11977-6"}]},"subject":{"reference":"Patient/d5827ad0-6e0a-4e2c-b2f5-c8200ddd5f1f"},"effectiveDateTime":"2025-06-08T20:01:00.000+00:00","valueInteger":0},"request":{"method":"PUT","url":"Observation/bb49cf8c-a9a7-460b-af2f-6e43440c5857"}},{"fullUrl":"https://madie.cms.gov/Observation/5e6960c87ffec70000321017","resource":{"resourceType":"Observation","id":"9df86d34-a79a-443c-82c5-e6b9d161f063","meta":{"profile":["http://hl7.org/fhir/us/qicore/StructureDefinition/qicore-observation"]},"status":"final","category":[{"coding":[{"system":"http://terminology.hl7.org/CodeSystem/observation-category","code":"exam","display":"exam","userSelected":true}]}],"code":{"coding":[{"system":"http://loinc.org","code":"93857-1"}]},"subject":{"reference":"Patient/d5827ad0-6e0a-4e2c-b2f5-c8200ddd5f1f"},"effectiveDateTime":"2025-06-08T20:00:00.000+00:00","valueDateTime":"2025-06-08T20:00:00+00:00"},"request":{"method":"PUT","url":"Observation/9df86d34-a79a-443c-82c5-e6b9d161f063"}},{"fullUrl":"https://madie.cms.gov/Encounter/5d014eb2b848460872380621","resource":{"resourceType":"Encounter","id":"9bfbe879-7032-4542-bc6f-3a2830cc85e2","meta":{"profile":["http://hl7.org/fhir/us/qicore/StructureDefinition/qicore-encounter"]},"status":"finished","class":{"system":"http://terminology.hl7.org/CodeSystem/v3-ActCode","code":"IMP","display":"inpatient encounter"},"type":[{"coding":[{"system":"http://snomed.info/sct","code":"8715000"}]}],"subject":{"reference":"Patient/d5827ad0-6e0a-4e2c-b2f5-c8200ddd5f1f"},"period":{"start":"2025-06-08T08:00:00.000Z","end":"2025-06-10T08:15:00.000Z"},"length":{"value":2.0,"unit":"days"},"diagnosis":[{"condition":{"reference":"Condition/delivery-of-singleton-f83c"},"use":{"coding":[{"system":"http://snomed.info/sct","code":"169826009","display":"Delivery of Singleton"}]}},{"condition":{"reference":"Condition/delivery-of-singleton-4b0b"}}]},"request":{"method":"PUT","url":"Encounter/9bfbe879-7032-4542-bc6f-3a2830cc85e2"}},{"fullUrl":"https://madie.cms.gov/Procedure/5d014eb2b848460872380622","resource":{"resourceType":"Procedure","id":"3e38cc99-2238-48de-8075-e8efb70ccf55","meta":{"profile":["http://hl7.org/fhir/us/qicore/StructureDefinition/qicore-procedure"]},"extension":[{"url":"http://hl7.org/fhir/us/qicore/StructureDefinition/qicore-recorded","valueDateTime":"2013-04-05T09:35:00-04:00"}],"status":"completed","code":{"coding":[{"system":"http://www.cms.gov/Medicare/Coding/ICD10","code":"10D00Z0"},{"system":"http://snomed.info/sct","code":"4504004"},{"system":"http://www.icd10data.com/icd10pcs","code":"10D00Z0","userSelected":true}]},"subject":{"reference":"Patient/d5827ad0-6e0a-4e2c-b2f5-c8200ddd5f1f"},"performedPeriod":{"start":"2025-06-08T20:00:00.000Z","end":"2025-06-08T20:15:00.000Z"}},"request":{"method":"PUT","url":"Procedure/3e38cc99-2238-48de-8075-e8efb70ccf55"}},{"fullUrl":"https://madie.cms.gov/Condition/delivery-of-singleton-4b0b","resource":{"resourceType":"Condition","id":"c4e23c99-d61f-44c4-b2b5-499a33b9f66a","meta":{"profile":["http://hl7.org/fhir/us/qicore/StructureDefinition/qicore-condition"]},"category":[{"coding":[{"system":"http://terminology.hl7.org/CodeSystem/condition-category","code":"encounter-diagnosis","display":"Encounter Diagnosis"}]}],"code":{"coding":[{"system":"http://snomed.info/sct","version":"2022-09","code":"169826009","display":"Single live birth (finding)","userSelected":true}]},"subject":{"reference":"Patient/d5827ad0-6e0a-4e2c-b2f5-c8200ddd5f1f"},"recordedDate":"2025-10-21T08:00:00.000+00:00"},"request":{"method":"PUT","url":"Condition/c4e23c99-d61f-44c4-b2b5-499a33b9f66a"}},{"fullUrl":"https://madie.cms.gov/Coverage/1","resource":{"resourceType":"Coverage","id":"a3e5b731-748f-47e3-ab29-034ad27957db","meta":{"profile":["http://hl7.org/fhir/us/qicore/StructureDefinition/qicore-coverage"]},"status":"active","beneficiary":{"reference":"Patient/d5827ad0-6e0a-4e2c-b2f5-c8200ddd5f1f"},"payor":[{"reference":"Organization/4b5a882f-1f43-485c-85c6-f5ad2337d5b1"}]},"request":{"method":"PUT","url":"Coverage/a3e5b731-748f-47e3-ab29-034ad27957db"}},{"fullUrl":"https://madie.cms.gov/Organization/123456","resource":{"resourceType":"Organization","id":"4b5a882f-1f43-485c-85c6-f5ad2337d5b1","meta":{"profile":["http://hl7.org/fhir/us/qicore/StructureDefinition/qicore-organization"]},"identifier":[{"use":"temp","system":"urn:oid:2.16.840.1.113883.4.4","value":"21-3259825"}],"active":true,"type":[{"coding":[{"system":"http://terminology.hl7.org/CodeSystem/organization-type","code":"pay","display":"Payer"}]}],"name":"Blue Cross Blue Shield of Texas","telecom":[{"system":"phone","value":"(+1) 972-766-6900"}],"address":[{"use":"billing","type":"postal","line":["P.O. Box 660044"],"city":"Dallas","state":"TX","postalCode":"75266-0044","country":"USA"}]},"request":{"method":"PUT","url":"Organization/4b5a882f-1f43-485c-85c6-f5ad2337d5b1"}},{"fullUrl":"https://madie.cms.gov/Practitioner/practitioner-123456","resource":{"resourceType":"Practitioner","id":"28bce776-57ea-4cd4-bd62-97bd972a446c","identifier":[{"system":"http://hl7.org/fhir/sid/us-npi","value":"123456"}],"name":[{"family":"Evil","prefix":["Dr"]}]},"request":{"method":"PUT","url":"Practitioner/28bce776-57ea-4cd4-bd62-97bd972a446c"}},{"fullUrl":"https://madie.cms.gov/MeasureReport/b1278dbe-07f0-4a76-94da-a470677d809b","resource":{"resourceType":"MeasureReport","id":"b1278dbe-07f0-4a76-94da-a470677d809b","meta":{"profile":["http://hl7.org/fhir/us/cqfmeasures/StructureDefinition/test-case-cqfm"]},"contained":[{"resourceType":"Parameters","id":"8d5abfc9-3e9f-4fd7-935a-ea583f1cd5da-parameters","parameter":[{"name":"subject","valueString":"d5827ad0-6e0a-4e2c-b2f5-c8200ddd5f1f"}]}],"extension":[{"url":"http://hl7.org/fhir/us/cqfmeasures/StructureDefinition/cqfm-inputParameters","valueReference":{"reference":"#8d5abfc9-3e9f-4fd7-935a-ea583f1cd5da-parameters"}},{"url":"http://hl7.org/fhir/us/cqfmeasures/StructureDefinition/cqfm-testCaseDescription","valueMarkdown":"Parity=0, relevant date/time after delivery date and time\n"}],"modifierExtension":[{"url":"http://hl7.org/fhir/us/cqfmeasures/StructureDefinition/cqfm-isTestCase","valueBoolean":true}],"status":"complete","type":"individual","measure":"https://madie.cms.gov/Measure/CesareanBirthFHIR","period":{"start":"2025-01-01","end":"2025-12-31"},"group":[{"population":[{"code":{"coding":[{"system":"http://terminology.hl7.org/CodeSystem/measure-population","code":"initial-population","display":"Initial Population"}]},"count":1},{"code":{"coding":[{"system":"http://terminology.hl7.org/CodeSystem/measure-population","code":"denominator","display":"Denominator"}]},"count":0},{"code":{"coding":[{"system":"http://terminology.hl7.org/CodeSystem/measure-population","code":"denominator-exclusion","display":"Denominator Exclusion"}]},"count":0},{"code":{"coding":[{"system":"http://terminology.hl7.org/CodeSystem/measure-population","code":"numerator","display":"Numerator"}]},"count":0}]}]},"request":{"method":"PUT","url":"MeasureReport/b1278dbe-07f0-4a76-94da-a470677d809b"}}]}