{"resourceType":"Bundle","id":"tests-5bbc4c9f-8624-412e-bc07-74898e5f41ec-bundle","type":"transaction","entry":[{"fullUrl":"https://madie.cms.gov/Patient/5bbc4c9f-8624-412e-bc07-74898e5f41ec","resource":{"resourceType":"Patient","id":"5bbc4c9f-8624-412e-bc07-74898e5f41ec","meta":{"profile":["http://hl7.org/fhir/us/qicore/StructureDefinition/qicore-patient"]},"text":{"status":"generated","div":"<div xmlns=\"http://www.w3.org/1999/xhtml\"><div class=\"hapiHeaderText\">AssessPreTerm0RelDate42wksB4DelivDate <b>DENPASS </b></div><table class=\"hapiPropertyTable\"><tbody><tr><td>Identifier</td><td>ae2c858214ff9b1ffdc193923955b0f25c757408279ae2f0e7ea89ca980dbad8</td></tr><tr><td>Date of birth</td><td><span>14 February 1985</span></td></tr></tbody></table></div>"},"extension":[{"url":"http://hl7.org/fhir/us/core/StructureDefinition/us-core-race","extension":[{"url":"ombCategory","valueCoding":{"system":"urn:oid:2.16.840.1.113883.6.238","code":"1002-5","display":"American Indian or Alaska Native","userSelected":true}},{"url":"text","valueString":"American Indian or Alaska Native"}]},{"url":"http://hl7.org/fhir/us/core/StructureDefinition/us-core-ethnicity","extension":[{"url":"ombCategory","valueCoding":{"system":"urn:oid:2.16.840.1.113883.6.238","code":"2135-2","display":"Hispanic or Latino","userSelected":true}},{"url":"text","valueString":"Hispanic or Latino"}]}],"identifier":[{"type":{"coding":[{"system":"http://terminology.hl7.org/CodeSystem/v2-0203","code":"MR"}]},"system":"https://bonnie-fhir.healthit.gov/","value":"63487c2f0968f8012254018f"}],"active":true,"name":[{"use":"usual","family":"DENPass","given":["AssessPreTerm0RelPerStartTime42wksB4DelivDateTime"]}],"gender":"female","birthDate":"1997-02-14"},"request":{"method":"PUT","url":"Patient/5bbc4c9f-8624-412e-bc07-74898e5f41ec"}},{"fullUrl":"https://madie.cms.gov/Observation/5d014eb2b84846087238068e","resource":{"resourceType":"Observation","id":"03429c25-9bc7-48c1-8867-0297283eedbb","meta":{"profile":["http://hl7.org/fhir/us/qicore/StructureDefinition/qicore-observation"]},"status":"final","category":[{"coding":[{"system":"http://terminology.hl7.org/CodeSystem/observation-category","code":"exam","display":"exam","userSelected":true}]}],"code":{"coding":[{"system":"http://loinc.org","code":"11637-6"}]},"subject":{"reference":"Patient/5bbc4c9f-8624-412e-bc07-74898e5f41ec"},"effectivePeriod":{"start":"2024-08-19T20:00:00.000+00:00","end":"2024-08-19T20:00:00.000+00:00"},"valueInteger":0},"request":{"method":"PUT","url":"Observation/03429c25-9bc7-48c1-8867-0297283eedbb"}},{"fullUrl":"https://madie.cms.gov/Observation/5d014eb2b848460872380690","resource":{"resourceType":"Observation","id":"360ae5f7-f1bd-4e65-bac6-6d514cf1ad2d","meta":{"profile":["http://hl7.org/fhir/us/qicore/StructureDefinition/qicore-observation"]},"status":"final","category":[{"coding":[{"system":"http://terminology.hl7.org/CodeSystem/observation-category","code":"exam","display":"exam","userSelected":true}]}],"code":{"coding":[{"system":"http://loinc.org","code":"11639-2"}]},"subject":{"reference":"Patient/5bbc4c9f-8624-412e-bc07-74898e5f41ec"},"effectiveDateTime":"2024-09-19T09:00:00.000+00:00","valueInteger":0},"request":{"method":"PUT","url":"Observation/360ae5f7-f1bd-4e65-bac6-6d514cf1ad2d"}},{"fullUrl":"https://madie.cms.gov/Observation/5d014eb2b848460872380692","resource":{"resourceType":"Observation","id":"a50c2e40-ea01-4bf5-ade4-1c480a1201f6","meta":{"profile":["http://hl7.org/fhir/us/qicore/StructureDefinition/qicore-observation"]},"status":"final","category":[{"coding":[{"system":"http://terminology.hl7.org/CodeSystem/observation-category","code":"exam","display":"exam","userSelected":true}]}],"code":{"coding":[{"system":"http://loinc.org","code":"11884-4"}]},"subject":{"reference":"Patient/5bbc4c9f-8624-412e-bc07-74898e5f41ec"},"effectiveDateTime":"2025-06-08T20:00:00.000+00:00","valueQuantity":{"value":37.0,"system":"http://unitsofmeasure.org","code":"weeks"}},"request":{"method":"PUT","url":"Observation/a50c2e40-ea01-4bf5-ade4-1c480a1201f6"}},{"fullUrl":"https://madie.cms.gov/Observation/5e68edb759d82f0000c96480","resource":{"resourceType":"Observation","id":"788e1f48-ee84-48d9-a2e1-9e50ae783ee2","meta":{"profile":["http://hl7.org/fhir/us/qicore/StructureDefinition/qicore-observation"]},"status":"final","category":[{"coding":[{"system":"http://terminology.hl7.org/CodeSystem/observation-category","code":"exam","display":"exam","userSelected":true}]}],"code":{"coding":[{"system":"http://loinc.org","code":"93857-1"}]},"subject":{"reference":"Patient/5bbc4c9f-8624-412e-bc07-74898e5f41ec"},"effectiveDateTime":"2025-06-08T20:00:00.000+00:00","valueDateTime":"2025-06-08T20:00:00+00:00"},"request":{"method":"PUT","url":"Observation/788e1f48-ee84-48d9-a2e1-9e50ae783ee2"}},{"fullUrl":"https://madie.cms.gov/Encounter/5d014eb2b84846087238068c","resource":{"resourceType":"Encounter","id":"01caa9a5-88c5-447d-96b7-dee91d0720a5","meta":{"profile":["http://hl7.org/fhir/us/qicore/StructureDefinition/qicore-encounter"]},"status":"finished","class":{"system":"http://terminology.hl7.org/CodeSystem/v3-ActCode","code":"IMP","display":"inpatient encounter"},"type":[{"coding":[{"system":"http://snomed.info/sct","code":"8715000"}]}],"subject":{"reference":"Patient/5bbc4c9f-8624-412e-bc07-74898e5f41ec"},"period":{"start":"2025-06-08T08:00:00.000Z","end":"2025-06-10T08:15:00.000Z"},"length":{"value":2.0,"unit":"days"},"diagnosis":[{"condition":{"reference":"Condition/delivery-of-singleton-f83c"},"use":{"coding":[{"system":"http://snomed.info/sct","code":"169826009","display":"Delivery of Singleton"}]}},{"condition":{"reference":"Condition/delivery-of-singleton-947a"}}]},"request":{"method":"PUT","url":"Encounter/01caa9a5-88c5-447d-96b7-dee91d0720a5"}},{"fullUrl":"https://madie.cms.gov/Procedure/5d014eb2b84846087238068d","resource":{"resourceType":"Procedure","id":"c14697c2-d320-4863-b1fc-448400d8d69a","meta":{"profile":["http://hl7.org/fhir/us/qicore/StructureDefinition/qicore-procedure"]},"extension":[{"url":"http://hl7.org/fhir/us/qicore/StructureDefinition/qicore-recorded","valueDateTime":"2013-04-05T09:35:00-04:00"}],"status":"completed","code":{"coding":[{"system":"http://www.cms.gov/Medicare/Coding/ICD10","code":"10D00Z0"},{"system":"http://snomed.info/sct","code":"4504004"},{"system":"http://www.icd10data.com/icd10pcs","code":"10D00Z1","userSelected":true}]},"subject":{"reference":"Patient/5bbc4c9f-8624-412e-bc07-74898e5f41ec"},"performedPeriod":{"start":"2025-06-08T20:00:00.000Z","end":"2025-06-08T20:15:00.000Z"}},"request":{"method":"PUT","url":"Procedure/c14697c2-d320-4863-b1fc-448400d8d69a"}},{"fullUrl":"https://madie.cms.gov/Condition/delivery-of-singleton-947a","resource":{"resourceType":"Condition","id":"4a1cc8c2-7bcc-4895-bf5c-98f8bb06c9c8","meta":{"profile":["http://hl7.org/fhir/us/qicore/StructureDefinition/qicore-condition"]},"category":[{"coding":[{"system":"http://terminology.hl7.org/CodeSystem/condition-category","code":"encounter-diagnosis","display":"Encounter Diagnosis"}]}],"code":{"coding":[{"system":"http://snomed.info/sct","version":"2022-09","code":"169826009","display":"Single live birth (finding)","userSelected":true}]},"subject":{"reference":"Patient/5bbc4c9f-8624-412e-bc07-74898e5f41ec"},"recordedDate":"2025-10-20T08:00:00.000+00:00"},"request":{"method":"PUT","url":"Condition/4a1cc8c2-7bcc-4895-bf5c-98f8bb06c9c8"}},{"fullUrl":"https://madie.cms.gov/Coverage/1","resource":{"resourceType":"Coverage","id":"cd2a01dd-5ff3-4253-83fe-c2d64d955b10","meta":{"profile":["http://hl7.org/fhir/us/qicore/StructureDefinition/qicore-coverage"]},"status":"active","beneficiary":{"reference":"Patient/5bbc4c9f-8624-412e-bc07-74898e5f41ec"},"payor":[{"reference":"Organization/4b5a882f-1f43-485c-85c6-f5ad2337d5b1"}]},"request":{"method":"PUT","url":"Coverage/cd2a01dd-5ff3-4253-83fe-c2d64d955b10"}},{"fullUrl":"https://madie.cms.gov/Organization/123456","resource":{"resourceType":"Organization","id":"4b5a882f-1f43-485c-85c6-f5ad2337d5b1","meta":{"profile":["http://hl7.org/fhir/us/qicore/StructureDefinition/qicore-organization"]},"identifier":[{"use":"temp","system":"urn:oid:2.16.840.1.113883.4.4","value":"21-3259825"}],"active":true,"type":[{"coding":[{"system":"http://terminology.hl7.org/CodeSystem/organization-type","code":"pay","display":"Payer"}]}],"name":"Blue Cross Blue Shield of Texas","telecom":[{"system":"phone","value":"(+1) 972-766-6900"}],"address":[{"use":"billing","type":"postal","line":["P.O. Box 660044"],"city":"Dallas","state":"TX","postalCode":"75266-0044","country":"USA"}]},"request":{"method":"PUT","url":"Organization/4b5a882f-1f43-485c-85c6-f5ad2337d5b1"}},{"fullUrl":"https://madie.cms.gov/Practitioner/practitioner-123456","resource":{"resourceType":"Practitioner","id":"79931325-9711-4d5b-a71a-e5e582c39149","identifier":[{"system":"http://hl7.org/fhir/sid/us-npi","value":"123456"}],"name":[{"family":"Evil","prefix":["Dr"]}]},"request":{"method":"PUT","url":"Practitioner/79931325-9711-4d5b-a71a-e5e582c39149"}},{"fullUrl":"https://madie.cms.gov/MeasureReport/49bfa0e5-a0db-44c6-988e-03be37eadcd6","resource":{"resourceType":"MeasureReport","id":"49bfa0e5-a0db-44c6-988e-03be37eadcd6","meta":{"profile":["http://hl7.org/fhir/us/cqfmeasures/StructureDefinition/test-case-cqfm"]},"contained":[{"resourceType":"Parameters","id":"d3614f28-8912-43cc-8aff-402c12ca572c-parameters","parameter":[{"name":"subject","valueString":"5bbc4c9f-8624-412e-bc07-74898e5f41ec"}]}],"extension":[{"url":"http://hl7.org/fhir/us/cqfmeasures/StructureDefinition/cqfm-inputParameters","valueReference":{"reference":"#d3614f28-8912-43cc-8aff-402c12ca572c-parameters"}},{"url":"http://hl7.org/fhir/us/cqfmeasures/StructureDefinition/cqfm-testCaseDescription","valueMarkdown":"Testing relevant period start time for Assess PreTerm\n"}],"modifierExtension":[{"url":"http://hl7.org/fhir/us/cqfmeasures/StructureDefinition/cqfm-isTestCase","valueBoolean":true}],"status":"complete","type":"individual","measure":"https://madie.cms.gov/Measure/CesareanBirthFHIR","period":{"start":"2025-01-01","end":"2025-12-31"},"group":[{"population":[{"code":{"coding":[{"system":"http://terminology.hl7.org/CodeSystem/measure-population","code":"initial-population","display":"Initial Population"}]},"count":1},{"code":{"coding":[{"system":"http://terminology.hl7.org/CodeSystem/measure-population","code":"denominator","display":"Denominator"}]},"count":1},{"code":{"coding":[{"system":"http://terminology.hl7.org/CodeSystem/measure-population","code":"denominator-exclusion","display":"Denominator Exclusion"}]},"count":0},{"code":{"coding":[{"system":"http://terminology.hl7.org/CodeSystem/measure-population","code":"numerator","display":"Numerator"}]},"count":1}]}]},"request":{"method":"PUT","url":"MeasureReport/49bfa0e5-a0db-44c6-988e-03be37eadcd6"}}]}