{"resourceType":"Bundle","id":"tests-ef3e4256-a321-4ce0-812b-ec7e7158085a-bundle","type":"transaction","entry":[{"fullUrl":"https://madie.cms.gov/Patient/ef3e4256-a321-4ce0-812b-ec7e7158085a","resource":{"resourceType":"Patient","id":"ef3e4256-a321-4ce0-812b-ec7e7158085a","meta":{"profile":["http://hl7.org/fhir/us/qicore/StructureDefinition/qicore-patient"]},"text":{"status":"generated","div":"<div xmlns=\"http://www.w3.org/1999/xhtml\"><div class=\"hapiHeaderText\">EGAGT37weeks <b>DENPASS </b></div><table class=\"hapiPropertyTable\"><tbody><tr><td>Identifier</td><td>3d63596528a6709b3c477184d2beceba721ef15e438ac396acce60f49e6f846c</td></tr><tr><td>Date of birth</td><td><span>14 February 1985</span></td></tr></tbody></table></div>"},"extension":[{"url":"http://hl7.org/fhir/us/core/StructureDefinition/us-core-race","extension":[{"url":"ombCategory","valueCoding":{"system":"urn:oid:2.16.840.1.113883.6.238","code":"1002-5","display":"American Indian or Alaska Native","userSelected":true}},{"url":"text","valueString":"American Indian or Alaska Native"}]},{"url":"http://hl7.org/fhir/us/core/StructureDefinition/us-core-ethnicity","extension":[{"url":"ombCategory","valueCoding":{"system":"urn:oid:2.16.840.1.113883.6.238","code":"2135-2","display":"Hispanic or Latino","userSelected":true}},{"url":"text","valueString":"Hispanic or Latino"}]}],"identifier":[{"type":{"coding":[{"system":"http://terminology.hl7.org/CodeSystem/v2-0203","code":"MR"}]},"system":"https://bonnie-fhir.healthit.gov/","value":"63487c2e0968f8012254016f"}],"active":true,"name":[{"use":"usual","family":"DENPass","given":["EGAGT37weeks "]}],"gender":"female","birthDate":"1997-02-14"},"request":{"method":"PUT","url":"Patient/ef3e4256-a321-4ce0-812b-ec7e7158085a"}},{"fullUrl":"https://madie.cms.gov/Observation/5d014eb2b848460872380595","resource":{"resourceType":"Observation","id":"9cc03914-82ab-4318-935a-668b68ab7ab6","meta":{"profile":["http://hl7.org/fhir/us/qicore/StructureDefinition/qicore-observation"]},"status":"final","category":[{"coding":[{"system":"http://terminology.hl7.org/CodeSystem/observation-category","code":"exam","display":"exam","userSelected":true}]}],"code":{"coding":[{"system":"http://loinc.org","code":"11996-6"}]},"subject":{"reference":"Patient/ef3e4256-a321-4ce0-812b-ec7e7158085a"},"effectiveDateTime":"2025-06-08T08:00:00.000+00:00","valueInteger":1},"request":{"method":"PUT","url":"Observation/9cc03914-82ab-4318-935a-668b68ab7ab6"}},{"fullUrl":"https://madie.cms.gov/Observation/5d014eb2b848460872380597","resource":{"resourceType":"Observation","id":"116c80bc-7f87-4368-abd1-0f9b9a85e8ce","meta":{"profile":["http://hl7.org/fhir/us/qicore/StructureDefinition/qicore-observation"]},"status":"final","category":[{"coding":[{"system":"http://terminology.hl7.org/CodeSystem/observation-category","code":"exam","display":"exam","userSelected":true}]}],"code":{"coding":[{"system":"http://loinc.org","code":"11884-4"}]},"subject":{"reference":"Patient/ef3e4256-a321-4ce0-812b-ec7e7158085a"},"effectiveDateTime":"2025-06-08T09:15:00.000+00:00","valueQuantity":{"value":38.0,"system":"http://unitsofmeasure.org","code":"weeks"}},"request":{"method":"PUT","url":"Observation/116c80bc-7f87-4368-abd1-0f9b9a85e8ce"}},{"fullUrl":"https://madie.cms.gov/Observation/5e6938d87ffec7000031eaa0","resource":{"resourceType":"Observation","id":"476955ed-4ac4-4109-980d-ac4dcc51fb5e","meta":{"profile":["http://hl7.org/fhir/us/qicore/StructureDefinition/qicore-observation"]},"status":"final","category":[{"coding":[{"system":"http://terminology.hl7.org/CodeSystem/observation-category","code":"exam","display":"exam","userSelected":true}]}],"code":{"coding":[{"system":"http://loinc.org","code":"93857-1"}]},"subject":{"reference":"Patient/ef3e4256-a321-4ce0-812b-ec7e7158085a"},"effectiveDateTime":"2025-06-08T09:15:00.000+00:00","valueDateTime":"2025-06-08T09:15:00+00:00"},"request":{"method":"PUT","url":"Observation/476955ed-4ac4-4109-980d-ac4dcc51fb5e"}},{"fullUrl":"https://madie.cms.gov/Encounter/5d014eb2b848460872380593","resource":{"resourceType":"Encounter","id":"0f4a5e81-bb4d-46ba-9019-1cd37f8f6080","meta":{"profile":["http://hl7.org/fhir/us/qicore/StructureDefinition/qicore-encounter"]},"status":"finished","class":{"system":"http://terminology.hl7.org/CodeSystem/v3-ActCode","code":"IMP","display":"inpatient encounter"},"type":[{"coding":[{"system":"http://snomed.info/sct","code":"183452005"}]}],"subject":{"reference":"Patient/ef3e4256-a321-4ce0-812b-ec7e7158085a"},"period":{"start":"2025-06-08T08:00:00.000Z","end":"2025-06-10T08:15:00.000Z"},"length":{"value":2.0,"unit":"days"},"diagnosis":[{"condition":{"reference":"Condition/delivery-of-singleton-f83c"},"use":{"coding":[{"system":"http://snomed.info/sct","code":"169826009","display":"Delivery of Singleton"}]}},{"condition":{"reference":"Condition/abnormal-presentation-9a7c"},"use":{"coding":[{"system":"http://snomed.info/sct","code":"18559007","display":"Frank breech presentation (finding)"}]}},{"condition":{"reference":"Condition/delivery-of-singleton-7771"}},{"condition":{"reference":"Condition/abnormal-presentation-9a7c"}}]},"request":{"method":"PUT","url":"Encounter/0f4a5e81-bb4d-46ba-9019-1cd37f8f6080"}},{"fullUrl":"https://madie.cms.gov/Coverage/5f5f9e491c76ba674bb032ec","resource":{"resourceType":"Coverage","id":"a56058c9-82db-48de-965e-eea827bd697f","status":"active","beneficiary":{"reference":"Patient/ef3e4256-a321-4ce0-812b-ec7e7158085a"},"period":{"start":"1985-02-14T08:00:00.000Z"},"payor":[{"reference":"Organization/4b5a882f-1f43-485c-85c6-f5ad2337d5b1"}]},"request":{"method":"PUT","url":"Coverage/a56058c9-82db-48de-965e-eea827bd697f"}},{"fullUrl":"https://madie.cms.gov/Procedure/5d014eb2b848460872380594","resource":{"resourceType":"Procedure","id":"ad2cb4ca-8996-4723-9258-6fa49fbbe707","meta":{"profile":["http://hl7.org/fhir/us/qicore/StructureDefinition/qicore-procedure"]},"extension":[{"url":"http://hl7.org/fhir/us/qicore/StructureDefinition/qicore-recorded","valueDateTime":"2013-04-05T09:35:00-04:00"}],"status":"completed","code":{"coding":[{"system":"http://www.cms.gov/Medicare/Coding/ICD10","code":"10D00Z0"},{"system":"http://www.icd10data.com/icd10pcs","code":"10D07Z3","userSelected":true}]},"subject":{"reference":"Patient/ef3e4256-a321-4ce0-812b-ec7e7158085a"},"performedPeriod":{"start":"2025-06-08T08:00:00.000Z","end":"2025-06-08T09:15:00.000Z"}},"request":{"method":"PUT","url":"Procedure/ad2cb4ca-8996-4723-9258-6fa49fbbe707"}},{"fullUrl":"https://madie.cms.gov/Condition/delivery-of-singleton-7771","resource":{"resourceType":"Condition","id":"69fae0fa-c1e8-40fa-8009-a3e71289425a","meta":{"profile":["http://hl7.org/fhir/us/qicore/StructureDefinition/qicore-condition"]},"category":[{"coding":[{"system":"http://terminology.hl7.org/CodeSystem/condition-category","code":"encounter-diagnosis","display":"Encounter Diagnosis"}]}],"code":{"coding":[{"system":"http://snomed.info/sct","version":"2022-09","code":"169826009","display":"Single live birth (finding)","userSelected":true}]},"subject":{"reference":"Patient/ef3e4256-a321-4ce0-812b-ec7e7158085a"},"recordedDate":"2025-10-20T08:00:00.000+00:00"},"request":{"method":"PUT","url":"Condition/69fae0fa-c1e8-40fa-8009-a3e71289425a"}},{"fullUrl":"https://madie.cms.gov/Condition/abnormal-presentation-9a7c","resource":{"resourceType":"Condition","id":"d459db71-d632-4ce2-ae94-544c6c297b8a","meta":{"profile":["http://hl7.org/fhir/us/qicore/StructureDefinition/qicore-condition"]},"category":[{"coding":[{"system":"http://terminology.hl7.org/CodeSystem/condition-category","code":"encounter-diagnosis","display":"Encounter Diagnosis"}]}],"code":{"coding":[{"system":"http://snomed.info/sct","version":"2022-09","code":"18559007","display":"Frank breech presentation (finding)","userSelected":true}]},"subject":{"reference":"Patient/ef3e4256-a321-4ce0-812b-ec7e7158085a"},"recordedDate":"2025-10-21T08:00:00.000+00:00"},"request":{"method":"PUT","url":"Condition/d459db71-d632-4ce2-ae94-544c6c297b8a"}},{"fullUrl":"https://madie.cms.gov/Organization/123456","resource":{"resourceType":"Organization","id":"4b5a882f-1f43-485c-85c6-f5ad2337d5b1","meta":{"profile":["http://hl7.org/fhir/us/qicore/StructureDefinition/qicore-organization"]},"identifier":[{"use":"temp","system":"urn:oid:2.16.840.1.113883.4.4","value":"21-3259825"}],"active":true,"type":[{"coding":[{"system":"http://terminology.hl7.org/CodeSystem/organization-type","code":"pay","display":"Payer"}]}],"name":"Blue Cross Blue Shield of Texas","telecom":[{"system":"phone","value":"(+1) 972-766-6900"}],"address":[{"use":"billing","type":"postal","line":["P.O. Box 660044"],"city":"Dallas","state":"TX","postalCode":"75266-0044","country":"USA"}]},"request":{"method":"PUT","url":"Organization/4b5a882f-1f43-485c-85c6-f5ad2337d5b1"}},{"fullUrl":"https://madie.cms.gov/Practitioner/practitioner-123456","resource":{"resourceType":"Practitioner","id":"92d4af9d-371d-4a39-926d-688a3966e504","identifier":[{"system":"http://hl7.org/fhir/sid/us-npi","value":"123456"}],"name":[{"family":"Evil","prefix":["Dr"]}]},"request":{"method":"PUT","url":"Practitioner/92d4af9d-371d-4a39-926d-688a3966e504"}},{"fullUrl":"https://madie.cms.gov/MeasureReport/e9fafa20-d9b6-4539-a3ae-a1789f0131d4","resource":{"resourceType":"MeasureReport","id":"e9fafa20-d9b6-4539-a3ae-a1789f0131d4","meta":{"profile":["http://hl7.org/fhir/us/cqfmeasures/StructureDefinition/test-case-cqfm"]},"contained":[{"resourceType":"Parameters","id":"28cd4dd8-adcf-47e4-b0c1-dd74c431b475-parameters","parameter":[{"name":"subject","valueString":"ef3e4256-a321-4ce0-812b-ec7e7158085a"}]}],"extension":[{"url":"http://hl7.org/fhir/us/cqfmeasures/StructureDefinition/cqfm-inputParameters","valueReference":{"reference":"#28cd4dd8-adcf-47e4-b0c1-dd74c431b475-parameters"}},{"url":"http://hl7.org/fhir/us/cqfmeasures/StructureDefinition/cqfm-testCaseDescription","valueMarkdown":"Passes: IP, Pt is 27 years of age,  encounter dx of delivery of singleton, gravida1, EGA38 weeks\n"}],"modifierExtension":[{"url":"http://hl7.org/fhir/us/cqfmeasures/StructureDefinition/cqfm-isTestCase","valueBoolean":true}],"status":"complete","type":"individual","measure":"https://madie.cms.gov/Measure/CesareanBirthFHIR","period":{"start":"2025-01-01","end":"2025-12-31"},"group":[{"population":[{"code":{"coding":[{"system":"http://terminology.hl7.org/CodeSystem/measure-population","code":"initial-population","display":"Initial Population"}]},"count":1},{"code":{"coding":[{"system":"http://terminology.hl7.org/CodeSystem/measure-population","code":"denominator","display":"Denominator"}]},"count":1},{"code":{"coding":[{"system":"http://terminology.hl7.org/CodeSystem/measure-population","code":"denominator-exclusion","display":"Denominator Exclusion"}]},"count":1},{"code":{"coding":[{"system":"http://terminology.hl7.org/CodeSystem/measure-population","code":"numerator","display":"Numerator"}]},"count":0}]}]},"request":{"method":"PUT","url":"MeasureReport/e9fafa20-d9b6-4539-a3ae-a1789f0131d4"}}]}