{"resourceType":"Bundle","id":"tests-7ed48b89-cb57-45f9-ba16-24d85d09215c-bundle","type":"transaction","entry":[{"fullUrl":"https://madie.cms.gov/Patient/7ed48b89-cb57-45f9-ba16-24d85d09215c","resource":{"resourceType":"Patient","id":"7ed48b89-cb57-45f9-ba16-24d85d09215c","meta":{"profile":["http://hl7.org/fhir/us/qicore/StructureDefinition/qicore-patient"]},"text":{"status":"generated","div":"<div xmlns=\"http://www.w3.org/1999/xhtml\"><div class=\"hapiHeaderText\">ProcNotCesareanBirth <b>NUMFAIL </b></div><table class=\"hapiPropertyTable\"><tbody><tr><td>Identifier</td><td>71189d70ba3427612f2a418107466ed1652ec9a0e76c1b9c30a1691a1d91b34c</td></tr><tr><td>Date of birth</td><td><span>14 February 1985</span></td></tr></tbody></table></div>"},"extension":[{"url":"http://hl7.org/fhir/us/core/StructureDefinition/us-core-race","extension":[{"url":"ombCategory","valueCoding":{"system":"urn:oid:2.16.840.1.113883.6.238","code":"1002-5","display":"American Indian or Alaska Native","userSelected":true}},{"url":"text","valueString":"American Indian or Alaska Native"}]},{"url":"http://hl7.org/fhir/us/core/StructureDefinition/us-core-ethnicity","extension":[{"url":"ombCategory","valueCoding":{"system":"urn:oid:2.16.840.1.113883.6.238","code":"2135-2","display":"Hispanic or Latino","userSelected":true}},{"url":"text","valueString":"Hispanic or Latino"}]}],"identifier":[{"type":{"coding":[{"system":"http://terminology.hl7.org/CodeSystem/v2-0203","code":"MR"}]},"system":"https://bonnie-fhir.healthit.gov/","value":"63487c2d0968f80122540163"}],"active":true,"name":[{"use":"usual","family":"NUMFail","given":["ProcNotCesareanBirth"]}],"gender":"female","birthDate":"1997-02-14"},"request":{"method":"PUT","url":"Patient/7ed48b89-cb57-45f9-ba16-24d85d09215c"}},{"fullUrl":"https://madie.cms.gov/Observation/5d014eb1b848460872380537","resource":{"resourceType":"Observation","id":"1e91ce09-9206-488d-a01d-b508a96de291","meta":{"profile":["http://hl7.org/fhir/us/qicore/StructureDefinition/qicore-observation"]},"status":"final","category":[{"coding":[{"system":"http://terminology.hl7.org/CodeSystem/observation-category","code":"exam","display":"exam","userSelected":true}]}],"code":{"coding":[{"system":"http://loinc.org","code":"11996-6"}]},"subject":{"reference":"Patient/7ed48b89-cb57-45f9-ba16-24d85d09215c"},"effectiveDateTime":"2025-02-09T08:00:00.000+00:00","valueInteger":1},"request":{"method":"PUT","url":"Observation/1e91ce09-9206-488d-a01d-b508a96de291"}},{"fullUrl":"https://madie.cms.gov/Observation/5d014eb1b848460872380539","resource":{"resourceType":"Observation","id":"757d8df2-f542-44dd-8cfd-c6d8540289d3","meta":{"profile":["http://hl7.org/fhir/us/qicore/StructureDefinition/qicore-observation"]},"status":"final","category":[{"coding":[{"system":"http://terminology.hl7.org/CodeSystem/observation-category","code":"exam","display":"exam","userSelected":true}]}],"code":{"coding":[{"system":"http://loinc.org","code":"11884-4"}]},"subject":{"reference":"Patient/7ed48b89-cb57-45f9-ba16-24d85d09215c"},"effectiveDateTime":"2025-11-28T21:15:00.000+00:00","valueQuantity":{"value":40.0,"system":"http://unitsofmeasure.org","code":"weeks"}},"request":{"method":"PUT","url":"Observation/757d8df2-f542-44dd-8cfd-c6d8540289d3"}},{"fullUrl":"https://madie.cms.gov/Observation/5e693e147ffec7000031f2d2","resource":{"resourceType":"Observation","id":"edfa67be-01ac-4708-a430-dde69a5e26e4","meta":{"profile":["http://hl7.org/fhir/us/qicore/StructureDefinition/qicore-observation"]},"status":"final","category":[{"coding":[{"system":"http://terminology.hl7.org/CodeSystem/observation-category","code":"exam","display":"exam","userSelected":true}]}],"code":{"coding":[{"system":"http://loinc.org","code":"93857-1"}]},"subject":{"reference":"Patient/7ed48b89-cb57-45f9-ba16-24d85d09215c"},"effectiveDateTime":"2025-11-28T21:15:00.000+00:00","valueDateTime":"2025-11-28T21:15:00+00:00"},"request":{"method":"PUT","url":"Observation/edfa67be-01ac-4708-a430-dde69a5e26e4"}},{"fullUrl":"https://madie.cms.gov/Encounter/5d014eb1b848460872380535","resource":{"resourceType":"Encounter","id":"4eba19d6-4b43-4574-ad67-88b214bc5263","meta":{"profile":["http://hl7.org/fhir/us/qicore/StructureDefinition/qicore-encounter"]},"status":"finished","class":{"system":"http://terminology.hl7.org/CodeSystem/v3-ActCode","code":"IMP","display":"inpatient encounter"},"type":[{"coding":[{"system":"http://snomed.info/sct","code":"183452005"}]}],"subject":{"reference":"Patient/7ed48b89-cb57-45f9-ba16-24d85d09215c"},"period":{"start":"2025-11-28T08:00:00.000Z","end":"2025-11-30T08:15:00.000Z"},"diagnosis":[{"condition":{"reference":"Condition/delivery-of-singleton-df72"},"use":{"coding":[{"system":"http://snomed.info/sct","code":"169826009","display":"Delivery of Singleton"}]}}]},"request":{"method":"PUT","url":"Encounter/4eba19d6-4b43-4574-ad67-88b214bc5263"}},{"fullUrl":"https://madie.cms.gov/Procedure/5d014eb1b848460872380536","resource":{"resourceType":"Procedure","id":"69f0dfba-9384-4d6b-a1e2-31dddf3cbdd0","meta":{"profile":["http://hl7.org/fhir/us/qicore/StructureDefinition/qicore-procedure"]},"extension":[{"url":"http://hl7.org/fhir/us/qicore/StructureDefinition/qicore-recorded","valueDateTime":"2013-04-05T09:35:00-04:00"}],"status":"completed","code":{"coding":[{"system":"http://www.cms.gov/Medicare/Coding/ICD10","code":"10D07Z3"},{"system":"http://www.icd10data.com/icd10pcs","code":"10D07Z3","userSelected":true}]},"subject":{"reference":"Patient/7ed48b89-cb57-45f9-ba16-24d85d09215c"},"performedPeriod":{"start":"2025-11-28T20:00:00.000Z","end":"2025-11-28T20:15:00.000Z"}},"request":{"method":"PUT","url":"Procedure/69f0dfba-9384-4d6b-a1e2-31dddf3cbdd0"}},{"fullUrl":"https://madie.cms.gov/Condition/delivery-of-singleton-df72","resource":{"resourceType":"Condition","id":"f81c872f-a56c-40b2-b23b-306141147f13","meta":{"profile":["http://hl7.org/fhir/us/qicore/StructureDefinition/qicore-condition"]},"category":[{"coding":[{"system":"http://terminology.hl7.org/CodeSystem/condition-category","code":"encounter-diagnosis","display":"Encounter Diagnosis"}]}],"code":{"coding":[{"system":"http://snomed.info/sct","code":"169826009","display":"Single live birth (finding)"}]},"subject":{"reference":"Patient/7ed48b89-cb57-45f9-ba16-24d85d09215c"},"recordedDate":"2025-10-17T08:00:00.000+00:00"},"request":{"method":"PUT","url":"Condition/f81c872f-a56c-40b2-b23b-306141147f13"}},{"fullUrl":"https://madie.cms.gov/Coverage/1","resource":{"resourceType":"Coverage","id":"41b9bdae-531f-4e25-8ddf-935606db0ffb","meta":{"profile":["http://hl7.org/fhir/us/qicore/StructureDefinition/qicore-coverage"]},"status":"active","beneficiary":{"reference":"Patient/7ed48b89-cb57-45f9-ba16-24d85d09215c"},"payor":[{"reference":"Organization/4b5a882f-1f43-485c-85c6-f5ad2337d5b1"}]},"request":{"method":"PUT","url":"Coverage/41b9bdae-531f-4e25-8ddf-935606db0ffb"}},{"fullUrl":"https://madie.cms.gov/Organization/123456","resource":{"resourceType":"Organization","id":"4b5a882f-1f43-485c-85c6-f5ad2337d5b1","meta":{"profile":["http://hl7.org/fhir/us/qicore/StructureDefinition/qicore-organization"]},"identifier":[{"use":"temp","system":"urn:oid:2.16.840.1.113883.4.4","value":"21-3259825"}],"active":true,"type":[{"coding":[{"system":"http://terminology.hl7.org/CodeSystem/organization-type","code":"pay","display":"Payer"}]}],"name":"Blue Cross Blue Shield of Texas","telecom":[{"system":"phone","value":"(+1) 972-766-6900"}],"address":[{"use":"billing","type":"postal","line":["P.O. Box 660044"],"city":"Dallas","state":"TX","postalCode":"75266-0044","country":"USA"}]},"request":{"method":"PUT","url":"Organization/4b5a882f-1f43-485c-85c6-f5ad2337d5b1"}},{"fullUrl":"https://madie.cms.gov/Practitioner/practitioner-123456","resource":{"resourceType":"Practitioner","id":"ae67e111-a0e6-44df-9dc8-00fbabf567de","identifier":[{"system":"http://hl7.org/fhir/sid/us-npi","value":"123456"}],"name":[{"family":"Evil","prefix":["Dr"]}]},"request":{"method":"PUT","url":"Practitioner/ae67e111-a0e6-44df-9dc8-00fbabf567de"}},{"fullUrl":"https://madie.cms.gov/Condition/Condition-1","resource":{"resourceType":"Condition","id":"f4a349bc-e232-4c02-92b8-863866e9d820","meta":{"profile":["http://hl7.org/fhir/us/qicore/StructureDefinition/qicore-condition"]},"category":[{"coding":[{"system":"http://terminology.hl7.org/CodeSystem/condition-category","code":"encounter-diagnosis","display":"Encounter Diagnosis"}]}],"code":{"coding":[{"system":"http://snomed.info/sct","code":"169826009","display":"Single live birth (finding)"}]},"subject":{"reference":"Patient/7ed48b89-cb57-45f9-ba16-24d85d09215c"}},"request":{"method":"PUT","url":"Condition/f4a349bc-e232-4c02-92b8-863866e9d820"}},{"fullUrl":"https://madie.cms.gov/MeasureReport/b849c130-8890-4773-8d6d-c5f5162d6a69","resource":{"resourceType":"MeasureReport","id":"b849c130-8890-4773-8d6d-c5f5162d6a69","meta":{"profile":["http://hl7.org/fhir/us/cqfmeasures/StructureDefinition/test-case-cqfm"]},"contained":[{"resourceType":"Parameters","id":"ba558ae9-45f2-4987-a215-df87879f97be-parameters","parameter":[{"name":"subject","valueString":"7ed48b89-cb57-45f9-ba16-24d85d09215c"}]}],"extension":[{"url":"http://hl7.org/fhir/us/cqfmeasures/StructureDefinition/cqfm-inputParameters","valueReference":{"reference":"#ba558ae9-45f2-4987-a215-df87879f97be-parameters"}},{"url":"http://hl7.org/fhir/us/cqfmeasures/StructureDefinition/cqfm-testCaseDescription","valueMarkdown":"Passes IP, DEN but fails NUM; Gravida 1(effect 42 weeks)  and EGA 40 weeks;  Proc is not Cesarean Birth "}],"modifierExtension":[{"url":"http://hl7.org/fhir/us/cqfmeasures/StructureDefinition/cqfm-isTestCase","valueBoolean":true}],"status":"complete","type":"individual","measure":"https://madie.cms.gov/Measure/CesareanBirthFHIR","period":{"start":"2025-01-01","end":"2025-12-31"},"group":[{"population":[{"code":{"coding":[{"system":"http://terminology.hl7.org/CodeSystem/measure-population","code":"initial-population","display":"Initial Population"}]},"count":1},{"code":{"coding":[{"system":"http://terminology.hl7.org/CodeSystem/measure-population","code":"denominator","display":"Denominator"}]},"count":1},{"code":{"coding":[{"system":"http://terminology.hl7.org/CodeSystem/measure-population","code":"denominator-exclusion","display":"Denominator Exclusion"}]},"count":0},{"code":{"coding":[{"system":"http://terminology.hl7.org/CodeSystem/measure-population","code":"numerator","display":"Numerator"}]},"count":0}]}]},"request":{"method":"PUT","url":"MeasureReport/b849c130-8890-4773-8d6d-c5f5162d6a69"}}]}