{"resourceType":"Bundle","id":"tests-b2cb7909-8a02-46ad-8bc9-4154902fee43-bundle","type":"transaction","entry":[{"fullUrl":"https://madie.cms.gov/Patient/b2cb7909-8a02-46ad-8bc9-4154902fee43","resource":{"resourceType":"Patient","id":"b2cb7909-8a02-46ad-8bc9-4154902fee43","meta":{"profile":["http://hl7.org/fhir/us/qicore/StructureDefinition/qicore-patient"]},"text":{"status":"generated","div":"<div xmlns=\"http://www.w3.org/1999/xhtml\"><div class=\"hapiHeaderText\">AssessPLastResultIsNull <b>DENPASS </b></div><table class=\"hapiPropertyTable\"><tbody><tr><td>Identifier</td><td>cb4a87fae0aeb4667064306e289209af09ca2376f26fb181f5d5ea03cba5dc53</td></tr><tr><td>Date of birth</td><td><span>14 February 1985</span></td></tr></tbody></table></div>"},"extension":[{"url":"http://hl7.org/fhir/us/core/StructureDefinition/us-core-race","extension":[{"url":"ombCategory","valueCoding":{"system":"urn:oid:2.16.840.1.113883.6.238","code":"1002-5","display":"American Indian or Alaska Native","userSelected":true}},{"url":"text","valueString":"American Indian or Alaska Native"}]},{"url":"http://hl7.org/fhir/us/core/StructureDefinition/us-core-ethnicity","extension":[{"url":"ombCategory","valueCoding":{"system":"urn:oid:2.16.840.1.113883.6.238","code":"2135-2","display":"Hispanic or Latino","userSelected":true}},{"url":"text","valueString":"Hispanic or Latino"}]}],"identifier":[{"type":{"coding":[{"system":"http://terminology.hl7.org/CodeSystem/v2-0203","code":"MR"}]},"system":"https://bonnie-fhir.healthit.gov/","value":"63487c300968f801225401c6"}],"active":true,"name":[{"use":"usual","family":"DENPass","given":["AssessPLastResultIsNull"]}],"gender":"female","birthDate":"1997-02-14"},"request":{"method":"PUT","url":"Patient/b2cb7909-8a02-46ad-8bc9-4154902fee43"}},{"fullUrl":"https://madie.cms.gov/Observation/5d014eb2b848460872380600","resource":{"resourceType":"Observation","id":"56570961-aa51-49f9-b0e5-b7b8f3111520","meta":{"profile":["http://hl7.org/fhir/us/qicore/StructureDefinition/qicore-observation"]},"status":"final","category":[{"coding":[{"system":"http://terminology.hl7.org/CodeSystem/observation-category","code":"exam","display":"exam","userSelected":true}]}],"code":{"coding":[{"system":"http://loinc.org","code":"11977-6"}]},"subject":{"reference":"Patient/b2cb7909-8a02-46ad-8bc9-4154902fee43"},"effectiveDateTime":"2025-06-08T18:00:00.000+00:00","valueInteger":0},"request":{"method":"PUT","url":"Observation/56570961-aa51-49f9-b0e5-b7b8f3111520"}},{"fullUrl":"https://madie.cms.gov/Observation/5d014eb2b848460872380602","resource":{"resourceType":"Observation","id":"ad814ac9-9160-4c21-af8a-fb58c7db4479","meta":{"profile":["http://hl7.org/fhir/us/qicore/StructureDefinition/qicore-observation"]},"status":"final","category":[{"coding":[{"system":"http://terminology.hl7.org/CodeSystem/observation-category","code":"exam","display":"exam","userSelected":true}]}],"code":{"coding":[{"system":"http://loinc.org","code":"11884-4"}]},"subject":{"reference":"Patient/b2cb7909-8a02-46ad-8bc9-4154902fee43"},"effectiveDateTime":"2025-06-08T20:00:00.000+00:00","valueQuantity":{"value":37.0,"system":"http://unitsofmeasure.org","code":"weeks"}},"request":{"method":"PUT","url":"Observation/ad814ac9-9160-4c21-af8a-fb58c7db4479"}},{"fullUrl":"https://madie.cms.gov/Observation/5e68ec8c59d82f0000c960fe","resource":{"resourceType":"Observation","id":"c6836833-d5ea-43ad-9848-6f4d8a53aca0","meta":{"profile":["http://hl7.org/fhir/us/qicore/StructureDefinition/qicore-observation"]},"status":"final","category":[{"coding":[{"system":"http://terminology.hl7.org/CodeSystem/observation-category","code":"exam","display":"exam","userSelected":true}]}],"code":{"coding":[{"system":"http://loinc.org","code":"93857-1"}]},"subject":{"reference":"Patient/b2cb7909-8a02-46ad-8bc9-4154902fee43"},"effectiveDateTime":"2025-06-08T20:00:00.000+00:00","valueDateTime":"2025-06-08T20:00:00+00:00"},"request":{"method":"PUT","url":"Observation/c6836833-d5ea-43ad-9848-6f4d8a53aca0"}},{"fullUrl":"https://madie.cms.gov/Observation/5eb9c107721b0100005e023d","resource":{"resourceType":"Observation","id":"abc142b8-ea28-4cff-9341-a612ff25df1e","meta":{"profile":["http://hl7.org/fhir/us/qicore/StructureDefinition/qicore-observation"]},"status":"final","category":[{"coding":[{"system":"http://terminology.hl7.org/CodeSystem/observation-category","code":"exam","display":"exam","userSelected":true}]}],"code":{"coding":[{"system":"http://loinc.org","code":"11977-6"}]},"subject":{"reference":"Patient/b2cb7909-8a02-46ad-8bc9-4154902fee43"},"effectiveDateTime":"2025-06-08T19:59:00.000+00:00"},"request":{"method":"PUT","url":"Observation/abc142b8-ea28-4cff-9341-a612ff25df1e"}},{"fullUrl":"https://madie.cms.gov/Observation/5eb9c107721b0100005e024d","resource":{"resourceType":"Observation","id":"73af0b9f-d463-48d6-8ebc-8acbe3eafd99","meta":{"profile":["http://hl7.org/fhir/us/qicore/StructureDefinition/qicore-observation"]},"status":"final","category":[{"coding":[{"system":"http://terminology.hl7.org/CodeSystem/observation-category","code":"exam","display":"exam","userSelected":true}]}],"code":{"coding":[{"system":"http://loinc.org","code":"11977-6"}]},"subject":{"reference":"Patient/b2cb7909-8a02-46ad-8bc9-4154902fee43"},"effectivePeriod":{"start":"2025-05-11T08:00:00.000Z","end":"2025-05-11T08:15:00.000Z"},"issued":"2025-05-11T08:00:00.000+00:00"},"request":{"method":"PUT","url":"Observation/73af0b9f-d463-48d6-8ebc-8acbe3eafd99"}},{"fullUrl":"https://madie.cms.gov/Encounter/5d014eb2b8484608723805fe","resource":{"resourceType":"Encounter","id":"5444bcf3-4199-44bf-9935-82120ae4bce2","meta":{"profile":["http://hl7.org/fhir/us/qicore/StructureDefinition/qicore-encounter"]},"status":"finished","class":{"system":"http://terminology.hl7.org/CodeSystem/v3-ActCode","code":"IMP","display":"inpatient encounter"},"type":[{"coding":[{"system":"http://snomed.info/sct","code":"8715000"}]}],"subject":{"reference":"Patient/b2cb7909-8a02-46ad-8bc9-4154902fee43"},"period":{"start":"2025-06-08T08:00:00.000Z","end":"2025-06-10T08:15:00.000Z"},"length":{"value":2.0,"unit":"days"},"diagnosis":[{"condition":{"reference":"Condition/delivery-of-singleton-f83c"},"use":{"coding":[{"system":"http://snomed.info/sct","code":"169826009","display":"Delivery of Singleton"}]}},{"condition":{"reference":"Condition/delivery-of-singleton-b385"}}]},"request":{"method":"PUT","url":"Encounter/5444bcf3-4199-44bf-9935-82120ae4bce2"}},{"fullUrl":"https://madie.cms.gov/Coverage/5f5f9e561c76ba674bb03403","resource":{"resourceType":"Coverage","id":"187e3873-ff3b-4084-9481-10827306a6c6","status":"active","beneficiary":{"reference":"Patient/b2cb7909-8a02-46ad-8bc9-4154902fee43"},"period":{"start":"1985-02-14T08:00:00.000Z"},"payor":[{"reference":"Organization/4b5a882f-1f43-485c-85c6-f5ad2337d5b1"}]},"request":{"method":"PUT","url":"Coverage/187e3873-ff3b-4084-9481-10827306a6c6"}},{"fullUrl":"https://madie.cms.gov/Procedure/5d014eb2b8484608723805ff","resource":{"resourceType":"Procedure","id":"b72aec1b-9728-4385-935e-a0d41477b036","meta":{"profile":["http://hl7.org/fhir/us/qicore/StructureDefinition/qicore-procedure"]},"extension":[{"url":"http://hl7.org/fhir/us/qicore/StructureDefinition/qicore-recorded","valueDateTime":"2013-04-05T09:35:00-04:00"}],"status":"completed","code":{"coding":[{"system":"http://www.cms.gov/Medicare/Coding/ICD10","code":"10D00Z0"},{"system":"http://snomed.info/sct","code":"4504004"},{"system":"http://www.icd10data.com/icd10pcs","code":"10D00Z1","userSelected":true}]},"subject":{"reference":"Patient/b2cb7909-8a02-46ad-8bc9-4154902fee43"},"performedPeriod":{"start":"2025-06-08T20:00:00.000Z","end":"2025-06-08T20:15:00.000Z"}},"request":{"method":"PUT","url":"Procedure/b72aec1b-9728-4385-935e-a0d41477b036"}},{"fullUrl":"https://madie.cms.gov/Condition/delivery-of-singleton-b385","resource":{"resourceType":"Condition","id":"d05d238b-e94f-4f82-ab8e-9e056f0fc7fd","meta":{"profile":["http://hl7.org/fhir/us/qicore/StructureDefinition/qicore-condition"]},"category":[{"coding":[{"system":"http://terminology.hl7.org/CodeSystem/condition-category","code":"encounter-diagnosis","display":"Encounter Diagnosis"}]}],"code":{"coding":[{"system":"http://snomed.info/sct","version":"2022-09","code":"169826009","display":"Single live birth (finding)","userSelected":true}]},"subject":{"reference":"Patient/b2cb7909-8a02-46ad-8bc9-4154902fee43"},"recordedDate":"2025-10-19T08:00:00.000+00:00"},"request":{"method":"PUT","url":"Condition/d05d238b-e94f-4f82-ab8e-9e056f0fc7fd"}},{"fullUrl":"https://madie.cms.gov/Organization/123456","resource":{"resourceType":"Organization","id":"4b5a882f-1f43-485c-85c6-f5ad2337d5b1","meta":{"profile":["http://hl7.org/fhir/us/qicore/StructureDefinition/qicore-organization"]},"identifier":[{"use":"temp","system":"urn:oid:2.16.840.1.113883.4.4","value":"21-3259825"}],"active":true,"type":[{"coding":[{"system":"http://terminology.hl7.org/CodeSystem/organization-type","code":"pay","display":"Payer"}]}],"name":"Blue Cross Blue Shield of Texas","telecom":[{"system":"phone","value":"(+1) 972-766-6900"}],"address":[{"use":"billing","type":"postal","line":["P.O. Box 660044"],"city":"Dallas","state":"TX","postalCode":"75266-0044","country":"USA"}]},"request":{"method":"PUT","url":"Organization/4b5a882f-1f43-485c-85c6-f5ad2337d5b1"}},{"fullUrl":"https://madie.cms.gov/Practitioner/practitioner-123456","resource":{"resourceType":"Practitioner","id":"fe06a264-6efb-47dc-b231-103bc7df7cbe","identifier":[{"system":"http://hl7.org/fhir/sid/us-npi","value":"123456"}],"name":[{"family":"Evil","prefix":["Dr"]}]},"request":{"method":"PUT","url":"Practitioner/fe06a264-6efb-47dc-b231-103bc7df7cbe"}},{"fullUrl":"https://madie.cms.gov/MeasureReport/6f7b4f9f-6c35-40e7-9f44-eb8e25461a80","resource":{"resourceType":"MeasureReport","id":"6f7b4f9f-6c35-40e7-9f44-eb8e25461a80","meta":{"profile":["http://hl7.org/fhir/us/cqfmeasures/StructureDefinition/test-case-cqfm"]},"contained":[{"resourceType":"Parameters","id":"f096bc96-8a90-4576-9a24-0f419778f250-parameters","parameter":[{"name":"subject","valueString":"b2cb7909-8a02-46ad-8bc9-4154902fee43"}]}],"extension":[{"url":"http://hl7.org/fhir/us/cqfmeasures/StructureDefinition/cqfm-inputParameters","valueReference":{"reference":"#f096bc96-8a90-4576-9a24-0f419778f250-parameters"}},{"url":"http://hl7.org/fhir/us/cqfmeasures/StructureDefinition/cqfm-testCaseDescription","valueMarkdown":"Parity Last Result is Null but first is zero, relevant date/time same date but time less than delivery date/time\n"}],"modifierExtension":[{"url":"http://hl7.org/fhir/us/cqfmeasures/StructureDefinition/cqfm-isTestCase","valueBoolean":true}],"status":"complete","type":"individual","measure":"https://madie.cms.gov/Measure/CesareanBirthFHIR","period":{"start":"2025-01-01","end":"2025-12-31"},"group":[{"population":[{"code":{"coding":[{"system":"http://terminology.hl7.org/CodeSystem/measure-population","code":"initial-population","display":"Initial Population"}]},"count":1},{"code":{"coding":[{"system":"http://terminology.hl7.org/CodeSystem/measure-population","code":"denominator","display":"Denominator"}]},"count":1},{"code":{"coding":[{"system":"http://terminology.hl7.org/CodeSystem/measure-population","code":"denominator-exclusion","display":"Denominator Exclusion"}]},"count":0},{"code":{"coding":[{"system":"http://terminology.hl7.org/CodeSystem/measure-population","code":"numerator","display":"Numerator"}]},"count":1}]}]},"request":{"method":"PUT","url":"MeasureReport/6f7b4f9f-6c35-40e7-9f44-eb8e25461a80"}}]}