{"resourceType":"Bundle","id":"tests-8b0160c7-9fb9-47e0-8a7d-ac8afc5b3ea3-bundle","type":"transaction","entry":[{"fullUrl":"https://madie.cms.gov/Patient/8b0160c7-9fb9-47e0-8a7d-ac8afc5b3ea3","resource":{"resourceType":"Patient","id":"8b0160c7-9fb9-47e0-8a7d-ac8afc5b3ea3","meta":{"profile":["http://hl7.org/fhir/us/qicore/StructureDefinition/qicore-patient"]},"text":{"status":"generated","div":"<div xmlns=\"http://www.w3.org/1999/xhtml\"><div class=\"hapiHeaderText\">AssessGARelDtTimeB4TimeOfDel <b>DENPASS </b></div><table class=\"hapiPropertyTable\"><tbody><tr><td>Identifier</td><td>399eb1d15b18a70b0a1fc126870ee45fba3a6862e3faa339c35b816b8fe113c4</td></tr><tr><td>Date of birth</td><td><span>14 February 1985</span></td></tr></tbody></table></div>"},"extension":[{"url":"http://hl7.org/fhir/us/core/StructureDefinition/us-core-race","extension":[{"url":"ombCategory","valueCoding":{"system":"urn:oid:2.16.840.1.113883.6.238","code":"1002-5","display":"American Indian or Alaska Native","userSelected":true}},{"url":"text","valueString":"American Indian or Alaska Native"}]},{"url":"http://hl7.org/fhir/us/core/StructureDefinition/us-core-ethnicity","extension":[{"url":"ombCategory","valueCoding":{"system":"urn:oid:2.16.840.1.113883.6.238","code":"2135-2","display":"Hispanic or Latino","userSelected":true}},{"url":"text","valueString":"Hispanic or Latino"}]}],"identifier":[{"type":{"coding":[{"system":"http://terminology.hl7.org/CodeSystem/v2-0203","code":"MR"}]},"system":"https://bonnie-fhir.healthit.gov/","value":"63487c2e0968f80122540173"}],"active":true,"name":[{"use":"usual","family":"DENPass","given":["AssessGARelDtTimeB4TimeOfDel"]}],"gender":"female","birthDate":"1997-02-14"},"request":{"method":"PUT","url":"Patient/8b0160c7-9fb9-47e0-8a7d-ac8afc5b3ea3"}},{"fullUrl":"https://madie.cms.gov/Observation/5d014eb1b848460872380496","resource":{"resourceType":"Observation","id":"aa0d52aa-a90e-4b8a-bbcb-7293781918e4","meta":{"profile":["http://hl7.org/fhir/us/qicore/StructureDefinition/qicore-observation"]},"status":"final","category":[{"coding":[{"system":"http://terminology.hl7.org/CodeSystem/observation-category","code":"exam","display":"exam","userSelected":true}]}],"code":{"coding":[{"system":"http://loinc.org","code":"11884-4"}]},"subject":{"reference":"Patient/8b0160c7-9fb9-47e0-8a7d-ac8afc5b3ea3"},"effectiveDateTime":"2025-06-08T00:00:00.000+00:00","valueQuantity":{"value":37.0,"system":"http://unitsofmeasure.org","code":"weeks"}},"request":{"method":"PUT","url":"Observation/aa0d52aa-a90e-4b8a-bbcb-7293781918e4"}},{"fullUrl":"https://madie.cms.gov/Observation/5d014eb1b848460872380498","resource":{"resourceType":"Observation","id":"da8d8d3b-686a-4a6d-8b27-5f9290cd0bcc","meta":{"profile":["http://hl7.org/fhir/us/qicore/StructureDefinition/qicore-observation"]},"status":"final","category":[{"coding":[{"system":"http://terminology.hl7.org/CodeSystem/observation-category","code":"exam","display":"exam","userSelected":true}]}],"code":{"coding":[{"system":"http://loinc.org","code":"11996-6"}]},"subject":{"reference":"Patient/8b0160c7-9fb9-47e0-8a7d-ac8afc5b3ea3"},"effectiveDateTime":"2025-06-08T08:00:00.000+00:00","valueInteger":1},"request":{"method":"PUT","url":"Observation/da8d8d3b-686a-4a6d-8b27-5f9290cd0bcc"}},{"fullUrl":"https://madie.cms.gov/Observation/5e68ea2059d82f0000c95c9d","resource":{"resourceType":"Observation","id":"44ba1d6a-7dbb-42a6-9849-a3e5605abd03","meta":{"profile":["http://hl7.org/fhir/us/qicore/StructureDefinition/qicore-observation"]},"status":"final","category":[{"coding":[{"system":"http://terminology.hl7.org/CodeSystem/observation-category","code":"exam","display":"exam","userSelected":true}]}],"code":{"coding":[{"system":"http://loinc.org","code":"93857-1"}]},"subject":{"reference":"Patient/8b0160c7-9fb9-47e0-8a7d-ac8afc5b3ea3"},"effectiveDateTime":"2025-06-08T09:15:00.000+00:00","valueDateTime":"2025-06-08T09:15:00+00:00"},"request":{"method":"PUT","url":"Observation/44ba1d6a-7dbb-42a6-9849-a3e5605abd03"}},{"fullUrl":"https://madie.cms.gov/Encounter/5d014eb1b848460872380494","resource":{"resourceType":"Encounter","id":"78a1d57f-484e-4777-97c9-2ac841fd7f40","meta":{"profile":["http://hl7.org/fhir/us/qicore/StructureDefinition/qicore-encounter"]},"status":"finished","class":{"system":"http://terminology.hl7.org/CodeSystem/v3-ActCode","code":"IMP","display":"inpatient encounter"},"type":[{"coding":[{"system":"http://snomed.info/sct","code":"183452005"}]}],"subject":{"reference":"Patient/8b0160c7-9fb9-47e0-8a7d-ac8afc5b3ea3"},"period":{"start":"2025-06-08T08:00:00.000Z","end":"2025-06-10T08:15:00.000Z"},"length":{"value":2.0,"unit":"days"},"diagnosis":[{"condition":{"reference":"Condition/delivery-of-singleton-f83c"},"use":{"coding":[{"system":"http://snomed.info/sct","code":"169826009","display":"Delivery of Singleton"}]}}]},"request":{"method":"PUT","url":"Encounter/78a1d57f-484e-4777-97c9-2ac841fd7f40"}},{"fullUrl":"https://madie.cms.gov/Procedure/5d014eb1b848460872380495","resource":{"resourceType":"Procedure","id":"bcaf14ea-6b4c-4412-a49e-42e0ca299b5c","meta":{"profile":["http://hl7.org/fhir/us/qicore/StructureDefinition/qicore-procedure"]},"extension":[{"url":"http://hl7.org/fhir/us/qicore/StructureDefinition/qicore-recorded","valueDateTime":"2013-04-05T09:35:00-04:00"}],"status":"completed","code":{"coding":[{"system":"http://www.cms.gov/Medicare/Coding/ICD10","code":"10D07Z3"},{"system":"http://www.icd10data.com/icd10pcs","code":"10D07Z3","userSelected":true}]},"subject":{"reference":"Patient/8b0160c7-9fb9-47e0-8a7d-ac8afc5b3ea3"},"performedPeriod":{"start":"2025-06-08T08:00:00.000Z","end":"2025-06-08T09:15:00.000Z"}},"request":{"method":"PUT","url":"Procedure/bcaf14ea-6b4c-4412-a49e-42e0ca299b5c"}},{"fullUrl":"https://madie.cms.gov/Condition/delivery-of-singleton-f83c","resource":{"resourceType":"Condition","id":"b1cee44c-70a2-44d0-b0bb-0422885939de","meta":{"profile":["http://hl7.org/fhir/us/qicore/StructureDefinition/qicore-condition"]},"category":[{"coding":[{"system":"http://terminology.hl7.org/CodeSystem/condition-category","code":"encounter-diagnosis","display":"Encounter Diagnosis"}]}],"code":{"coding":[{"system":"http://snomed.info/sct","version":"2022-09","code":"169826009","display":"Single live birth (finding)","userSelected":true}]},"subject":{"reference":"Patient/8b0160c7-9fb9-47e0-8a7d-ac8afc5b3ea3"},"recordedDate":"2025-10-19T08:00:00.000+00:00"},"request":{"method":"PUT","url":"Condition/b1cee44c-70a2-44d0-b0bb-0422885939de"}},{"fullUrl":"https://madie.cms.gov/Coverage/1","resource":{"resourceType":"Coverage","id":"b4d48331-f350-4129-955b-81e9b35e926b","meta":{"profile":["http://hl7.org/fhir/us/qicore/StructureDefinition/qicore-coverage"]},"status":"active","beneficiary":{"reference":"Patient/8b0160c7-9fb9-47e0-8a7d-ac8afc5b3ea3"},"payor":[{"reference":"Organization/4b5a882f-1f43-485c-85c6-f5ad2337d5b1"}]},"request":{"method":"PUT","url":"Coverage/b4d48331-f350-4129-955b-81e9b35e926b"}},{"fullUrl":"https://madie.cms.gov/Organization/123456","resource":{"resourceType":"Organization","id":"4b5a882f-1f43-485c-85c6-f5ad2337d5b1","meta":{"profile":["http://hl7.org/fhir/us/qicore/StructureDefinition/qicore-organization"]},"identifier":[{"use":"temp","system":"urn:oid:2.16.840.1.113883.4.4","value":"21-3259825"}],"active":true,"type":[{"coding":[{"system":"http://terminology.hl7.org/CodeSystem/organization-type","code":"pay","display":"Payer"}]}],"name":"Blue Cross Blue Shield of Texas","telecom":[{"system":"phone","value":"(+1) 972-766-6900"}],"address":[{"use":"billing","type":"postal","line":["P.O. Box 660044"],"city":"Dallas","state":"TX","postalCode":"75266-0044","country":"USA"}]},"request":{"method":"PUT","url":"Organization/4b5a882f-1f43-485c-85c6-f5ad2337d5b1"}},{"fullUrl":"https://madie.cms.gov/Practitioner/practitioner-123456","resource":{"resourceType":"Practitioner","id":"90e23f85-8682-4308-8b7e-b20e191b98bb","identifier":[{"system":"http://hl7.org/fhir/sid/us-npi","value":"123456"}],"name":[{"family":"Evil","prefix":["Dr"]}]},"request":{"method":"PUT","url":"Practitioner/90e23f85-8682-4308-8b7e-b20e191b98bb"}},{"fullUrl":"https://madie.cms.gov/MeasureReport/ec521c50-0321-4670-aae2-68d547a4c024","resource":{"resourceType":"MeasureReport","id":"ec521c50-0321-4670-aae2-68d547a4c024","meta":{"profile":["http://hl7.org/fhir/us/cqfmeasures/StructureDefinition/test-case-cqfm"]},"contained":[{"resourceType":"Parameters","id":"7a0dd946-cbcb-4165-9f9c-9cada847b457-parameters","parameter":[{"name":"subject","valueString":"8b0160c7-9fb9-47e0-8a7d-ac8afc5b3ea3"}]}],"extension":[{"url":"http://hl7.org/fhir/us/cqfmeasures/StructureDefinition/cqfm-inputParameters","valueReference":{"reference":"#7a0dd946-cbcb-4165-9f9c-9cada847b457-parameters"}},{"url":"http://hl7.org/fhir/us/cqfmeasures/StructureDefinition/cqfm-testCaseDescription","valueMarkdown":"Passes: IP, Pt is 27 years of age,  encounter dx of delivery of singleton, gravida, EGA @ 38 weeks  AsseEGA37 (same day, time B4 ) TmDeliver.  Tests \"Gestation37PlusWeeks.authorDatetime 1 day or less on or before TimeOfDelivery.relevantDatetime\".\n"}],"modifierExtension":[{"url":"http://hl7.org/fhir/us/cqfmeasures/StructureDefinition/cqfm-isTestCase","valueBoolean":true}],"status":"complete","type":"individual","measure":"https://madie.cms.gov/Measure/CesareanBirthFHIR","period":{"start":"2025-01-01","end":"2025-12-31"},"group":[{"population":[{"code":{"coding":[{"system":"http://terminology.hl7.org/CodeSystem/measure-population","code":"initial-population","display":"Initial Population"}]},"count":1},{"code":{"coding":[{"system":"http://terminology.hl7.org/CodeSystem/measure-population","code":"denominator","display":"Denominator"}]},"count":1},{"code":{"coding":[{"system":"http://terminology.hl7.org/CodeSystem/measure-population","code":"denominator-exclusion","display":"Denominator Exclusion"}]},"count":0},{"code":{"coding":[{"system":"http://terminology.hl7.org/CodeSystem/measure-population","code":"numerator","display":"Numerator"}]},"count":0}]}]},"request":{"method":"PUT","url":"MeasureReport/ec521c50-0321-4670-aae2-68d547a4c024"}}]}