{"resourceType":"Bundle","id":"tests-24466f7b-b722-4c54-9315-6116c81c3dd4-bundle","type":"transaction","entry":[{"fullUrl":"https://madie.cms.gov/Patient/24466f7b-b722-4c54-9315-6116c81c3dd4","resource":{"resourceType":"Patient","id":"24466f7b-b722-4c54-9315-6116c81c3dd4","meta":{"profile":["http://hl7.org/fhir/us/qicore/StructureDefinition/qicore-patient"]},"text":{"status":"generated","div":"<div xmlns=\"http://www.w3.org/1999/xhtml\"><div class=\"hapiHeaderText\">AssessLastGresultMissing <b>DENPASS </b></div><table class=\"hapiPropertyTable\"><tbody><tr><td>Identifier</td><td>a71c730e90531277040df227a6edf32e5d1d845b7af7c742588090b545382c72</td></tr><tr><td>Date of birth</td><td><span>14 February 1985</span></td></tr></tbody></table></div>"},"extension":[{"url":"http://hl7.org/fhir/us/core/StructureDefinition/us-core-race","extension":[{"url":"ombCategory","valueCoding":{"system":"urn:oid:2.16.840.1.113883.6.238","code":"1002-5","display":"American Indian or Alaska Native","userSelected":true}},{"url":"text","valueString":"American Indian or Alaska Native"}]},{"url":"http://hl7.org/fhir/us/core/StructureDefinition/us-core-ethnicity","extension":[{"url":"ombCategory","valueCoding":{"system":"urn:oid:2.16.840.1.113883.6.238","code":"2135-2","display":"Hispanic or Latino","userSelected":true}},{"url":"text","valueString":"Hispanic or Latino"}]}],"identifier":[{"type":{"coding":[{"system":"http://terminology.hl7.org/CodeSystem/v2-0203","code":"MR"}]},"system":"https://bonnie-fhir.healthit.gov/","value":"63487c300968f801225401ba"}],"active":true,"name":[{"use":"usual","family":"DENPass","given":["AssessLastGresultMissing"]}],"gender":"female","birthDate":"1997-02-14"},"request":{"method":"PUT","url":"Patient/24466f7b-b722-4c54-9315-6116c81c3dd4"}},{"fullUrl":"https://madie.cms.gov/Observation/5d014eb2b8484608723805b0","resource":{"resourceType":"Observation","id":"4cd18803-cdfb-4e10-98a4-4cab92f44c66","meta":{"profile":["http://hl7.org/fhir/us/qicore/StructureDefinition/qicore-observation"]},"status":"final","category":[{"coding":[{"system":"http://terminology.hl7.org/CodeSystem/observation-category","code":"exam","display":"exam","userSelected":true}]}],"code":{"coding":[{"system":"http://loinc.org","code":"11996-6"}]},"subject":{"reference":"Patient/24466f7b-b722-4c54-9315-6116c81c3dd4"},"effectiveDateTime":"2025-06-08T08:00:00.000+00:00"},"request":{"method":"PUT","url":"Observation/4cd18803-cdfb-4e10-98a4-4cab92f44c66"}},{"fullUrl":"https://madie.cms.gov/Observation/5d014eb2b8484608723805b1","resource":{"resourceType":"Observation","id":"e6e24e5e-31b2-4a5f-bdf5-50b4707b1244","meta":{"profile":["http://hl7.org/fhir/us/qicore/StructureDefinition/qicore-observation"]},"status":"final","category":[{"coding":[{"system":"http://terminology.hl7.org/CodeSystem/observation-category","code":"exam","display":"exam","userSelected":true}]}],"code":{"coding":[{"system":"http://loinc.org","code":"11884-4"}]},"subject":{"reference":"Patient/24466f7b-b722-4c54-9315-6116c81c3dd4"},"effectiveDateTime":"2025-06-08T09:15:00.000+00:00","valueQuantity":{"value":38.0,"system":"http://unitsofmeasure.org","code":"weeks"}},"request":{"method":"PUT","url":"Observation/e6e24e5e-31b2-4a5f-bdf5-50b4707b1244"}},{"fullUrl":"https://madie.cms.gov/Observation/5e695d027ffec70000320ca6","resource":{"resourceType":"Observation","id":"d587b8c3-e2e9-407a-b9dd-4c32ed4b99a9","meta":{"profile":["http://hl7.org/fhir/us/qicore/StructureDefinition/qicore-observation"]},"status":"final","category":[{"coding":[{"system":"http://terminology.hl7.org/CodeSystem/observation-category","code":"exam","display":"exam","userSelected":true}]}],"code":{"coding":[{"system":"http://loinc.org","code":"93857-1"}]},"subject":{"reference":"Patient/24466f7b-b722-4c54-9315-6116c81c3dd4"},"effectiveDateTime":"2025-06-08T20:00:00.000+00:00","valueDateTime":"2025-06-08T20:00:00+00:00"},"request":{"method":"PUT","url":"Observation/d587b8c3-e2e9-407a-b9dd-4c32ed4b99a9"}},{"fullUrl":"https://madie.cms.gov/Observation/5e94b7ff4e70a20000470ffe","resource":{"resourceType":"Observation","id":"ff3c244d-31bb-4231-8893-41a2d94fa825","meta":{"profile":["http://hl7.org/fhir/us/qicore/StructureDefinition/qicore-observation"]},"status":"final","category":[{"coding":[{"system":"http://terminology.hl7.org/CodeSystem/observation-category","code":"exam","display":"exam","userSelected":true}]}],"code":{"coding":[{"system":"http://loinc.org","code":"11996-6"}]},"subject":{"reference":"Patient/24466f7b-b722-4c54-9315-6116c81c3dd4"},"effectiveDateTime":"2025-04-24T08:00:00.000+00:00","valueInteger":1},"request":{"method":"PUT","url":"Observation/ff3c244d-31bb-4231-8893-41a2d94fa825"}},{"fullUrl":"https://madie.cms.gov/Encounter/5d014eb2b8484608723805ae","resource":{"resourceType":"Encounter","id":"3144216c-8b36-4662-9261-375c550d8765","meta":{"profile":["http://hl7.org/fhir/us/qicore/StructureDefinition/qicore-encounter"]},"status":"finished","class":{"system":"http://terminology.hl7.org/CodeSystem/v3-ActCode","code":"IMP","display":"inpatient encounter"},"type":[{"coding":[{"system":"http://snomed.info/sct","code":"183452005"}]}],"subject":{"reference":"Patient/24466f7b-b722-4c54-9315-6116c81c3dd4"},"period":{"start":"2025-06-08T08:00:00.000Z","end":"2025-06-10T08:15:00.000Z"},"length":{"value":2.0,"unit":"days"},"diagnosis":[{"condition":{"reference":"Condition/delivery-of-singleton-16ea"}}]},"request":{"method":"PUT","url":"Encounter/3144216c-8b36-4662-9261-375c550d8765"}},{"fullUrl":"https://madie.cms.gov/Procedure/5d014eb2b8484608723805af","resource":{"resourceType":"Procedure","id":"84a6e763-fa05-408d-b3f6-76770eec0b6f","meta":{"profile":["http://hl7.org/fhir/us/qicore/StructureDefinition/qicore-procedure"]},"extension":[{"url":"http://hl7.org/fhir/us/qicore/StructureDefinition/qicore-recorded","valueDateTime":"2013-04-05T09:35:00-04:00"}],"status":"completed","code":{"coding":[{"system":"http://www.cms.gov/Medicare/Coding/ICD10","code":"10D07Z3"},{"system":"http://www.icd10data.com/icd10pcs","code":"10D07Z3","userSelected":true}]},"subject":{"reference":"Patient/24466f7b-b722-4c54-9315-6116c81c3dd4"},"performedPeriod":{"start":"2025-06-08T08:10:00.000Z","end":"2025-06-08T09:14:00.000Z"}},"request":{"method":"PUT","url":"Procedure/84a6e763-fa05-408d-b3f6-76770eec0b6f"}},{"fullUrl":"https://madie.cms.gov/Condition/delivery-of-singleton-16ea","resource":{"resourceType":"Condition","id":"4b09cbc5-7dfe-4a88-8d26-dd020086aed7","meta":{"profile":["http://hl7.org/fhir/us/qicore/StructureDefinition/qicore-condition"]},"category":[{"coding":[{"system":"http://terminology.hl7.org/CodeSystem/condition-category","code":"encounter-diagnosis","display":"Encounter Diagnosis"}]}],"code":{"coding":[{"system":"http://snomed.info/sct","version":"2022-09","code":"169826009","display":"Single live birth (finding)","userSelected":true}]},"subject":{"reference":"Patient/24466f7b-b722-4c54-9315-6116c81c3dd4"},"recordedDate":"2025-10-14T08:00:00.000+00:00"},"request":{"method":"PUT","url":"Condition/4b09cbc5-7dfe-4a88-8d26-dd020086aed7"}},{"fullUrl":"https://madie.cms.gov/Coverage/1","resource":{"resourceType":"Coverage","id":"f7417b3f-1615-4f52-bfc9-eefb540bbbe5","meta":{"profile":["http://hl7.org/fhir/us/qicore/StructureDefinition/qicore-coverage"]},"status":"active","beneficiary":{"reference":"Patient/24466f7b-b722-4c54-9315-6116c81c3dd4"},"payor":[{"reference":"Organization/4b5a882f-1f43-485c-85c6-f5ad2337d5b1"}]},"request":{"method":"PUT","url":"Coverage/f7417b3f-1615-4f52-bfc9-eefb540bbbe5"}},{"fullUrl":"https://madie.cms.gov/Organization/123456","resource":{"resourceType":"Organization","id":"4b5a882f-1f43-485c-85c6-f5ad2337d5b1","meta":{"profile":["http://hl7.org/fhir/us/qicore/StructureDefinition/qicore-organization"]},"identifier":[{"use":"temp","system":"urn:oid:2.16.840.1.113883.4.4","value":"21-3259825"}],"active":true,"type":[{"coding":[{"system":"http://terminology.hl7.org/CodeSystem/organization-type","code":"pay","display":"Payer"}]}],"name":"Blue Cross Blue Shield of Texas","telecom":[{"system":"phone","value":"(+1) 972-766-6900"}],"address":[{"use":"billing","type":"postal","line":["P.O. Box 660044"],"city":"Dallas","state":"TX","postalCode":"75266-0044","country":"USA"}]},"request":{"method":"PUT","url":"Organization/4b5a882f-1f43-485c-85c6-f5ad2337d5b1"}},{"fullUrl":"https://madie.cms.gov/Practitioner/practitioner-123456","resource":{"resourceType":"Practitioner","id":"7a7cdfb8-b76b-4c6d-adcc-a09a3edc1dfd","identifier":[{"system":"http://hl7.org/fhir/sid/us-npi","value":"123456"}],"name":[{"family":"Evil","prefix":["Dr"]}]},"request":{"method":"PUT","url":"Practitioner/7a7cdfb8-b76b-4c6d-adcc-a09a3edc1dfd"}},{"fullUrl":"https://madie.cms.gov/MeasureReport/2bdafc9f-e532-4c5e-87f7-3f4c49aea860","resource":{"resourceType":"MeasureReport","id":"2bdafc9f-e532-4c5e-87f7-3f4c49aea860","meta":{"profile":["http://hl7.org/fhir/us/cqfmeasures/StructureDefinition/test-case-cqfm"]},"contained":[{"resourceType":"Parameters","id":"ca8fc19d-bda8-4faf-b918-d89586f6a652-parameters","parameter":[{"name":"subject","valueString":"24466f7b-b722-4c54-9315-6116c81c3dd4"}]}],"extension":[{"url":"http://hl7.org/fhir/us/cqfmeasures/StructureDefinition/cqfm-inputParameters","valueReference":{"reference":"#ca8fc19d-bda8-4faf-b918-d89586f6a652-parameters"}},{"url":"http://hl7.org/fhir/us/cqfmeasures/StructureDefinition/cqfm-testCaseDescription","valueMarkdown":"Passes: IP, Passes DENOM because Last Gravida result is null, however previous G=1.   Pt is 27 years of age,  encounter dx delivery of singleton,  EGA @ 38 weeks\n"}],"modifierExtension":[{"url":"http://hl7.org/fhir/us/cqfmeasures/StructureDefinition/cqfm-isTestCase","valueBoolean":true}],"status":"complete","type":"individual","measure":"https://madie.cms.gov/Measure/CesareanBirthFHIR","period":{"start":"2025-01-01","end":"2025-12-31"},"group":[{"population":[{"code":{"coding":[{"system":"http://terminology.hl7.org/CodeSystem/measure-population","code":"initial-population","display":"Initial Population"}]},"count":1},{"code":{"coding":[{"system":"http://terminology.hl7.org/CodeSystem/measure-population","code":"denominator","display":"Denominator"}]},"count":1},{"code":{"coding":[{"system":"http://terminology.hl7.org/CodeSystem/measure-population","code":"denominator-exclusion","display":"Denominator Exclusion"}]},"count":0},{"code":{"coding":[{"system":"http://terminology.hl7.org/CodeSystem/measure-population","code":"numerator","display":"Numerator"}]},"count":0}]}]},"request":{"method":"PUT","url":"MeasureReport/2bdafc9f-e532-4c5e-87f7-3f4c49aea860"}}]}