{"resourceType":"Bundle","id":"tests-1674703c-e336-42fc-9afd-9e199e3943e7-bundle","type":"transaction","entry":[{"fullUrl":"https://madie.cms.gov/Patient/1674703c-e336-42fc-9afd-9e199e3943e7","resource":{"resourceType":"Patient","id":"1674703c-e336-42fc-9afd-9e199e3943e7","meta":{"profile":["http://hl7.org/fhir/us/qicore/StructureDefinition/qicore-patient"]},"text":{"status":"generated","div":"<div xmlns=\"http://www.w3.org/1999/xhtml\"><div class=\"hapiHeaderText\">AssessPreTerm0RelDtTimeAfterTimeOfDeliv <b>DENFAIL </b></div><table class=\"hapiPropertyTable\"><tbody><tr><td>Identifier</td><td>8b81c006ccabc24f5a7bf9da9ffdcfec03beba6c75ff746c3777d4c81ff57af3</td></tr><tr><td>Date of birth</td><td><span>14 February 1985</span></td></tr></tbody></table></div>"},"extension":[{"url":"http://hl7.org/fhir/us/core/StructureDefinition/us-core-race","extension":[{"url":"ombCategory","valueCoding":{"system":"urn:oid:2.16.840.1.113883.6.238","code":"1002-5","display":"American Indian or Alaska Native","userSelected":true}},{"url":"text","valueString":"American Indian or Alaska Native"}]},{"url":"http://hl7.org/fhir/us/core/StructureDefinition/us-core-ethnicity","extension":[{"url":"ombCategory","valueCoding":{"system":"urn:oid:2.16.840.1.113883.6.238","code":"2135-2","display":"Hispanic or Latino","userSelected":true}},{"url":"text","valueString":"Hispanic or Latino"}]}],"identifier":[{"type":{"coding":[{"system":"http://terminology.hl7.org/CodeSystem/v2-0203","code":"MR"}]},"system":"https://bonnie-fhir.healthit.gov/","value":"63487c2f0968f80122540194"}],"active":true,"name":[{"use":"usual","family":"DENFail","given":["AssessPreTerm0RelDtTimeAfterTimeOfDeliv"]}],"gender":"female","birthDate":"1997-02-14"},"request":{"method":"PUT","url":"Patient/1674703c-e336-42fc-9afd-9e199e3943e7"}},{"fullUrl":"https://madie.cms.gov/Observation/5d014eb3b8484608723806bf","resource":{"resourceType":"Observation","id":"51f14805-d996-4738-82b2-438fc5a7828d","meta":{"profile":["http://hl7.org/fhir/us/qicore/StructureDefinition/qicore-observation"]},"status":"final","category":[{"coding":[{"system":"http://terminology.hl7.org/CodeSystem/observation-category","code":"exam","display":"exam","userSelected":true}]}],"code":{"coding":[{"system":"http://loinc.org","code":"11639-2"}]},"subject":{"reference":"Patient/1674703c-e336-42fc-9afd-9e199e3943e7"},"effectiveDateTime":"2024-09-19T09:00:00.000+00:00","valueInteger":0},"request":{"method":"PUT","url":"Observation/51f14805-d996-4738-82b2-438fc5a7828d"}},{"fullUrl":"https://madie.cms.gov/Observation/5d014eb3b8484608723806c2","resource":{"resourceType":"Observation","id":"07bbdb6c-80de-4f1d-a9a4-750a55412d75","meta":{"profile":["http://hl7.org/fhir/us/qicore/StructureDefinition/qicore-observation"]},"status":"final","category":[{"coding":[{"system":"http://terminology.hl7.org/CodeSystem/observation-category","code":"exam","display":"exam","userSelected":true}]}],"code":{"coding":[{"system":"http://loinc.org","code":"11884-4"}]},"subject":{"reference":"Patient/1674703c-e336-42fc-9afd-9e199e3943e7"},"effectiveDateTime":"2025-06-08T20:00:00.000+00:00","valueQuantity":{"value":37.0,"system":"http://unitsofmeasure.org","code":"weeks"}},"request":{"method":"PUT","url":"Observation/07bbdb6c-80de-4f1d-a9a4-750a55412d75"}},{"fullUrl":"https://madie.cms.gov/Observation/5d014eb3b8484608723806c4","resource":{"resourceType":"Observation","id":"0c93a44a-18e4-4811-bd91-5d62a168ac90","meta":{"profile":["http://hl7.org/fhir/us/qicore/StructureDefinition/qicore-observation"]},"status":"final","category":[{"coding":[{"system":"http://terminology.hl7.org/CodeSystem/observation-category","code":"exam","display":"exam","userSelected":true}]}],"code":{"coding":[{"system":"http://loinc.org","code":"11637-6"}]},"subject":{"reference":"Patient/1674703c-e336-42fc-9afd-9e199e3943e7"},"effectiveDateTime":"2025-06-08T20:01:00.000+00:00","valueInteger":0},"request":{"method":"PUT","url":"Observation/0c93a44a-18e4-4811-bd91-5d62a168ac90"}},{"fullUrl":"https://madie.cms.gov/Observation/5e6968f87ffec70000321a21","resource":{"resourceType":"Observation","id":"5e5193ee-bc1c-4d83-9d4d-92c3810a67f4","meta":{"profile":["http://hl7.org/fhir/us/qicore/StructureDefinition/qicore-observation"]},"status":"final","category":[{"coding":[{"system":"http://terminology.hl7.org/CodeSystem/observation-category","code":"exam","display":"exam","userSelected":true}]}],"code":{"coding":[{"system":"http://loinc.org","code":"93857-1"}]},"subject":{"reference":"Patient/1674703c-e336-42fc-9afd-9e199e3943e7"},"effectiveDateTime":"2025-06-08T20:00:00.000+00:00","valueDateTime":"2025-06-08T20:00:00+00:00"},"request":{"method":"PUT","url":"Observation/5e5193ee-bc1c-4d83-9d4d-92c3810a67f4"}},{"fullUrl":"https://madie.cms.gov/Encounter/5d014eb3b8484608723806bd","resource":{"resourceType":"Encounter","id":"cdfa2b9a-cb2b-4388-a6d5-1f6d65e37401","meta":{"profile":["http://hl7.org/fhir/us/qicore/StructureDefinition/qicore-encounter"]},"status":"finished","class":{"system":"http://terminology.hl7.org/CodeSystem/v3-ActCode","code":"IMP","display":"inpatient encounter"},"type":[{"coding":[{"system":"http://snomed.info/sct","code":"8715000"}]}],"subject":{"reference":"Patient/1674703c-e336-42fc-9afd-9e199e3943e7"},"period":{"start":"2025-06-08T08:00:00.000Z","end":"2025-06-10T08:15:00.000Z"},"length":{"value":2.0,"unit":"days"},"diagnosis":[{"condition":{"reference":"Condition/delivery-of-singleton-f83c"},"use":{"coding":[{"system":"http://snomed.info/sct","code":"169826009","display":"Delivery of Singleton"}]}},{"condition":{"reference":"Condition/delivery-of-singleton-4b12"}}]},"request":{"method":"PUT","url":"Encounter/cdfa2b9a-cb2b-4388-a6d5-1f6d65e37401"}},{"fullUrl":"https://madie.cms.gov/Procedure/5d014eb3b8484608723806be","resource":{"resourceType":"Procedure","id":"4b153598-dde1-476a-8614-2e094b84b638","meta":{"profile":["http://hl7.org/fhir/us/qicore/StructureDefinition/qicore-procedure"]},"extension":[{"url":"http://hl7.org/fhir/us/qicore/StructureDefinition/qicore-recorded","valueDateTime":"2013-04-05T09:35:00-04:00"}],"status":"completed","code":{"coding":[{"system":"http://www.cms.gov/Medicare/Coding/ICD10","code":"10D00Z0"},{"system":"http://snomed.info/sct","code":"4504004"},{"system":"http://www.icd10data.com/icd10pcs","code":"10D00Z0","userSelected":true}]},"subject":{"reference":"Patient/1674703c-e336-42fc-9afd-9e199e3943e7"},"performedPeriod":{"start":"2025-06-08T20:00:00.000Z","end":"2025-06-08T20:15:00.000Z"}},"request":{"method":"PUT","url":"Procedure/4b153598-dde1-476a-8614-2e094b84b638"}},{"fullUrl":"https://madie.cms.gov/Condition/delivery-of-singleton-4b12","resource":{"resourceType":"Condition","id":"cfd7fd87-429e-4be2-b3c8-86ec55d54748","meta":{"profile":["http://hl7.org/fhir/us/qicore/StructureDefinition/qicore-condition"]},"category":[{"coding":[{"system":"http://terminology.hl7.org/CodeSystem/condition-category","code":"encounter-diagnosis","display":"Encounter Diagnosis"}]}],"code":{"coding":[{"system":"http://snomed.info/sct","version":"2022-09","code":"169826009","display":"Single live birth (finding)","userSelected":true}]},"subject":{"reference":"Patient/1674703c-e336-42fc-9afd-9e199e3943e7"},"recordedDate":"2025-10-21T08:00:00.000+00:00"},"request":{"method":"PUT","url":"Condition/cfd7fd87-429e-4be2-b3c8-86ec55d54748"}},{"fullUrl":"https://madie.cms.gov/Coverage/1","resource":{"resourceType":"Coverage","id":"0ebc6212-2d43-4483-adcd-8624d83f0c16","meta":{"profile":["http://hl7.org/fhir/us/qicore/StructureDefinition/qicore-coverage"]},"status":"active","beneficiary":{"reference":"Patient/1674703c-e336-42fc-9afd-9e199e3943e7"},"payor":[{"reference":"Organization/4b5a882f-1f43-485c-85c6-f5ad2337d5b1"}]},"request":{"method":"PUT","url":"Coverage/0ebc6212-2d43-4483-adcd-8624d83f0c16"}},{"fullUrl":"https://madie.cms.gov/Organization/123456","resource":{"resourceType":"Organization","id":"4b5a882f-1f43-485c-85c6-f5ad2337d5b1","meta":{"profile":["http://hl7.org/fhir/us/qicore/StructureDefinition/qicore-organization"]},"identifier":[{"use":"temp","system":"urn:oid:2.16.840.1.113883.4.4","value":"21-3259825"}],"active":true,"type":[{"coding":[{"system":"http://terminology.hl7.org/CodeSystem/organization-type","code":"pay","display":"Payer"}]}],"name":"Blue Cross Blue Shield of Texas","telecom":[{"system":"phone","value":"(+1) 972-766-6900"}],"address":[{"use":"billing","type":"postal","line":["P.O. Box 660044"],"city":"Dallas","state":"TX","postalCode":"75266-0044","country":"USA"}]},"request":{"method":"PUT","url":"Organization/4b5a882f-1f43-485c-85c6-f5ad2337d5b1"}},{"fullUrl":"https://madie.cms.gov/Practitioner/practitioner-123456","resource":{"resourceType":"Practitioner","id":"304d3308-1e96-41f2-9b73-bb7f37979675","identifier":[{"system":"http://hl7.org/fhir/sid/us-npi","value":"123456"}],"name":[{"family":"Evil","prefix":["Dr"]}]},"request":{"method":"PUT","url":"Practitioner/304d3308-1e96-41f2-9b73-bb7f37979675"}},{"fullUrl":"https://madie.cms.gov/MeasureReport/630acb02-0e59-4d6d-9092-3ba0fafd606b","resource":{"resourceType":"MeasureReport","id":"630acb02-0e59-4d6d-9092-3ba0fafd606b","meta":{"profile":["http://hl7.org/fhir/us/cqfmeasures/StructureDefinition/test-case-cqfm"]},"contained":[{"resourceType":"Parameters","id":"450ce31d-379c-4c94-8600-22d4210f5785-parameters","parameter":[{"name":"subject","valueString":"1674703c-e336-42fc-9afd-9e199e3943e7"}]}],"extension":[{"url":"http://hl7.org/fhir/us/cqfmeasures/StructureDefinition/cqfm-inputParameters","valueReference":{"reference":"#450ce31d-379c-4c94-8600-22d4210f5785-parameters"}},{"url":"http://hl7.org/fhir/us/cqfmeasures/StructureDefinition/cqfm-testCaseDescription","valueMarkdown":"\"Term Newborn=0,  <42wks B4 Asse delivery.\nPreterm=0, rel date/time 1 min after delivery date/time\n\n"}],"modifierExtension":[{"url":"http://hl7.org/fhir/us/cqfmeasures/StructureDefinition/cqfm-isTestCase","valueBoolean":true}],"status":"complete","type":"individual","measure":"https://madie.cms.gov/Measure/CesareanBirthFHIR","period":{"start":"2025-01-01","end":"2025-12-31"},"group":[{"population":[{"code":{"coding":[{"system":"http://terminology.hl7.org/CodeSystem/measure-population","code":"initial-population","display":"Initial Population"}]},"count":1},{"code":{"coding":[{"system":"http://terminology.hl7.org/CodeSystem/measure-population","code":"denominator","display":"Denominator"}]},"count":0},{"code":{"coding":[{"system":"http://terminology.hl7.org/CodeSystem/measure-population","code":"denominator-exclusion","display":"Denominator Exclusion"}]},"count":0},{"code":{"coding":[{"system":"http://terminology.hl7.org/CodeSystem/measure-population","code":"numerator","display":"Numerator"}]},"count":0}]}]},"request":{"method":"PUT","url":"MeasureReport/630acb02-0e59-4d6d-9092-3ba0fafd606b"}}]}