{"resourceType":"Bundle","id":"tests-09b062ec-b061-4f7c-be0f-d4f1423b352e-bundle","type":"transaction","entry":[{"fullUrl":"https://madie.cms.gov/Patient/09b062ec-b061-4f7c-be0f-d4f1423b352e","resource":{"resourceType":"Patient","id":"09b062ec-b061-4f7c-be0f-d4f1423b352e","meta":{"profile":["http://hl7.org/fhir/us/qicore/StructureDefinition/qicore-patient"]},"text":{"status":"generated","div":"<div xmlns=\"http://www.w3.org/1999/xhtml\"><div class=\"hapiHeaderText\">EncInpEndsB4MP <b>IPFAIL </b></div><table class=\"hapiPropertyTable\"><tbody><tr><td>Identifier</td><td>d6ba1863f4ff0948823fa062ff4cd900</td></tr><tr><td>Date of birth</td><td><span>28 August 1989</span></td></tr></tbody></table></div>"},"extension":[{"url":"http://hl7.org/fhir/us/core/StructureDefinition/us-core-race","extension":[{"url":"ombCategory","valueCoding":{"system":"urn:oid:2.16.840.1.113883.6.238","code":"1002-5","display":"American Indian or Alaska Native","userSelected":true}},{"url":"text","valueString":"American Indian or Alaska Native"}]},{"url":"http://hl7.org/fhir/us/core/StructureDefinition/us-core-ethnicity","extension":[{"url":"ombCategory","valueCoding":{"system":"urn:oid:2.16.840.1.113883.6.238","code":"2135-2","display":"Hispanic or Latino","userSelected":true}},{"url":"text","valueString":"Hispanic or Latino"}]}],"identifier":[{"type":{"coding":[{"system":"http://terminology.hl7.org/CodeSystem/v2-0203","code":"MR"}]},"system":"https://bonnie-fhir.healthit.gov/","value":"63487c2d0968f80122540142"}],"active":true,"name":[{"use":"usual","family":"IPFail","given":["EncInpEndsB4MP"]}],"gender":"female","birthDate":"1989-08-28"},"request":{"method":"PUT","url":"Patient/09b062ec-b061-4f7c-be0f-d4f1423b352e"}},{"fullUrl":"https://madie.cms.gov/Encounter/5d014eb2b848460872380636","resource":{"resourceType":"Encounter","id":"afec2ff6-b375-40ed-aa50-8fcf5e55f277","meta":{"profile":["http://hl7.org/fhir/us/qicore/StructureDefinition/qicore-encounter"]},"status":"finished","class":{"system":"http://terminology.hl7.org/CodeSystem/v3-ActCode","code":"IMP","display":"inpatient encounter"},"type":[{"coding":[{"system":"http://snomed.info/sct","code":"8715000"}]}],"subject":{"reference":"Patient/09b062ec-b061-4f7c-be0f-d4f1423b352e"},"period":{"start":"2024-12-01T08:00:00.000+00:00","end":"2024-12-31T08:00:00.000+00:00"},"diagnosis":[{"condition":{"reference":"Condition/Condition-2"},"use":{"coding":[{"system":"http://snomed.info/sct","code":"169826009","display":"Delivery of Singleton"}]}}]},"request":{"method":"PUT","url":"Encounter/afec2ff6-b375-40ed-aa50-8fcf5e55f277"}},{"fullUrl":"https://madie.cms.gov/Procedure/5e698f567ffec7000032370d","resource":{"resourceType":"Procedure","id":"c3019143-3dbd-4274-b267-e8f9b1fd62a5","meta":{"profile":["http://hl7.org/fhir/us/qicore/StructureDefinition/qicore-procedure"]},"extension":[{"url":"http://hl7.org/fhir/us/qicore/StructureDefinition/qicore-recorded","valueDateTime":"2013-04-05T09:35:00-04:00"}],"status":"completed","code":{"coding":[{"system":"http://snomed.info/sct","code":"10745001"}]},"subject":{"reference":"Patient/09b062ec-b061-4f7c-be0f-d4f1423b352e"},"performedPeriod":{"start":"2024-12-02T08:00:00.000Z","end":"2024-12-03T08:00:00.000Z"}},"request":{"method":"PUT","url":"Procedure/c3019143-3dbd-4274-b267-e8f9b1fd62a5"}},{"fullUrl":"https://madie.cms.gov/Coverage/1","resource":{"resourceType":"Coverage","id":"532616f9-bad4-42cd-9960-278069329f07","meta":{"profile":["http://hl7.org/fhir/us/qicore/StructureDefinition/qicore-coverage"]},"status":"active","beneficiary":{"reference":"Patient/09b062ec-b061-4f7c-be0f-d4f1423b352e"},"payor":[{"reference":"Organization/4b5a882f-1f43-485c-85c6-f5ad2337d5b1"}]},"request":{"method":"PUT","url":"Coverage/532616f9-bad4-42cd-9960-278069329f07"}},{"fullUrl":"https://madie.cms.gov/Organization/123456","resource":{"resourceType":"Organization","id":"4b5a882f-1f43-485c-85c6-f5ad2337d5b1","meta":{"profile":["http://hl7.org/fhir/us/qicore/StructureDefinition/qicore-organization"]},"identifier":[{"use":"temp","system":"urn:oid:2.16.840.1.113883.4.4","value":"21-3259825"}],"active":true,"type":[{"coding":[{"system":"http://terminology.hl7.org/CodeSystem/organization-type","code":"pay","display":"Payer"}]}],"name":"Blue Cross Blue Shield of Texas","telecom":[{"system":"phone","value":"(+1) 972-766-6900"}],"address":[{"use":"billing","type":"postal","line":["P.O. Box 660044"],"city":"Dallas","state":"TX","postalCode":"75266-0044","country":"USA"}]},"request":{"method":"PUT","url":"Organization/4b5a882f-1f43-485c-85c6-f5ad2337d5b1"}},{"fullUrl":"https://madie.cms.gov/Practitioner/practitioner-123456","resource":{"resourceType":"Practitioner","id":"0dcc738a-150d-4e0b-9714-f9acbf757eaa","identifier":[{"system":"http://hl7.org/fhir/sid/us-npi","value":"123456"}],"name":[{"family":"Evil","prefix":["Dr"]}]},"request":{"method":"PUT","url":"Practitioner/0dcc738a-150d-4e0b-9714-f9acbf757eaa"}},{"fullUrl":"https://madie.cms.gov/MeasureReport/a69dce18-487d-485d-8aca-12d1cc381d7d","resource":{"resourceType":"MeasureReport","id":"a69dce18-487d-485d-8aca-12d1cc381d7d","meta":{"profile":["http://hl7.org/fhir/us/cqfmeasures/StructureDefinition/test-case-cqfm"]},"contained":[{"resourceType":"Parameters","id":"891b2770-fe3a-4b2a-a3e1-fdbe48f2332d-parameters","parameter":[{"name":"subject","valueString":"09b062ec-b061-4f7c-be0f-d4f1423b352e"}]}],"extension":[{"url":"http://hl7.org/fhir/us/cqfmeasures/StructureDefinition/cqfm-inputParameters","valueReference":{"reference":"#891b2770-fe3a-4b2a-a3e1-fdbe48f2332d-parameters"}},{"url":"http://hl7.org/fhir/us/cqfmeasures/StructureDefinition/cqfm-testCaseDescription","valueMarkdown":"EncounterInpatient.relevantPeriod ends before \"Measurement Period\".  Fails IPP because it ends BEFORE MP.\n"}],"modifierExtension":[{"url":"http://hl7.org/fhir/us/cqfmeasures/StructureDefinition/cqfm-isTestCase","valueBoolean":true}],"status":"complete","type":"individual","measure":"https://madie.cms.gov/Measure/CesareanBirthFHIR","period":{"start":"2025-01-01","end":"2025-12-31"},"group":[{"population":[{"code":{"coding":[{"system":"http://terminology.hl7.org/CodeSystem/measure-population","code":"initial-population","display":"Initial Population"}]},"count":0},{"code":{"coding":[{"system":"http://terminology.hl7.org/CodeSystem/measure-population","code":"denominator","display":"Denominator"}]},"count":0},{"code":{"coding":[{"system":"http://terminology.hl7.org/CodeSystem/measure-population","code":"denominator-exclusion","display":"Denominator Exclusion"}]},"count":0},{"code":{"coding":[{"system":"http://terminology.hl7.org/CodeSystem/measure-population","code":"numerator","display":"Numerator"}]},"count":0}]}]},"request":{"method":"PUT","url":"MeasureReport/a69dce18-487d-485d-8aca-12d1cc381d7d"}}]}