{"resourceType":"Bundle","id":"tests-6e82e823-f955-43fa-8b8a-b9cd4ae27778-bundle","type":"transaction","entry":[{"fullUrl":"https://madie.cms.gov/Patient/6e82e823-f955-43fa-8b8a-b9cd4ae27778","resource":{"resourceType":"Patient","id":"6e82e823-f955-43fa-8b8a-b9cd4ae27778","meta":{"profile":["http://hl7.org/fhir/us/qicore/StructureDefinition/qicore-patient"]},"text":{"status":"generated","div":"<div xmlns=\"http://www.w3.org/1999/xhtml\"><div class=\"hapiHeaderText\">MedDscPatRsnDTimeEQEncStartTime <b>DENEXCEPPASS </b></div><table class=\"hapiPropertyTable\"><tbody><tr><td>Identifier</td><td>f27996c6545ea958dc5266f6c01bdf6c</td></tr><tr><td>Date of birth</td><td><span>21 August 1994</span></td></tr></tbody></table></div>"},"extension":[{"url":"http://hl7.org/fhir/us/core/StructureDefinition/us-core-race","extension":[{"url":"ombCategory","valueCoding":{"system":"urn:oid:2.16.840.1.113883.6.238","code":"1002-5","display":"American Indian or Alaska Native","userSelected":true}},{"url":"text","valueString":"American Indian or Alaska Native"}]},{"url":"http://hl7.org/fhir/us/core/StructureDefinition/us-core-ethnicity","extension":[{"url":"ombCategory","valueCoding":{"system":"urn:oid:2.16.840.1.113883.6.238","code":"2135-2","display":"Hispanic or Latino","userSelected":true}},{"url":"text","valueString":"Hispanic or Latino"}]}],"identifier":[{"type":{"coding":[{"system":"http://terminology.hl7.org/CodeSystem/v2-0203","code":"MR"}]},"system":"https://bonnie-fhir.healthit.gov/","value":"6129131902c62a011f2e5b40"}],"active":true,"name":[{"use":"usual","family":"DENEXCEPPass","given":["MedDscPatRsnDTimeEQEncStartTime"]}],"gender":"male","birthDate":"1994-08-21"},"request":{"method":"PUT","url":"Patient/6e82e823-f955-43fa-8b8a-b9cd4ae27778"}},{"fullUrl":"https://madie.cms.gov/Encounter/5d5ee14bb8484675e73bc4fb","resource":{"resourceType":"Encounter","id":"f6b8b3f4-8544-4762-84d7-6b51bab29759","meta":{"profile":["http://hl7.org/fhir/us/qicore/StructureDefinition/qicore-encounter"]},"status":"finished","class":{"system":"http://terminology.hl7.org/CodeSystem/v3-ActCode","code":"IMP","display":"inpatient encounter","userSelected":true},"type":[{"coding":[{"system":"http://snomed.info/sct","code":"32485007"}]}],"subject":{"reference":"Patient/6e82e823-f955-43fa-8b8a-b9cd4ae27778"},"period":{"start":"2025-10-10T09:30:00.000+00:00","end":"2025-10-12T10:30:00.000+00:00"},"length":{"value":2,"unit":"days"},"diagnosis":[{"condition":{"reference":"Condition/ischemic-stroke-f75f"},"use":{"coding":[{"system":"http://terminology.hl7.org/CodeSystem/diagnosis-role","code":"billing","display":"Billing"}]},"rank":1}]},"request":{"method":"PUT","url":"Encounter/f6b8b3f4-8544-4762-84d7-6b51bab29759"}},{"fullUrl":"https://madie.cms.gov/MedicationRequest/5d5ee14bb8484675e73bc4fd","resource":{"resourceType":"MedicationRequest","id":"3d45e684-67ec-4884-9f85-859f943ac9c6","meta":{"profile":["http://hl7.org/fhir/us/qicore/StructureDefinition/qicore-mednotrequested"]},"extension":[{"url":"http://hl7.org/fhir/us/qicore/StructureDefinition/qicore-medicationnotrequested","valueCodeableConcept":{"coding":[{"system":"http://www.nlm.nih.gov/research/umls/rxnorm","code":"1037045","display":"dabigatran etexilate 150 MG Oral Capsule","userSelected":true}]}}],"status":"completed","intent":"order","category":[{"coding":[{"system":"http://terminology.hl7.org/CodeSystem/medicationrequest-category","code":"community"}]}],"doNotPerform":true,"medicationCodeableConcept":{"coding":[{"system":"http://www.nlm.nih.gov/research/umls/rxnorm","code":"1037045","display":"dabigatran etexilate 150 MG Oral Capsule","userSelected":true}]},"subject":{"reference":"Patient/6e82e823-f955-43fa-8b8a-b9cd4ae27778"},"authoredOn":"2025-10-09T09:30:00.000+00:00","requester":{"reference":"Practitioner/example"},"reasonCode":[{"coding":[{"system":"http://snomed.info/sct","code":"105480006","display":"Refusal of treatment by patient (situation)"}]}]},"request":{"method":"PUT","url":"MedicationRequest/3d45e684-67ec-4884-9f85-859f943ac9c6"}},{"fullUrl":"https://madie.cms.gov/Condition/ischemic-stroke-f75f","resource":{"resourceType":"Condition","id":"082f93ae-afe7-4409-8599-3a7f29b0ab09","meta":{"profile":["http://hl7.org/fhir/us/qicore/StructureDefinition/qicore-condition"]},"clinicalStatus":{"coding":[{"system":"http://terminology.hl7.org/CodeSystem/condition-clinical","code":"active"}]},"verificationStatus":{"coding":[{"system":"http://terminology.hl7.org/CodeSystem/condition-ver-status","code":"confirmed"}]},"category":[{"coding":[{"system":"http://terminology.hl7.org/CodeSystem/condition-category","code":"encounter-diagnosis","display":"Encounter Diagnosis"}]}],"code":{"coding":[{"system":"http://snomed.info/sct","version":"2020-09","code":"111297002","display":"Nonparalytic stroke (disorder)","userSelected":true}]},"subject":{"reference":"Patient/6e82e823-f955-43fa-8b8a-b9cd4ae27778"},"recordedDate":"2025-07-13T08:00:00.000+00:00"},"request":{"method":"PUT","url":"Condition/082f93ae-afe7-4409-8599-3a7f29b0ab09"}},{"fullUrl":"https://madie.cms.gov/Coverage/1","resource":{"resourceType":"Coverage","id":"aa72b532-a11d-400d-85db-ac60e01c3b68","meta":{"profile":["http://hl7.org/fhir/us/qicore/StructureDefinition/qicore-coverage"]},"status":"active","beneficiary":{"reference":"Patient/6e82e823-f955-43fa-8b8a-b9cd4ae27778"},"payor":[{"reference":"Organization/26111c91-b0e2-476c-a20b-e3f39799f8f5"}]},"request":{"method":"PUT","url":"Coverage/aa72b532-a11d-400d-85db-ac60e01c3b68"}},{"fullUrl":"https://madie.cms.gov/Organization/123456","resource":{"resourceType":"Organization","id":"26111c91-b0e2-476c-a20b-e3f39799f8f5","meta":{"profile":["http://hl7.org/fhir/us/qicore/StructureDefinition/qicore-organization"]},"identifier":[{"use":"temp","system":"urn:oid:2.16.840.1.113883.4.4","value":"21-3259825"}],"active":true,"type":[{"coding":[{"system":"http://terminology.hl7.org/CodeSystem/organization-type","code":"pay","display":"Payer"}]}],"name":"Blue Cross Blue Shield of Texas","telecom":[{"system":"phone","value":"(+1) 972-766-6900"}],"address":[{"use":"billing","type":"postal","line":["P.O. Box 660044"],"city":"Dallas","state":"TX","postalCode":"75266-0044","country":"USA"}]},"request":{"method":"PUT","url":"Organization/26111c91-b0e2-476c-a20b-e3f39799f8f5"}},{"fullUrl":"https://madie.cms.gov/MeasureReport/45898e03-ef0d-444a-8fac-502e17b72c78","resource":{"resourceType":"MeasureReport","id":"45898e03-ef0d-444a-8fac-502e17b72c78","meta":{"profile":["http://hl7.org/fhir/us/cqfmeasures/StructureDefinition/test-case-cqfm"]},"contained":[{"resourceType":"Parameters","id":"52d9d2b0-2385-4ad2-8d89-e17d063d5f9c-parameters","parameter":[{"name":"subject","valueString":"6e82e823-f955-43fa-8b8a-b9cd4ae27778"}]}],"extension":[{"url":"http://hl7.org/fhir/us/cqfmeasures/StructureDefinition/cqfm-inputParameters","valueReference":{"reference":"#52d9d2b0-2385-4ad2-8d89-e17d063d5f9c-parameters"}}],"modifierExtension":[{"url":"http://hl7.org/fhir/us/cqfmeasures/StructureDefinition/cqfm-isTestCase","valueBoolean":true}],"status":"complete","type":"individual","measure":"https://madie.cms.gov/Measure/DischargedonAntithromboticTherapyFHIR","period":{"start":"2025-01-01","end":"2025-12-31"},"group":[{"population":[{"code":{"coding":[{"system":"http://terminology.hl7.org/CodeSystem/measure-population","code":"initial-population","display":"Initial Population"}]},"count":1},{"code":{"coding":[{"system":"http://terminology.hl7.org/CodeSystem/measure-population","code":"denominator","display":"Denominator"}]},"count":1},{"code":{"coding":[{"system":"http://terminology.hl7.org/CodeSystem/measure-population","code":"denominator-exclusion","display":"Denominator Exclusion"}]},"count":0},{"code":{"coding":[{"system":"http://terminology.hl7.org/CodeSystem/measure-population","code":"numerator","display":"Numerator"}]},"count":0},{"code":{"coding":[{"system":"http://terminology.hl7.org/CodeSystem/measure-population","code":"denominator-exception","display":"Denominator Exception"}]},"count":0}]}]},"request":{"method":"PUT","url":"MeasureReport/45898e03-ef0d-444a-8fac-502e17b72c78"}}]}