{"resourceType":"Bundle","id":"tests-0b1aa8ee-e8bf-49f5-b968-48c5a9702843-bundle","type":"transaction","entry":[{"fullUrl":"https://madie.cms.gov/Patient/0b1aa8ee-e8bf-49f5-b968-48c5a9702843","resource":{"resourceType":"Patient","id":"0b1aa8ee-e8bf-49f5-b968-48c5a9702843","meta":{"profile":["http://hl7.org/fhir/us/qicore/StructureDefinition/qicore-patient"]},"text":{"status":"generated","div":"<div xmlns=\"http://www.w3.org/1999/xhtml\"><div class=\"hapiHeaderText\">CMOdurED_ED=1hrNoObsBFEnc <b>DENEXPASS </b></div><table class=\"hapiPropertyTable\"><tbody><tr><td>Identifier</td><td>670854918483ca8b7894283bd5cddbcf5037c5392991b8777bf3c4f78ed05f0b</td></tr><tr><td>Date of birth</td><td><span>18 September 1985</span></td></tr></tbody></table></div>"},"extension":[{"url":"http://hl7.org/fhir/us/core/StructureDefinition/us-core-race","extension":[{"url":"ombCategory","valueCoding":{"system":"urn:oid:2.16.840.1.113883.6.238","code":"1002-5","display":"American Indian or Alaska Native","userSelected":true}},{"url":"text","valueString":"American Indian or Alaska Native"}]},{"url":"http://hl7.org/fhir/us/core/StructureDefinition/us-core-ethnicity","extension":[{"url":"ombCategory","valueCoding":{"system":"urn:oid:2.16.840.1.113883.6.238","code":"2135-2","display":"Hispanic or Latino","userSelected":true}},{"url":"text","valueString":"Hispanic or Latino"}]}],"identifier":[{"type":{"coding":[{"system":"http://terminology.hl7.org/CodeSystem/v2-0203","code":"MR"}]},"system":"https://bonnie-fhir.healthit.gov/","value":"633c9d040968f8012250fca3"}],"active":true,"name":[{"use":"usual","family":"DENEXFail","given":["CMOdurEDEDEQ1hrNoObsBFEncdoNotPerform"]}],"gender":"female","birthDate":"1985-09-18"},"request":{"method":"PUT","url":"Patient/0b1aa8ee-e8bf-49f5-b968-48c5a9702843"}},{"fullUrl":"https://madie.cms.gov/Condition/5c953f97b848462de0ae414a","resource":{"resourceType":"Condition","id":"844f848a-ef7c-478b-a7b7-e3700ec1a868","meta":{"profile":["http://hl7.org/fhir/us/qicore/StructureDefinition/qicore-condition"]},"clinicalStatus":{"coding":[{"system":"http://terminology.hl7.org/CodeSystem/condition-clinical","code":"inactive"}]},"verificationStatus":{"coding":[{"system":"http://terminology.hl7.org/CodeSystem/condition-ver-status","code":"confirmed"}]},"category":[{"coding":[{"system":"http://terminology.hl7.org/CodeSystem/condition-category","code":"encounter-diagnosis","display":"Encounter Diagnosis"}]}],"code":{"coding":[{"system":"http://hl7.org/fhir/sid/icd-10-cm","code":"I48.20"},{"system":"http://hl7.org/fhir/sid/icd-10-cm","code":"I48.0"},{"system":"http://snomed.info/sct","code":"5370000"}]},"subject":{"reference":"Patient/0b1aa8ee-e8bf-49f5-b968-48c5a9702843"},"onsetDateTime":"2025-10-01T09:01:00.000Z","abatementDateTime":"2025-10-12T00:15:00.000Z"},"request":{"method":"PUT","url":"Condition/844f848a-ef7c-478b-a7b7-e3700ec1a868"}},{"fullUrl":"https://madie.cms.gov/Encounter/5c953f97b848462de0ae414b","resource":{"resourceType":"Encounter","id":"239c39c7-2738-4fd1-b271-d03e273dc9ba","meta":{"profile":["http://hl7.org/fhir/us/qicore/StructureDefinition/qicore-encounter"]},"status":"finished","class":{"system":"http://terminology.hl7.org/CodeSystem/v3-ActCode","code":"EMER","display":"emergency"},"type":[{"coding":[{"system":"http://snomed.info/sct","code":"4525004"}]}],"subject":{"reference":"Patient/0b1aa8ee-e8bf-49f5-b968-48c5a9702843"},"period":{"start":"2025-10-01T09:01:00.000Z","end":"2025-10-01T12:15:00.000Z"},"length":{"value":0,"unit":"days"}},"request":{"method":"PUT","url":"Encounter/239c39c7-2738-4fd1-b271-d03e273dc9ba"}},{"fullUrl":"https://madie.cms.gov/Encounter/5c953f97b848462de0ae414c","resource":{"resourceType":"Encounter","id":"0d6c478f-db3b-452e-9204-f82f22f0b18a","meta":{"profile":["http://hl7.org/fhir/us/qicore/StructureDefinition/qicore-encounter"]},"status":"finished","class":{"system":"http://terminology.hl7.org/CodeSystem/v3-ActCode","code":"IMP","display":"inpatient encounter"},"type":[{"coding":[{"system":"http://snomed.info/sct","code":"32485007"}]}],"subject":{"reference":"Patient/0b1aa8ee-e8bf-49f5-b968-48c5a9702843"},"period":{"start":"2025-10-01T13:15:00.000Z","end":"2025-10-12T00:15:00.000Z"},"length":{"value":11,"unit":"days"},"diagnosis":[{"condition":{"reference":"Condition/ischemic-stroke-1963"},"use":{"coding":[{"system":"http://terminology.hl7.org/CodeSystem/diagnosis-role","code":"billing","display":"Billing"}]},"rank":1}]},"request":{"method":"PUT","url":"Encounter/0d6c478f-db3b-452e-9204-f82f22f0b18a"}},{"fullUrl":"https://madie.cms.gov/ServiceRequest/5c953f97b848462de0ae414e","resource":{"resourceType":"ServiceRequest","id":"1064a6ed-5057-4442-a599-c62f17efe177","meta":{"profile":["http://hl7.org/fhir/us/qicore/StructureDefinition/qicore-servicerequest"]},"status":"active","intent":"order","doNotPerform":false,"code":{"coding":[{"system":"http://snomed.info/sct","code":"133918004"}]},"subject":{"reference":"Patient/0b1aa8ee-e8bf-49f5-b968-48c5a9702843"},"authoredOn":"2025-10-01T09:15:00.000+00:00"},"request":{"method":"PUT","url":"ServiceRequest/1064a6ed-5057-4442-a599-c62f17efe177"}},{"fullUrl":"https://madie.cms.gov/Coverage/5f2c53cf1c76ba5c99605789","resource":{"resourceType":"Coverage","id":"8d83e00f-54f4-4881-bf8c-7a58e614eb6b","status":"active","beneficiary":{"reference":"Patient/0b1aa8ee-e8bf-49f5-b968-48c5a9702843"},"period":{"start":"1985-09-18T08:00:00.000Z"},"payor":[{"reference":"Organization/26111c91-b0e2-476c-a20b-e3f39799f8f5"}]},"request":{"method":"PUT","url":"Coverage/8d83e00f-54f4-4881-bf8c-7a58e614eb6b"}},{"fullUrl":"https://madie.cms.gov/Condition/ischemic-stroke-1963","resource":{"resourceType":"Condition","id":"43ee85a2-471f-4a55-a899-7589cb139463","meta":{"profile":["http://hl7.org/fhir/us/qicore/StructureDefinition/qicore-condition"]},"clinicalStatus":{"coding":[{"system":"http://terminology.hl7.org/CodeSystem/condition-clinical","code":"active"}]},"verificationStatus":{"coding":[{"system":"http://terminology.hl7.org/CodeSystem/condition-ver-status","code":"confirmed"}]},"category":[{"coding":[{"system":"http://terminology.hl7.org/CodeSystem/condition-category","code":"encounter-diagnosis","display":"Encounter Diagnosis"}]}],"code":{"coding":[{"system":"http://snomed.info/sct","version":"2021-09","code":"111297002","display":"Nonparalytic stroke (disorder)","userSelected":true}]},"subject":{"reference":"Patient/0b1aa8ee-e8bf-49f5-b968-48c5a9702843"},"recordedDate":"2025-10-13T08:00:00.000+00:00"},"request":{"method":"PUT","url":"Condition/43ee85a2-471f-4a55-a899-7589cb139463"}},{"fullUrl":"https://madie.cms.gov/Organization/123456","resource":{"resourceType":"Organization","id":"26111c91-b0e2-476c-a20b-e3f39799f8f5","meta":{"profile":["http://hl7.org/fhir/us/qicore/StructureDefinition/qicore-organization"]},"identifier":[{"use":"temp","system":"urn:oid:2.16.840.1.113883.4.4","value":"21-3259825"}],"active":true,"type":[{"coding":[{"system":"http://terminology.hl7.org/CodeSystem/organization-type","code":"pay","display":"Payer"}]}],"name":"Blue Cross Blue Shield of Texas","telecom":[{"system":"phone","value":"(+1) 972-766-6900"}],"address":[{"use":"billing","type":"postal","line":["P.O. Box 660044"],"city":"Dallas","state":"TX","postalCode":"75266-0044","country":"USA"}]},"request":{"method":"PUT","url":"Organization/26111c91-b0e2-476c-a20b-e3f39799f8f5"}},{"fullUrl":"https://madie.cms.gov/Practitioner/practitioner-123456","resource":{"resourceType":"Practitioner","id":"62f4b9c2-7bd8-42e2-a700-056354d224e8","identifier":[{"system":"http://hl7.org/fhir/sid/us-npi","value":"123456"}],"name":[{"family":"Evil","prefix":["Dr"]}]},"request":{"method":"PUT","url":"Practitioner/62f4b9c2-7bd8-42e2-a700-056354d224e8"}},{"fullUrl":"https://madie.cms.gov/MeasureReport/29b22356-969f-4431-9292-700f0e5564b5","resource":{"resourceType":"MeasureReport","id":"29b22356-969f-4431-9292-700f0e5564b5","meta":{"profile":["http://hl7.org/fhir/us/cqfmeasures/StructureDefinition/test-case-cqfm"]},"contained":[{"resourceType":"Parameters","id":"9738d597-d189-435c-94b1-4343f424951b-parameters","parameter":[{"name":"subject","valueString":"0b1aa8ee-e8bf-49f5-b968-48c5a9702843"}]}],"extension":[{"url":"http://hl7.org/fhir/us/cqfmeasures/StructureDefinition/cqfm-inputParameters","valueReference":{"reference":"#9738d597-d189-435c-94b1-4343f424951b-parameters"}},{"url":"http://hl7.org/fhir/us/cqfmeasures/StructureDefinition/cqfm-testCaseDescription","valueMarkdown":"Testing do not perform not true"}],"modifierExtension":[{"url":"http://hl7.org/fhir/us/cqfmeasures/StructureDefinition/cqfm-isTestCase","valueBoolean":true}],"status":"complete","type":"individual","measure":"https://madie.cms.gov/Measure/DischargedonAntithromboticTherapyFHIR","period":{"start":"2025-01-01","end":"2025-12-31"},"group":[{"population":[{"code":{"coding":[{"system":"http://terminology.hl7.org/CodeSystem/measure-population","code":"initial-population","display":"Initial Population"}]},"count":1},{"code":{"coding":[{"system":"http://terminology.hl7.org/CodeSystem/measure-population","code":"denominator","display":"Denominator"}]},"count":1},{"code":{"coding":[{"system":"http://terminology.hl7.org/CodeSystem/measure-population","code":"denominator-exclusion","display":"Denominator Exclusion"}]},"count":1},{"code":{"coding":[{"system":"http://terminology.hl7.org/CodeSystem/measure-population","code":"numerator","display":"Numerator"}]},"count":0},{"code":{"coding":[{"system":"http://terminology.hl7.org/CodeSystem/measure-population","code":"denominator-exception","display":"Denominator Exception"}]},"count":0}]}]},"request":{"method":"PUT","url":"MeasureReport/29b22356-969f-4431-9292-700f0e5564b5"}}]}