{
  "resourceType": "Bundle",
  "id": "DENEXPass-EncWithTonsillitis",
  "type": "transaction",
  "entry": [ {
    "fullUrl": "https://madie.cms.gov/Patient/482ffdf6-99e3-47f5-aeeb-1bdcdb423222",
    "resource": {
      "resourceType": "Patient",
      "id": "482ffdf6-99e3-47f5-aeeb-1bdcdb423222",
      "meta": {
        "profile": [ "http://hl7.org/fhir/us/qicore/StructureDefinition/qicore-patient" ]
      },
      "extension": [ {
        "url": "http://hl7.org/fhir/us/core/StructureDefinition/us-core-race",
        "extension": [ {
          "url": "ombCategory",
          "valueCoding": {
            "system": "urn:oid:2.16.840.1.113883.6.238",
            "code": "2028-9",
            "display": "Asian",
            "userSelected": true
          }
        }, {
          "url": "text",
          "valueString": "Asian"
        } ]
      }, {
        "url": "http://hl7.org/fhir/us/core/StructureDefinition/us-core-ethnicity",
        "extension": [ {
          "url": "ombCategory",
          "valueCoding": {
            "system": "urn:oid:2.16.840.1.113883.6.238",
            "code": "2135-2",
            "display": "Hispanic or Latino",
            "userSelected": true
          }
        }, {
          "url": "text",
          "valueString": "Hispanic or Latino"
        } ]
      } ],
      "identifier": [ {
        "type": {
          "coding": [ {
            "system": "http://terminology.hl7.org/CodeSystem/v2-0203",
            "code": "MR"
          } ]
        },
        "system": "http://hospital.smarthealthit.org",
        "value": "999999995"
      } ],
      "name": [ {
        "family": "Bertha",
        "given": [ "Betty" ]
      } ],
      "gender": "female",
      "birthDate": "2020-01-01"
    },
    "request": {
      "method": "POST",
      "url": "Patient/482ffdf6-99e3-47f5-aeeb-1bdcdb423222"
    }
  }, {
    "fullUrl": "https://madie.cms.gov/Encounter/Encounter-1",
    "resource": {
      "resourceType": "Encounter",
      "id": "Encounter-1",
      "meta": {
        "profile": [ "http://hl7.org/fhir/us/qicore/StructureDefinition/qicore-encounter" ]
      },
      "status": "finished",
      "class": {
        "system": "http://terminology.hl7.org/CodeSystem/v3-ActCode",
        "code": "AMB",
        "display": "ambulatory"
      },
      "type": [ {
        "coding": [ {
          "system": "http://snomed.info/sct",
          "code": "185317003",
          "display": "Telephone encounter (procedure)"
        } ]
      } ],
      "subject": {
        "reference": "Patient/482ffdf6-99e3-47f5-aeeb-1bdcdb423222"
      },
      "period": {
        "start": "2025-01-01T01:00:00.000Z",
        "end": "2025-01-01T01:15:00.000Z"
      }
    },
    "request": {
      "method": "POST",
      "url": "Encounter/Encounter-1"
    }
  }, {
    "fullUrl": "https://madie.cms.gov/Condition/Condition-1",
    "resource": {
      "resourceType": "Condition",
      "id": "Condition-1",
      "meta": {
        "profile": [ "http://hl7.org/fhir/us/qicore/StructureDefinition/qicore-condition" ]
      },
      "clinicalStatus": {
        "coding": [ {
          "system": "http://terminology.hl7.org/CodeSystem/condition-clinical",
          "code": "active"
        } ]
      },
      "category": [ {
        "coding": [ {
          "system": "http://terminology.hl7.org/CodeSystem/condition-category",
          "code": "problem-list-item",
          "display": "Problem List Item"
        } ]
      } ],
      "code": {
        "coding": [ {
          "system": "http://snomed.info/sct",
          "code": "54398005",
          "display": "Acute upper respiratory infection (disorder)"
        } ]
      },
      "subject": {
        "reference": "Patient/482ffdf6-99e3-47f5-aeeb-1bdcdb423222"
      },
      "onsetDateTime": "2024-12-31T01:00:00.000Z"
    },
    "request": {
      "method": "POST",
      "url": "Condition/Condition-1"
    }
  }, {
    "fullUrl": "https://madie.cms.gov/Condition/Condition-2",
    "resource": {
      "resourceType": "Condition",
      "id": "Condition-2",
      "meta": {
        "profile": [ "http://hl7.org/fhir/us/qicore/StructureDefinition/qicore-condition" ]
      },
      "clinicalStatus": {
        "coding": [ {
          "system": "http://terminology.hl7.org/CodeSystem/condition-clinical",
          "code": "active"
        } ]
      },
      "category": [ {
        "coding": [ {
          "system": "http://terminology.hl7.org/CodeSystem/condition-category",
          "code": "problem-list-item",
          "display": "Problem List Item"
        } ]
      } ],
      "code": {
        "coding": [ {
          "system": "http://snomed.info/sct",
          "code": "17741008",
          "display": "Acute tonsillitis (disorder)"
        } ]
      },
      "subject": {
        "reference": "Patient/482ffdf6-99e3-47f5-aeeb-1bdcdb423222"
      },
      "onsetDateTime": "2025-01-02T00:00:00.000Z"
    },
    "request": {
      "method": "POST",
      "url": "Condition/Condition-2"
    }
  }, {
    "fullUrl": "https://madie.cms.gov/MeasureReport/7d7f3990-340e-41e3-b295-162306723858",
    "resource": {
      "resourceType": "MeasureReport",
      "id": "7d7f3990-340e-41e3-b295-162306723858",
      "meta": {
        "profile": [ "http://hl7.org/fhir/us/cqfmeasures/StructureDefinition/test-case-cqfm" ]
      },
      "contained": [ {
        "resourceType": "Parameters",
        "id": "39f3e49c-d3a4-4316-a3ea-ba2fb09e07c3-parameters",
        "parameter": [ {
          "name": "subject",
          "valueString": "482ffdf6-99e3-47f5-aeeb-1bdcdb423222"
        } ]
      } ],
      "extension": [ {
        "url": "http://hl7.org/fhir/us/cqfmeasures/StructureDefinition/cqfm-inputParameters",
        "valueReference": {
          "reference": "#39f3e49c-d3a4-4316-a3ea-ba2fb09e07c3-parameters"
        }
      }, {
        "url": "http://hl7.org/fhir/us/cqfmeasures/StructureDefinition/cqfm-testCaseDescription",
        "valueMarkdown": "Encounter with competing diagnosis - Tonsillitis"
      } ],
      "modifierExtension": [ {
        "url": "http://hl7.org/fhir/us/cqfmeasures/StructureDefinition/cqfm-isTestCase",
        "valueBoolean": true
      } ],
      "status": "complete",
      "type": "individual",
      "measure": "https://madie.cms.gov/Measure/AppropriateTreatmentforUpperRespiratoryInfectionURIFHIR",
      "period": {
        "start": "2025-01-01",
        "end": "2025-12-31"
      },
      "group": [ {
        "population": [ {
          "code": {
            "coding": [ {
              "system": "http://terminology.hl7.org/CodeSystem/measure-population",
              "code": "initial-population",
              "display": "Initial Population"
            } ]
          },
          "count": 1
        }, {
          "code": {
            "coding": [ {
              "system": "http://terminology.hl7.org/CodeSystem/measure-population",
              "code": "denominator",
              "display": "Denominator"
            } ]
          },
          "count": 1
        }, {
          "code": {
            "coding": [ {
              "system": "http://terminology.hl7.org/CodeSystem/measure-population",
              "code": "denominator-exclusion",
              "display": "Denominator Exclusion"
            } ]
          },
          "count": 1
        }, {
          "code": {
            "coding": [ {
              "system": "http://terminology.hl7.org/CodeSystem/measure-population",
              "code": "numerator",
              "display": "Numerator"
            } ]
          },
          "count": 0
        } ]
      } ],
      "evaluatedResource": [ {
        "reference": "https://madie.cms.gov/Patient/482ffdf6-99e3-47f5-aeeb-1bdcdb423222"
      }, {
        "reference": "https://madie.cms.gov/Encounter/Encounter-1"
      }, {
        "reference": "https://madie.cms.gov/Condition/Condition-1"
      }, {
        "reference": "https://madie.cms.gov/Condition/Condition-2"
      } ]
    },
    "request": {
      "method": "POST",
      "url": "MeasureReport/7d7f3990-340e-41e3-b295-162306723858"
    }
  } ]
}