{"resourceType":"Bundle","id":"tests-6127705f-6f70-4134-9c87-1129389bea42-bundle","type":"transaction","entry":[{"fullUrl":"https://madie.cms.gov/Patient/6127705f-6f70-4134-9c87-1129389bea42","resource":{"resourceType":"Patient","id":"6127705f-6f70-4134-9c87-1129389bea42","meta":{"profile":["http://hl7.org/fhir/us/qicore/StructureDefinition/qicore-patient"]},"text":{"status":"generated","div":"<div xmlns=\"http://www.w3.org/1999/xhtml\"><div class=\"hapiHeaderText\">Turns 18 day of Encounter <b>DENOMPASS </b></div><table class=\"hapiPropertyTable\"><tbody><tr><td>Identifier</td><td>f0eda1c9668fdacdcad3378589bf6e0a71e7dec1618f14fca4d442ec96e402b1</td></tr><tr><td>Date of birth</td><td><span>07 April 2006</span></td></tr></tbody></table></div>"},"extension":[{"url":"http://hl7.org/fhir/us/core/StructureDefinition/us-core-race","extension":[{"url":"ombCategory","valueCoding":{"system":"urn:oid:2.16.840.1.113883.6.238","code":"1002-5","display":"American Indian or Alaska Native","userSelected":true}},{"url":"text","valueString":"American Indian or Alaska Native"}]},{"url":"http://hl7.org/fhir/us/core/StructureDefinition/us-core-ethnicity","extension":[{"url":"ombCategory","valueCoding":{"system":"urn:oid:2.16.840.1.113883.6.238","code":"2135-2","display":"Hispanic or Latino","userSelected":true}},{"url":"text","valueString":"Hispanic or Latino"}]}],"identifier":[{"type":{"coding":[{"system":"http://terminology.hl7.org/CodeSystem/v2-0203","code":"MR"}]},"system":"https://bonnie-fhir.healthit.gov/","value":"627a80a15a0d870123c7253c"}],"active":true,"name":[{"use":"usual","family":"DENOMPass","given":["Age17InEDAge18DayOfIPAdmit"]}],"gender":"male","birthDate":"2007-04-07"},"request":{"method":"PUT","url":"Patient/6127705f-6f70-4134-9c87-1129389bea42"}},{"fullUrl":"https://madie.cms.gov/Encounter/5e8cd15e931f9c0000abd8b3","resource":{"resourceType":"Encounter","id":"f97d86d9-1e6e-4134-9fef-1aecc815def3","meta":{"profile":["http://hl7.org/fhir/us/qicore/StructureDefinition/qicore-encounter"]},"status":"finished","class":{"system":"http://terminology.hl7.org/CodeSystem/v3-ActCode","code":"EMER","display":"emergency"},"type":[{"coding":[{"system":"http://snomed.info/sct","code":"4525004"}]}],"subject":{"reference":"Patient/6127705f-6f70-4134-9c87-1129389bea42"},"period":{"start":"2025-04-06T08:00:00.000+00:00","end":"2025-04-07T08:15:00.000+00:00"}},"request":{"method":"PUT","url":"Encounter/f97d86d9-1e6e-4134-9fef-1aecc815def3"}},{"fullUrl":"https://madie.cms.gov/Encounter/5e8cd170931f9c0000abd8cd","resource":{"resourceType":"Encounter","id":"8e3b4918-c29b-48e6-a6c8-a69a2f504445","meta":{"profile":["http://hl7.org/fhir/us/qicore/StructureDefinition/qicore-encounter"]},"status":"finished","class":{"system":"http://terminology.hl7.org/CodeSystem/v3-ActCode","code":"IMP","display":"inpatient encounter"},"type":[{"coding":[{"system":"http://snomed.info/sct","code":"183452005"}]}],"subject":{"reference":"Patient/6127705f-6f70-4134-9c87-1129389bea42"},"period":{"start":"2025-04-07T09:00:00.000+00:00","end":"2025-04-10T08:15:00.000+00:00"}},"request":{"method":"PUT","url":"Encounter/8e3b4918-c29b-48e6-a6c8-a69a2f504445"}},{"fullUrl":"https://madie.cms.gov/MedicationAdministration/5e8cd20c931f9c0000abd93d","resource":{"resourceType":"MedicationAdministration","id":"27f4c400-b32d-4d5c-b116-a74135792a73","meta":{"profile":["http://hl7.org/fhir/us/qicore/StructureDefinition/qicore-medicationadministration"]},"status":"completed","medicationCodeableConcept":{"coding":[{"system":"http://www.nlm.nih.gov/research/umls/rxnorm","code":"1010600"}]},"subject":{"reference":"Patient/6127705f-6f70-4134-9c87-1129389bea42"},"effectivePeriod":{"start":"2025-04-07T08:00:00.000Z","end":"2025-04-07T08:15:00.000Z"}},"request":{"method":"PUT","url":"MedicationAdministration/27f4c400-b32d-4d5c-b116-a74135792a73"}},{"fullUrl":"https://madie.cms.gov/MeasureReport/452023e4-2ece-48b4-a2bb-a646d0f3ba3b","resource":{"resourceType":"MeasureReport","id":"452023e4-2ece-48b4-a2bb-a646d0f3ba3b","meta":{"profile":["http://hl7.org/fhir/us/cqfmeasures/StructureDefinition/test-case-cqfm"]},"contained":[{"resourceType":"Parameters","id":"e46acd75-28d6-4cc8-aa58-eef1b3d9a111-parameters","parameter":[{"name":"subject","valueString":"6127705f-6f70-4134-9c87-1129389bea42"}]}],"extension":[{"url":"http://hl7.org/fhir/us/cqfmeasures/StructureDefinition/cqfm-inputParameters","valueReference":{"reference":"#e46acd75-28d6-4cc8-aa58-eef1b3d9a111-parameters"}},{"url":"http://hl7.org/fhir/us/cqfmeasures/StructureDefinition/cqfm-testCaseDescription","valueMarkdown":"Inpatient encounter where patient was 17 while in ED, turns 18 on day of IP admit. Meets denominator criteria of 18 when IP. "}],"modifierExtension":[{"url":"http://hl7.org/fhir/us/cqfmeasures/StructureDefinition/cqfm-isTestCase","valueBoolean":true}],"status":"complete","type":"individual","measure":"https://madie.cms.gov/Measure/HospitalHarmOpioidRelatedAdverseEventsFHIR","period":{"start":"2025-01-01","end":"2025-12-31"},"group":[{"population":[{"code":{"coding":[{"system":"http://terminology.hl7.org/CodeSystem/measure-population","code":"initial-population","display":"Initial Population"}]},"count":1},{"code":{"coding":[{"system":"http://terminology.hl7.org/CodeSystem/measure-population","code":"denominator","display":"Denominator"}]},"count":1},{"code":{"coding":[{"system":"http://terminology.hl7.org/CodeSystem/measure-population","code":"numerator","display":"Numerator"}]},"count":0}]}]},"request":{"method":"PUT","url":"MeasureReport/452023e4-2ece-48b4-a2bb-a646d0f3ba3b"}}]}