{"resourceType":"Bundle","id":"tests-1c8afa5f-9bea-4d6a-9679-0cd87a7960e0-bundle","type":"transaction","entry":[{"fullUrl":"https://madie.cms.gov/Patient/1c8afa5f-9bea-4d6a-9679-0cd87a7960e0","resource":{"resourceType":"Patient","id":"1c8afa5f-9bea-4d6a-9679-0cd87a7960e0","meta":{"profile":["http://hl7.org/fhir/us/qicore/StructureDefinition/qicore-patient"]},"text":{"status":"generated","div":"<div xmlns=\"http://www.w3.org/1999/xhtml\"><div class=\"hapiHeaderText\">Opioid During Encounter <b>DENOMPASS </b></div><table class=\"hapiPropertyTable\"><tbody><tr><td>Date of birth</td><td><span>12 December 1960</span></td></tr></tbody></table></div>"},"extension":[{"url":"http://hl7.org/fhir/us/core/StructureDefinition/us-core-race","extension":[{"url":"ombCategory","valueCoding":{"system":"urn:oid:2.16.840.1.113883.6.238","code":"1002-5","display":"American Indian or Alaska Native","userSelected":true}},{"url":"text","valueString":"American Indian or Alaska Native"}]},{"url":"http://hl7.org/fhir/us/core/StructureDefinition/us-core-ethnicity","extension":[{"url":"ombCategory","valueCoding":{"system":"urn:oid:2.16.840.1.113883.6.238","code":"2135-2","display":"Hispanic or Latino","userSelected":true}},{"url":"text","valueString":"Hispanic or Latino"}]}],"identifier":[{"type":{"coding":[{"system":"http://terminology.hl7.org/CodeSystem/v2-0203","code":"MR"}]},"system":"https://bonnie-fhir.healthit.gov/","value":"63ebca313a185823ad7e0767"}],"active":true,"name":[{"use":"usual","family":"IPPFail","given":["OpioidInOperatingRoom"]}],"gender":"other","birthDate":"1960-12-12"},"request":{"method":"PUT","url":"Patient/1c8afa5f-9bea-4d6a-9679-0cd87a7960e0"}},{"fullUrl":"https://madie.cms.gov/Encounter/5e8cccc8931f9c0000abd5b9","resource":{"resourceType":"Encounter","id":"eb40350e-bc23-47f6-9745-ebef31bd17b8","meta":{"profile":["http://hl7.org/fhir/us/qicore/StructureDefinition/qicore-encounter"]},"status":"finished","class":{"system":"http://terminology.hl7.org/CodeSystem/v3-ActCode","code":"IMP","display":"inpatient encounter"},"type":[{"coding":[{"system":"http://snomed.info/sct","code":"183452005"}]}],"subject":{"reference":"Patient/1c8afa5f-9bea-4d6a-9679-0cd87a7960e0"},"period":{"start":"2024-04-07T08:00:00.000Z","end":"2024-04-09T08:15:00.000Z"},"location":[{"location":{"reference":"Location/operating-room-suite-0768"},"period":{"start":"2024-04-07T08:00:00.000+00:00","end":"2024-04-07T10:15:00.000+00:00"}}]},"request":{"method":"PUT","url":"Encounter/eb40350e-bc23-47f6-9745-ebef31bd17b8"}},{"fullUrl":"https://madie.cms.gov/MedicationAdministration/5e8ccccf931f9c0000abd5c4","resource":{"resourceType":"MedicationAdministration","id":"6e4d2ec6-143b-479b-8844-6a7ce354887a","meta":{"profile":["http://hl7.org/fhir/us/qicore/StructureDefinition/qicore-medicationadministration"]},"status":"completed","medicationCodeableConcept":{"coding":[{"system":"http://www.nlm.nih.gov/research/umls/rxnorm","code":"1010600"}]},"subject":{"reference":"Patient/1c8afa5f-9bea-4d6a-9679-0cd87a7960e0"},"effectivePeriod":{"start":"2024-04-07T08:01:00.000Z","end":"2024-04-07T08:15:00.000Z"}},"request":{"method":"PUT","url":"MedicationAdministration/6e4d2ec6-143b-479b-8844-6a7ce354887a"}},{"fullUrl":"https://madie.cms.gov/Location/operating-room-suite-0768","resource":{"resourceType":"Location","id":"fa36dc70-a5de-4b7c-b6b6-bd69bcef752f","meta":{"profile":["http://hl7.org/fhir/us/qicore/StructureDefinition/qicore-location"]},"identifier":[{"use":"usual","system":"http://exampleoflocation.com","value":"B1-S.F2"}],"name":"Medical Surgical East, first floor","type":[{"coding":[{"system":"http://cts.nlm.nih.gov/fhir/cs/hsloc","version":"2022","code":"1096-7","display":"Operating Room/Suite","userSelected":true}]}]},"request":{"method":"PUT","url":"Location/fa36dc70-a5de-4b7c-b6b6-bd69bcef752f"}},{"fullUrl":"https://madie.cms.gov/MeasureReport/d1ff5859-9360-4dbe-906a-e0d7c587ec08","resource":{"resourceType":"MeasureReport","id":"d1ff5859-9360-4dbe-906a-e0d7c587ec08","meta":{"profile":["http://hl7.org/fhir/us/cqfmeasures/StructureDefinition/test-case-cqfm"]},"contained":[{"resourceType":"Parameters","id":"00714d5f-71b8-4689-b331-3524a8635054-parameters","parameter":[{"name":"subject","valueString":"1c8afa5f-9bea-4d6a-9679-0cd87a7960e0"}]}],"extension":[{"url":"http://hl7.org/fhir/us/cqfmeasures/StructureDefinition/cqfm-inputParameters","valueReference":{"reference":"#00714d5f-71b8-4689-b331-3524a8635054-parameters"}},{"url":"http://hl7.org/fhir/us/cqfmeasures/StructureDefinition/cqfm-testCaseDescription","valueMarkdown":"Inpatient encounter. Opioid given during encounter, but while in operating room. Does not meet IPP/denominator. "}],"modifierExtension":[{"url":"http://hl7.org/fhir/us/cqfmeasures/StructureDefinition/cqfm-isTestCase","valueBoolean":true}],"status":"complete","type":"individual","measure":"https://madie.cms.gov/Measure/HospitalHarmOpioidRelatedAdverseEventsFHIR","period":{"start":"2025-01-01","end":"2025-12-31"},"group":[{"population":[{"code":{"coding":[{"system":"http://terminology.hl7.org/CodeSystem/measure-population","code":"initial-population","display":"Initial Population"}]},"count":0},{"code":{"coding":[{"system":"http://terminology.hl7.org/CodeSystem/measure-population","code":"denominator","display":"Denominator"}]},"count":0},{"code":{"coding":[{"system":"http://terminology.hl7.org/CodeSystem/measure-population","code":"numerator","display":"Numerator"}]},"count":0}]}]},"request":{"method":"PUT","url":"MeasureReport/d1ff5859-9360-4dbe-906a-e0d7c587ec08"}}]}