{"resourceType":"Bundle","id":"tests-8eca8e58-b539-430c-ac25-093fb4fac477-bundle","type":"transaction","entry":[{"fullUrl":"https://madie.cms.gov/Patient/0fd9510f-da73-4f89-a30c-f30524e07e5e","resource":{"resourceType":"Patient","id":"0fd9510f-da73-4f89-a30c-f30524e07e5e","meta":{"profile":["http://hl7.org/fhir/us/core/StructureDefinition/us-core-patient","http://hl7.org/fhir/us/qicore/StructureDefinition/qicore-patient"]},"extension":[{"url":"http://hl7.org/fhir/us/core/StructureDefinition/us-core-race","extension":[{"url":"ombCategory","valueCoding":{"system":"urn:oid:2.16.840.1.113883.6.238","code":"2028-9","display":"Asian"}},{"url":"text","valueString":"Asian"}]},{"url":"http://hl7.org/fhir/us/core/StructureDefinition/us-core-ethnicity","extension":[{"url":"ombCategory","valueCoding":{"system":"urn:oid:2.16.840.1.113883.6.238","code":"2135-2","display":"Hispanic or Latino"}},{"url":"text","valueString":"Hispanic or Latino"}]}],"identifier":[{"system":"http://hospital.smarthealthit.org","value":"999999995"}],"name":[{"family":"NoUnits","given":["DENOMFail"]}],"gender":"female","birthDate":"1984-06-12"},"request":{"method":"PUT","url":"Patient/0fd9510f-da73-4f89-a30c-f30524e07e5e"}},{"fullUrl":"https://madie.cms.gov/Encounter/72f14db0-1b2d-45f7-b370-bc7ee7f35988","resource":{"resourceType":"Encounter","id":"72f14db0-1b2d-45f7-b370-bc7ee7f35988","meta":{"profile":["http://hl7.org/fhir/us/qicore/StructureDefinition/qicore-encounter"]},"status":"finished","class":{"system":"http://terminology.hl7.org/CodeSystem/v3-ActCode","code":"IMP","display":"inpatient encounter"},"type":[{"coding":[{"system":"http://snomed.info/sct","code":"183452005","display":"Emergency hospital admission"}]}],"subject":{"reference":"Patient/0fd9510f-da73-4f89-a30c-f30524e07e5e"},"period":{"start":"2025-05-01T00:00:00.000Z","end":"2025-05-03T01:00:00.000Z"}},"request":{"method":"PUT","url":"Encounter/72f14db0-1b2d-45f7-b370-bc7ee7f35988"}},{"fullUrl":"https://madie.cms.gov/Observation/f14aa204-29d1-43fb-8e40-87f393dd346c","resource":{"resourceType":"Observation","id":"f14aa204-29d1-43fb-8e40-87f393dd346c","meta":{"profile":["http://hl7.org/fhir/us/qicore/StructureDefinition/qicore-observation"]},"status":"final","category":[{"coding":[{"system":"http://terminology.hl7.org/CodeSystem/observation-category","code":"imaging","display":"Imaging"}]}],"code":{"coding":[{"system":"http://loinc.org","code":"96914-7","display":"CT dose and image quality category"}],"text":"CT dose and image quality category"},"subject":{"reference":"Patient/0fd9510f-da73-4f89-a30c-f30524e07e5e"},"encounter":{"reference":"Encounter/72f14db0-1b2d-45f7-b370-bc7ee7f35988"},"effectiveDateTime":"2025-05-02T00:00:00.000Z","valueCodeableConcept":{"coding":[{"system":"http://loinc.org","code":"LA31752-1","display":"Abdomen and Pelvis Low Dose"}]},"component":[{"code":{"coding":[{"system":"http://loinc.org","code":"96912-1","display":"Calculated CT global noise"}]},"valueQuantity":{"value":63}},{"code":{"coding":[{"system":"http://loinc.org","code":"96913-9","display":"Calculated CT size-adjusted dose"}]},"valueQuantity":{"value":597}}]},"request":{"method":"PUT","url":"Observation/f14aa204-29d1-43fb-8e40-87f393dd346c"}},{"fullUrl":"https://madie.cms.gov/MeasureReport/b2b81681-7220-4118-a8d8-160a4f0a3cb2","resource":{"resourceType":"MeasureReport","id":"b2b81681-7220-4118-a8d8-160a4f0a3cb2","meta":{"profile":["http://hl7.org/fhir/us/cqfmeasures/StructureDefinition/test-case-cqfm"]},"contained":[{"resourceType":"Parameters","id":"53a19579-1983-48eb-aefa-d5672c6aba87-parameters","parameter":[{"name":"subject","valueString":"0fd9510f-da73-4f89-a30c-f30524e07e5e"}]}],"extension":[{"url":"http://hl7.org/fhir/us/cqfmeasures/StructureDefinition/cqfm-inputParameters","valueReference":{"reference":"#53a19579-1983-48eb-aefa-d5672c6aba87-parameters"}},{"url":"http://hl7.org/fhir/us/cqfmeasures/StructureDefinition/cqfm-testCaseDescription","valueMarkdown":"Patient has valid CT scan but with missing units on the noise and dose"}],"modifierExtension":[{"url":"http://hl7.org/fhir/us/cqfmeasures/StructureDefinition/cqfm-isTestCase","valueBoolean":true}],"status":"complete","type":"individual","measure":"https://madie.cms.gov/Measure/AlaraCTIQRFHIR","period":{"start":"2025-01-01","end":"2025-12-31"},"group":[{"population":[{"code":{"coding":[{"system":"http://terminology.hl7.org/CodeSystem/measure-population","code":"initial-population","display":"Initial Population"}]},"count":1},{"code":{"coding":[{"system":"http://terminology.hl7.org/CodeSystem/measure-population","code":"denominator","display":"Denominator"}]},"count":0},{"code":{"coding":[{"system":"http://terminology.hl7.org/CodeSystem/measure-population","code":"denominator-exclusion","display":"Denominator Exclusion"}]},"count":0},{"code":{"coding":[{"system":"http://terminology.hl7.org/CodeSystem/measure-population","code":"numerator","display":"Numerator"}]},"count":0}]}]},"request":{"method":"PUT","url":"MeasureReport/b2b81681-7220-4118-a8d8-160a4f0a3cb2"}}]}