{"resourceType":"Bundle","id":"tests-e1edfee1-a2a0-4bef-b793-31cf5836a468-bundle","type":"transaction","entry":[{"fullUrl":"https://madie.cms.gov/Patient/e1edfee1-a2a0-4bef-b793-31cf5836a468","resource":{"resourceType":"Patient","id":"e1edfee1-a2a0-4bef-b793-31cf5836a468","meta":{"profile":["http://hl7.org/fhir/us/qicore/StructureDefinition/qicore-patient"]},"extension":[{"url":"http://hl7.org/fhir/us/core/StructureDefinition/us-core-race","extension":[{"url":"ombCategory","valueCoding":{"system":"urn:oid:2.16.840.1.113883.6.238","code":"2076-8","display":"Native Hawaiian or Other Pacific Islander","userSelected":true}},{"url":"text","valueString":"Native Hawaiian or Other Pacific Islander"}]},{"url":"http://hl7.org/fhir/us/core/StructureDefinition/us-core-ethnicity","extension":[{"url":"ombCategory","valueCoding":{"system":"urn:oid:2.16.840.1.113883.6.238","code":"2186-5","display":"Not Hispanic or Latino","userSelected":true}},{"url":"text","valueString":"Not Hispanic or Latino"}]}],"identifier":[{"type":{"coding":[{"system":"http://terminology.hl7.org/CodeSystem/v2-0203","code":"MR"}]},"system":"https://bonnie-fhir.healthit.gov/","value":"61168b8798086b77ef9c5ecc"}],"active":true,"name":[{"use":"usual","family":"DENEXCEPPass","given":["CommEdemaPresentNotDonePR"]}],"gender":"male","birthDate":"1979-01-14"},"request":{"method":"PUT","url":"Patient/e1edfee1-a2a0-4bef-b793-31cf5836a468"}},{"fullUrl":"https://madie.cms.gov/Communication/5c9a42e9b8484623838500a0","resource":{"resourceType":"Communication","id":"aaf2c80b-1e94-434f-8161-ce9731dbf32a","meta":{"profile":["http://hl7.org/fhir/us/qicore/StructureDefinition/qicore-communication"]},"extension":[{"url":"http://hl7.org/fhir/us/qicore/StructureDefinition/qicore-recorded","valueDateTime":"2012-07-02T15:00:00+00:00"}],"modifierExtension":[{"url":"http://hl7.org/fhir/us/qicore/StructureDefinition/qicore-notDone","valueBoolean":true},{"url":"http://hl7.org/fhir/us/qicore/StructureDefinition/qicore-notDone","valueBoolean":true}],"status":"not-done","statusReason":{"coding":[{"system":"http://snomed.info/sct","version":"http://snomed.info/sct/731000124108/version/20230301","code":"183945002","display":"Procedure declined for religious reason (situation)"}]},"subject":{"reference":"Patient/e1edfee1-a2a0-4bef-b793-31cf5836a468"},"sent":"2025-07-09T08:00:00.000+00:00","reasonCode":[{"coding":[{"system":"http://snomed.info/sct","version":"http://snomed.info/sct/731000124108/version/20230301","code":"312911008","display":"Clinically significant macular edema (disorder)"}]}]},"request":{"method":"PUT","url":"Communication/aaf2c80b-1e94-434f-8161-ce9731dbf32a"}},{"fullUrl":"https://madie.cms.gov/Condition/5c9a42e9b84846238385009c","resource":{"resourceType":"Condition","id":"b106c046-3357-4367-865f-f05ff0fac6bd","meta":{"profile":["http://hl7.org/fhir/us/qicore/StructureDefinition/qicore-condition"]},"clinicalStatus":{"coding":[{"system":"http://terminology.hl7.org/CodeSystem/condition-clinical","code":"active","display":"active","userSelected":true}]},"category":[{"coding":[{"system":"http://terminology.hl7.org/CodeSystem/condition-category","code":"problem-list-item","display":"Problem List Item"}]}],"code":{"coding":[{"system":"http://snomed.info/sct","version":"http://snomed.info/sct/731000124108/version/202303","code":"193349004"},{"system":"http://hl7.org/fhir/sid/icd-10-cm","version":"2023","code":"E08.311"}]},"subject":{"reference":"Patient/e1edfee1-a2a0-4bef-b793-31cf5836a468"},"onsetDateTime":"2021-07-01T15:00:00+00:00"},"request":{"method":"PUT","url":"Condition/b106c046-3357-4367-865f-f05ff0fac6bd"}},{"fullUrl":"https://madie.cms.gov/Observation/5c9a42e9b84846238385009e","resource":{"resourceType":"Observation","id":"e5380678-fb27-4974-a37c-dae5267e00de","meta":{"profile":["http://hl7.org/fhir/us/qicore/StructureDefinition/qicore-observation"]},"status":"final","category":[{"coding":[{"system":"http://terminology.hl7.org/CodeSystem/observation-category","code":"vital-signs","display":"Vital Signs"}]}],"code":{"coding":[{"system":"http://loinc.org","version":"2.73","code":"32451-7"}]},"subject":{"reference":"Patient/e1edfee1-a2a0-4bef-b793-31cf5836a468"},"effectiveDateTime":"2025-07-09T08:00:00.000+00:00","valueBoolean":true},"request":{"method":"PUT","url":"Observation/e5380678-fb27-4974-a37c-dae5267e00de"}},{"fullUrl":"https://madie.cms.gov/Encounter/5c9a42e9b84846238385009d","resource":{"resourceType":"Encounter","id":"cbb7d30c-da65-45a1-bf1b-49cc65c67c33","meta":{"profile":["http://hl7.org/fhir/us/qicore/StructureDefinition/qicore-encounter"]},"status":"finished","class":{"system":"http://terminology.hl7.org/CodeSystem/v3-ActCode","code":"AMB"},"type":[{"coding":[{"system":"http://www.ama-assn.org/go/cpt","version":"2023","code":"99205"}]}],"subject":{"reference":"Patient/e1edfee1-a2a0-4bef-b793-31cf5836a468"},"period":{"start":"2025-07-02T15:00:00.000+00:00","end":"2025-08-02T16:00:00.000+00:00"}},"request":{"method":"PUT","url":"Encounter/cbb7d30c-da65-45a1-bf1b-49cc65c67c33"}},{"fullUrl":"https://madie.cms.gov/Communication/64589200014","resource":{"resourceType":"Communication","id":"2030bd90-3f8b-449f-b496-ab524b9154d2","meta":{"profile":["http://hl7.org/fhir/us/qicore/StructureDefinition/qicore-communicationnotdone"]},"extension":[{"url":"http://hl7.org/fhir/us/qicore/StructureDefinition/qicore-recorded","valueDateTime":"2025-07-09T08:00:00.000+00:00"}],"status":"not-done","statusReason":{"coding":[{"system":"http://snomed.info/sct","version":"http://snomed.info/sct/731000124108/version/20230301","code":"183945002","display":"Procedure declined for religious reason (situation)"}]},"category":[{"coding":[{"system":"http://snomed.info/sct","code":"312903003","display":"Mild nonproliferative retinopathy due to diabetes mellitus (disorder)","userSelected":true}]}],"sent":"2025-07-09T08:00:00.000+00:00","reasonCode":[{"coding":[{"system":"http://snomed.info/sct","version":"http://snomed.info/sct/731000124108/version/202303","code":"312903003","display":"Mild nonproliferative retinopathy due to diabetes mellitus (disorder)"}]}]},"request":{"method":"PUT","url":"Communication/2030bd90-3f8b-449f-b496-ab524b9154d2"}},{"fullUrl":"https://madie.cms.gov/MeasureReport/0599af9e-aecb-4ecd-bf21-903383de4942","resource":{"resourceType":"MeasureReport","id":"0599af9e-aecb-4ecd-bf21-903383de4942","meta":{"profile":["http://hl7.org/fhir/us/cqfmeasures/StructureDefinition/test-case-cqfm"]},"contained":[{"resourceType":"Parameters","id":"470eceb0-f8a8-4d4e-948f-2749b6075215-parameters","parameter":[{"name":"subject","valueString":"e1edfee1-a2a0-4bef-b793-31cf5836a468"}]}],"extension":[{"url":"http://hl7.org/fhir/us/cqfmeasures/StructureDefinition/cqfm-inputParameters","valueReference":{"reference":"#470eceb0-f8a8-4d4e-948f-2749b6075215-parameters"}},{"url":"http://hl7.org/fhir/us/cqfmeasures/StructureDefinition/cqfm-testCaseDescription","valueMarkdown":"Communication of level of severity not done for patient reason meeting denominator exception"}],"modifierExtension":[{"url":"http://hl7.org/fhir/us/cqfmeasures/StructureDefinition/cqfm-isTestCase","valueBoolean":true}],"status":"complete","type":"individual","measure":"https://madie.cms.gov/Measure/DRCommunicationWithPhysicianManagingDiabetesFHIR","period":{"start":"2025-01-01","end":"2025-12-31"},"group":[{"population":[{"code":{"coding":[{"system":"http://terminology.hl7.org/CodeSystem/measure-population","code":"initial-population","display":"Initial Population"}]},"count":1},{"code":{"coding":[{"system":"http://terminology.hl7.org/CodeSystem/measure-population","code":"denominator","display":"Denominator"}]},"count":1},{"code":{"coding":[{"system":"http://terminology.hl7.org/CodeSystem/measure-population","code":"numerator","display":"Numerator"}]},"count":0},{"code":{"coding":[{"system":"http://terminology.hl7.org/CodeSystem/measure-population","code":"denominator-exception","display":"Denominator Exception"}]},"count":1}]}]},"request":{"method":"PUT","url":"MeasureReport/0599af9e-aecb-4ecd-bf21-903383de4942"}}]}