{"resourceType":"Bundle","id":"tests-5df18a61-3644-4004-b66f-84530f643a74-bundle","type":"transaction","entry":[{"fullUrl":"https://madie.cms.gov/Patient/5df18a61-3644-4004-b66f-84530f643a74","resource":{"resourceType":"Patient","id":"5df18a61-3644-4004-b66f-84530f643a74","meta":{"profile":["http://hl7.org/fhir/us/qicore/StructureDefinition/qicore-patient"]},"extension":[{"url":"http://hl7.org/fhir/us/core/StructureDefinition/us-core-race","extension":[{"url":"ombCategory","valueCoding":{"system":"urn:oid:2.16.840.1.113883.6.238","code":"2106-3","display":"White","userSelected":true}},{"url":"text","valueString":"White"}]},{"url":"http://hl7.org/fhir/us/core/StructureDefinition/us-core-ethnicity","extension":[{"url":"ombCategory","valueCoding":{"system":"urn:oid:2.16.840.1.113883.6.238","code":"2135-2","display":"Hispanic or Latino","userSelected":true}},{"url":"text","valueString":"Hispanic or Latino"}]}],"identifier":[{"type":{"coding":[{"system":"http://terminology.hl7.org/CodeSystem/v2-0203","code":"MR"}]},"system":"https://bonnie-fhir.healthit.gov/","value":"61168b8798086b77ef9c5ec1"}],"active":true,"name":[{"use":"usual","family":"IPFail","given":["EncHasNoStartDt"]}],"gender":"female","birthDate":"1982-01-10"},"request":{"method":"PUT","url":"Patient/5df18a61-3644-4004-b66f-84530f643a74"}},{"fullUrl":"https://madie.cms.gov/Condition/5c9a42eab8484623838500c0","resource":{"resourceType":"Condition","id":"8d211f4e-2b0c-4ca5-8d8c-1bc0423bce4d","meta":{"profile":["http://hl7.org/fhir/us/qicore/StructureDefinition/qicore-condition"]},"clinicalStatus":{"coding":[{"system":"http://terminology.hl7.org/CodeSystem/condition-clinical","code":"active","display":"active","userSelected":true}]},"category":[{"coding":[{"system":"http://terminology.hl7.org/CodeSystem/condition-category","code":"problem-list-item","display":"Problem List Item"}]}],"code":{"coding":[{"system":"http://snomed.info/sct","version":"http://snomed.info/sct/731000124108/version/202303","code":"314014002"}]},"subject":{"reference":"Patient/5df18a61-3644-4004-b66f-84530f643a74"},"onsetDateTime":"2025-09-10T10:45:00+00:00"},"request":{"method":"PUT","url":"Condition/8d211f4e-2b0c-4ca5-8d8c-1bc0423bce4d"}},{"fullUrl":"https://madie.cms.gov/Encounter/5c9a42eab8484623839000a","resource":{"resourceType":"Encounter","id":"53d5863e-7349-4515-947f-47b6b54b218b","meta":{"profile":["http://hl7.org/fhir/us/qicore/StructureDefinition/qicore-encounter"]},"status":"finished","class":{"system":"http://terminology.hl7.org/CodeSystem/v3-ActCode","code":"AMB"},"type":[{"coding":[{"system":"http://www.ama-assn.org/go/cpt","version":"2023","code":"99205"}]}],"subject":{"reference":"Patient/5df18a61-3644-4004-b66f-84530f643a74"},"period":{"end":"2025-09-11T11:00:00+00:00"}},"request":{"method":"PUT","url":"Encounter/53d5863e-7349-4515-947f-47b6b54b218b"}},{"fullUrl":"https://madie.cms.gov/Coverage/900090","resource":{"resourceType":"Coverage","id":"c2e2e904-1317-4a1b-a5da-f8ca74217253","meta":{"profile":["http://hl7.org/fhir/us/qicore/StructureDefinition/qicore-coverage"]},"status":"active","beneficiary":{"reference":"Patient/5df18a61-3644-4004-b66f-84530f643a74"},"payor":[{"reference":"Organization/4b5a882f-1f43-485c-85c6-f5ad2337d5b1"}]},"request":{"method":"PUT","url":"Coverage/c2e2e904-1317-4a1b-a5da-f8ca74217253"}},{"fullUrl":"https://madie.cms.gov/Organization/123456","resource":{"resourceType":"Organization","id":"4b5a882f-1f43-485c-85c6-f5ad2337d5b1","meta":{"profile":["http://hl7.org/fhir/us/qicore/StructureDefinition/qicore-organization"]},"identifier":[{"use":"temp","system":"urn:oid:2.16.840.1.113883.4.4","value":"21-3259825"}],"active":true,"type":[{"coding":[{"system":"http://terminology.hl7.org/CodeSystem/organization-type","code":"pay","display":"Payer"}]}],"name":"Blue Cross Blue Shield of Texas","telecom":[{"system":"phone","value":"(+1) 972-766-6900"}],"address":[{"use":"billing","type":"postal","line":["P.O. Box 660044"],"city":"Dallas","state":"TX","postalCode":"75266-0044","country":"USA"}]},"request":{"method":"PUT","url":"Organization/4b5a882f-1f43-485c-85c6-f5ad2337d5b1"}},{"fullUrl":"https://madie.cms.gov/MeasureReport/3546e2ee-0fd7-497a-bbc6-6d83bca7be08","resource":{"resourceType":"MeasureReport","id":"3546e2ee-0fd7-497a-bbc6-6d83bca7be08","meta":{"profile":["http://hl7.org/fhir/us/cqfmeasures/StructureDefinition/test-case-cqfm"]},"contained":[{"resourceType":"Parameters","id":"986b7bba-12d4-4db3-954f-a5f32a7e45b0-parameters","parameter":[{"name":"subject","valueString":"5df18a61-3644-4004-b66f-84530f643a74"}]}],"extension":[{"url":"http://hl7.org/fhir/us/cqfmeasures/StructureDefinition/cqfm-inputParameters","valueReference":{"reference":"#986b7bba-12d4-4db3-954f-a5f32a7e45b0-parameters"}},{"url":"http://hl7.org/fhir/us/cqfmeasures/StructureDefinition/cqfm-testCaseDescription","valueMarkdown":"Encounter  does not have a start date and should not pass Initial Population Criteria"}],"modifierExtension":[{"url":"http://hl7.org/fhir/us/cqfmeasures/StructureDefinition/cqfm-isTestCase","valueBoolean":true}],"status":"complete","type":"individual","measure":"https://madie.cms.gov/Measure/DRCommunicationWithPhysicianManagingDiabetesFHIR","period":{"start":"2025-01-01","end":"2025-12-31"},"group":[{"population":[{"code":{"coding":[{"system":"http://terminology.hl7.org/CodeSystem/measure-population","code":"initial-population","display":"Initial Population"}]},"count":0},{"code":{"coding":[{"system":"http://terminology.hl7.org/CodeSystem/measure-population","code":"denominator","display":"Denominator"}]},"count":0},{"code":{"coding":[{"system":"http://terminology.hl7.org/CodeSystem/measure-population","code":"numerator","display":"Numerator"}]},"count":0},{"code":{"coding":[{"system":"http://terminology.hl7.org/CodeSystem/measure-population","code":"denominator-exception","display":"Denominator Exception"}]},"count":0}]}]},"request":{"method":"PUT","url":"MeasureReport/3546e2ee-0fd7-497a-bbc6-6d83bca7be08"}}]}