{"resourceType":"Bundle","id":"tests-164018dc-af9e-47b8-901f-70d00e101e43-bundle","type":"transaction","entry":[{"fullUrl":"https://madie.cms.gov/Patient/164018dc-af9e-47b8-901f-70d00e101e43","resource":{"resourceType":"Patient","id":"164018dc-af9e-47b8-901f-70d00e101e43","meta":{"profile":["http://hl7.org/fhir/us/qicore/StructureDefinition/qicore-patient"]},"extension":[{"url":"http://hl7.org/fhir/us/core/StructureDefinition/us-core-race","extension":[{"url":"ombCategory","valueCoding":{"system":"urn:oid:2.16.840.1.113883.6.238","code":"2106-3","display":"White","userSelected":true}},{"url":"text","valueString":"White"}]},{"url":"http://hl7.org/fhir/us/core/StructureDefinition/us-core-ethnicity","extension":[{"url":"ombCategory","valueCoding":{"system":"urn:oid:2.16.840.1.113883.6.238","code":"2186-5","display":"Not Hispanic or Latino","userSelected":true}},{"url":"text","valueString":"Not Hispanic or Latino"}]}],"identifier":[{"type":{"coding":[{"system":"http://terminology.hl7.org/CodeSystem/v2-0203","code":"MR"}]},"system":"https://GoodHealthCare.com/","value":"61168b8798086b77ef9c5ebb"}],"active":true,"name":[{"use":"usual","family":"IPFail","given":["NoEncDuringMP"]}],"gender":"male","birthDate":"1993-01-10"},"request":{"method":"PUT","url":"Patient/164018dc-af9e-47b8-901f-70d00e101e43"}},{"fullUrl":"https://madie.cms.gov/Condition/5c9a42e9b848462383850060","resource":{"resourceType":"Condition","id":"c86d2c61-7430-4181-a87b-864889c0bb05","meta":{"profile":["http://hl7.org/fhir/us/qicore/StructureDefinition/qicore-condition"]},"clinicalStatus":{"coding":[{"system":"http://terminology.hl7.org/CodeSystem/condition-clinical","code":"active","display":"active","userSelected":true}]},"category":[{"coding":[{"system":"http://terminology.hl7.org/CodeSystem/condition-category","code":"problem-list-item","display":"Problem List Item"}]}],"code":{"coding":[{"system":"http://hl7.org/fhir/sid/icd-10-cm","code":"E08.311"},{"system":"http://snomed.info/sct","version":"http://snomed.info/sct/731000124108/version/202303","code":"4855003"}]},"subject":{"reference":"Patient/164018dc-af9e-47b8-901f-70d00e101e43"},"onsetDateTime":"2023-12-29T15:00:00+00:00"},"request":{"method":"PUT","url":"Condition/c86d2c61-7430-4181-a87b-864889c0bb05"}},{"fullUrl":"https://madie.cms.gov/Observation/5c9a42e9b848462383850061","resource":{"resourceType":"Observation","id":"630ad086-89ef-4395-88ba-1e774d580290","meta":{"profile":["http://hl7.org/fhir/us/qicore/StructureDefinition/qicore-observation"]},"status":"final","category":[{"coding":[{"system":"http://terminology.hl7.org/CodeSystem/observation-category","code":"vital-signs","display":"Vital Signs"}]}],"code":{"coding":[{"system":"http://loinc.org","version":"2.73","code":"32451-7"}]},"subject":{"reference":"Patient/164018dc-af9e-47b8-901f-70d00e101e43"},"effectivePeriod":{"start":"2025-01-29T12:00:00+00:00","end":"2025-01-29T12:00:00+00:00"},"valueBoolean":true},"request":{"method":"PUT","url":"Observation/630ad086-89ef-4395-88ba-1e774d580290"}},{"fullUrl":"https://madie.cms.gov/Coverage/10009","resource":{"resourceType":"Coverage","id":"de1fa18f-db22-49b6-a7f2-3423ba62ca2a","meta":{"profile":["http://hl7.org/fhir/us/qicore/StructureDefinition/qicore-coverage"]},"status":"active","beneficiary":{"reference":"Patient/164018dc-af9e-47b8-901f-70d00e101e43"},"payor":[{"reference":"Organization/4b5a882f-1f43-485c-85c6-f5ad2337d5b1"}]},"request":{"method":"PUT","url":"Coverage/de1fa18f-db22-49b6-a7f2-3423ba62ca2a"}},{"fullUrl":"https://madie.cms.gov/Organization/12345692","resource":{"resourceType":"Organization","id":"4b5a882f-1f43-485c-85c6-f5ad2337d5b1","meta":{"profile":["http://hl7.org/fhir/us/qicore/StructureDefinition/qicore-organization"]},"identifier":[{"use":"temp","system":"urn:oid:2.16.840.1.113883.4.4","value":"21-3259825"}],"active":true,"type":[{"coding":[{"system":"http://terminology.hl7.org/CodeSystem/organization-type","code":"pay","display":"Payer"}]}],"name":"Blue Cross Blue Shield of Texas","telecom":[{"system":"phone","value":"(+1) 972-766-6900"}],"address":[{"use":"billing","type":"postal","line":["P.O. Box 660044"],"city":"Dallas","state":"TX","postalCode":"75266-0044","country":"USA"}]},"request":{"method":"PUT","url":"Organization/4b5a882f-1f43-485c-85c6-f5ad2337d5b1"}},{"fullUrl":"https://madie.cms.gov/MeasureReport/fbddbcf1-df9d-44d2-a57b-00e920bd4b69","resource":{"resourceType":"MeasureReport","id":"fbddbcf1-df9d-44d2-a57b-00e920bd4b69","meta":{"profile":["http://hl7.org/fhir/us/cqfmeasures/StructureDefinition/test-case-cqfm"]},"contained":[{"resourceType":"Parameters","id":"b186f2d6-2201-4036-9ba1-f3122a596025-parameters","parameter":[{"name":"subject","valueString":"164018dc-af9e-47b8-901f-70d00e101e43"}]}],"extension":[{"url":"http://hl7.org/fhir/us/cqfmeasures/StructureDefinition/cqfm-inputParameters","valueReference":{"reference":"#b186f2d6-2201-4036-9ba1-f3122a596025-parameters"}},{"url":"http://hl7.org/fhir/us/cqfmeasures/StructureDefinition/cqfm-testCaseDescription","valueMarkdown":"Patient doesn't have encounter during measurement period"}],"modifierExtension":[{"url":"http://hl7.org/fhir/us/cqfmeasures/StructureDefinition/cqfm-isTestCase","valueBoolean":true}],"status":"complete","type":"individual","measure":"https://madie.cms.gov/Measure/DRCommunicationWithPhysicianManagingDiabetesFHIR","period":{"start":"2025-01-01","end":"2025-12-31"},"group":[{"population":[{"code":{"coding":[{"system":"http://terminology.hl7.org/CodeSystem/measure-population","code":"initial-population","display":"Initial Population"}]},"count":0},{"code":{"coding":[{"system":"http://terminology.hl7.org/CodeSystem/measure-population","code":"denominator","display":"Denominator"}]},"count":0},{"code":{"coding":[{"system":"http://terminology.hl7.org/CodeSystem/measure-population","code":"numerator","display":"Numerator"}]},"count":0},{"code":{"coding":[{"system":"http://terminology.hl7.org/CodeSystem/measure-population","code":"denominator-exception","display":"Denominator Exception"}]},"count":0}]}]},"request":{"method":"PUT","url":"MeasureReport/fbddbcf1-df9d-44d2-a57b-00e920bd4b69"}}]}