{"resourceType":"Bundle","id":"tests-41ae0086-ac99-4a31-9546-21b054bbf7d8-bundle","type":"transaction","entry":[{"fullUrl":"https://madie.cms.gov/Patient/41ae0086-ac99-4a31-9546-21b054bbf7d8","resource":{"resourceType":"Patient","id":"41ae0086-ac99-4a31-9546-21b054bbf7d8","meta":{"profile":["http://hl7.org/fhir/us/qicore/StructureDefinition/qicore-patient"]},"extension":[{"url":"http://hl7.org/fhir/us/core/StructureDefinition/us-core-race","extension":[{"url":"ombCategory","valueCoding":{"system":"urn:oid:2.16.840.1.113883.6.238","code":"2076-8","display":"Native Hawaiian or Other Pacific Islander","userSelected":true}},{"url":"text","valueString":"Native Hawaiian or Other Pacific Islander"}]},{"url":"http://hl7.org/fhir/us/core/StructureDefinition/us-core-ethnicity","extension":[{"url":"ombCategory","valueCoding":{"system":"urn:oid:2.16.840.1.113883.6.238","code":"2186-5","display":"Not Hispanic or Latino","userSelected":true}},{"url":"text","valueString":"Not Hispanic or Latino"}]}],"identifier":[{"type":{"coding":[{"system":"http://terminology.hl7.org/CodeSystem/v2-0203","code":"MR"}]},"system":"https://bonnie-fhir.healthit.gov/","value":"61168b8798086b77ef9c5ecc"}],"active":true,"name":[{"use":"usual","family":"DENEXCEPPass","given":["CommEdemaPresentNotDonePR"]}],"gender":"male","birthDate":"1979-01-14"},"request":{"method":"PUT","url":"Patient/41ae0086-ac99-4a31-9546-21b054bbf7d8"}},{"fullUrl":"https://madie.cms.gov/Communication/5c9a42e9b8484623838500a0","resource":{"resourceType":"Communication","id":"dbff8bc8-3f6f-43af-9f1a-cc2a2ea19a0c","meta":{"profile":["http://hl7.org/fhir/us/qicore/StructureDefinition/qicore-communication"]},"extension":[{"url":"http://hl7.org/fhir/us/qicore/StructureDefinition/qicore-recorded","valueDateTime":"2012-07-02T15:00:00+00:00"}],"modifierExtension":[{"url":"http://hl7.org/fhir/us/qicore/StructureDefinition/qicore-notDone","valueBoolean":true},{"url":"http://hl7.org/fhir/us/qicore/StructureDefinition/qicore-notDone","valueBoolean":true}],"status":"not-done","statusReason":{"coding":[{"system":"http://snomed.info/sct","version":"http://snomed.info/sct/731000124108/version/20230301","code":"183945002","display":"Procedure declined for religious reason (situation)"}]},"subject":{"reference":"Patient/41ae0086-ac99-4a31-9546-21b054bbf7d8"},"sent":"2025-07-09T08:00:00.000+00:00","reasonCode":[{"coding":[{"system":"http://snomed.info/sct","version":"http://snomed.info/sct/731000124108/version/20230301","code":"312911008","display":"Clinically significant macular edema (disorder)"}]}]},"request":{"method":"PUT","url":"Communication/dbff8bc8-3f6f-43af-9f1a-cc2a2ea19a0c"}},{"fullUrl":"https://madie.cms.gov/Condition/5c9a42e9b84846238385009c","resource":{"resourceType":"Condition","id":"cbbd17cd-a077-4f9a-94cc-eb705f652dde","meta":{"profile":["http://hl7.org/fhir/us/qicore/StructureDefinition/qicore-condition"]},"clinicalStatus":{"coding":[{"system":"http://terminology.hl7.org/CodeSystem/condition-clinical","code":"active","display":"active","userSelected":true}]},"category":[{"coding":[{"system":"http://terminology.hl7.org/CodeSystem/condition-category","code":"problem-list-item","display":"Problem List Item"}]}],"code":{"coding":[{"system":"http://snomed.info/sct","version":"http://snomed.info/sct/731000124108/version/202303","code":"193349004"},{"system":"http://hl7.org/fhir/sid/icd-10-cm","version":"2023","code":"E08.311"}]},"subject":{"reference":"Patient/41ae0086-ac99-4a31-9546-21b054bbf7d8"},"onsetDateTime":"2021-07-01T15:00:00+00:00"},"request":{"method":"PUT","url":"Condition/cbbd17cd-a077-4f9a-94cc-eb705f652dde"}},{"fullUrl":"https://madie.cms.gov/Observation/5c9a42e9b84846238385009e","resource":{"resourceType":"Observation","id":"26a35b4b-ccca-4426-a5c3-076c1eab625b","meta":{"profile":["http://hl7.org/fhir/us/qicore/StructureDefinition/qicore-observation"]},"status":"final","category":[{"coding":[{"system":"http://terminology.hl7.org/CodeSystem/observation-category","code":"vital-signs","display":"Vital Signs"}]}],"code":{"coding":[{"system":"http://loinc.org","version":"2.73","code":"32451-7"}]},"subject":{"reference":"Patient/41ae0086-ac99-4a31-9546-21b054bbf7d8"},"effectiveDateTime":"2025-07-09T08:00:00.000+00:00","valueBoolean":true},"request":{"method":"PUT","url":"Observation/26a35b4b-ccca-4426-a5c3-076c1eab625b"}},{"fullUrl":"https://madie.cms.gov/Encounter/5c9a42e9b84846238385009d","resource":{"resourceType":"Encounter","id":"f93ff0e6-798b-4dbd-a065-b76e04097c3f","meta":{"profile":["http://hl7.org/fhir/us/qicore/StructureDefinition/qicore-encounter"]},"status":"finished","class":{"system":"http://terminology.hl7.org/CodeSystem/v3-ActCode","code":"AMB"},"type":[{"coding":[{"system":"http://www.ama-assn.org/go/cpt","version":"2023","code":"99205"}]}],"subject":{"reference":"Patient/41ae0086-ac99-4a31-9546-21b054bbf7d8"},"period":{"start":"2025-07-02T15:00:00.000+00:00","end":"2025-08-02T16:00:00.000+00:00"}},"request":{"method":"PUT","url":"Encounter/f93ff0e6-798b-4dbd-a065-b76e04097c3f"}},{"fullUrl":"https://madie.cms.gov/Communication/64589200014","resource":{"resourceType":"Communication","id":"e534bf86-c022-4a8c-8827-97ce8a5109ef","meta":{"profile":["http://hl7.org/fhir/us/qicore/StructureDefinition/qicore-communicationnotdone"]},"extension":[{"url":"http://hl7.org/fhir/us/qicore/StructureDefinition/qicore-recorded","valueDateTime":"2025-07-09T08:00:00.000+00:00"}],"status":"not-done","statusReason":{"coding":[{"system":"http://snomed.info/sct","version":"http://snomed.info/sct/731000124108/version/20230301","code":"183945002","display":"Procedure declined for religious reason (situation)"}]},"category":[{"coding":[{"system":"http://snomed.info/sct","code":"428341000124108","display":"Macular edema absent (situation)","userSelected":true}]}],"sent":"2025-07-09T08:00:00.000+00:00","reasonCode":[{"coding":[{"system":"http://snomed.info/sct","version":"http://snomed.info/sct/731000124108/version/202303","code":"428341000124108","display":"Macular edema absent (situation)"}]}]},"request":{"method":"PUT","url":"Communication/e534bf86-c022-4a8c-8827-97ce8a5109ef"}},{"fullUrl":"https://madie.cms.gov/MeasureReport/c89cdfa5-b04a-4309-b11f-5990baab8cf3","resource":{"resourceType":"MeasureReport","id":"c89cdfa5-b04a-4309-b11f-5990baab8cf3","meta":{"profile":["http://hl7.org/fhir/us/cqfmeasures/StructureDefinition/test-case-cqfm"]},"contained":[{"resourceType":"Parameters","id":"db8abd89-0623-44f8-b152-f46c97379c75-parameters","parameter":[{"name":"subject","valueString":"41ae0086-ac99-4a31-9546-21b054bbf7d8"}]}],"extension":[{"url":"http://hl7.org/fhir/us/cqfmeasures/StructureDefinition/cqfm-inputParameters","valueReference":{"reference":"#db8abd89-0623-44f8-b152-f46c97379c75-parameters"}},{"url":"http://hl7.org/fhir/us/cqfmeasures/StructureDefinition/cqfm-testCaseDescription","valueMarkdown":"Communication of Edema Absent not Done for Patient Reasons meeting Denominator Exception"}],"modifierExtension":[{"url":"http://hl7.org/fhir/us/cqfmeasures/StructureDefinition/cqfm-isTestCase","valueBoolean":true}],"status":"complete","type":"individual","measure":"https://madie.cms.gov/Measure/DRCommunicationWithPhysicianManagingDiabetesFHIR","period":{"start":"2025-01-01","end":"2025-12-31"},"group":[{"population":[{"code":{"coding":[{"system":"http://terminology.hl7.org/CodeSystem/measure-population","code":"initial-population","display":"Initial Population"}]},"count":1},{"code":{"coding":[{"system":"http://terminology.hl7.org/CodeSystem/measure-population","code":"denominator","display":"Denominator"}]},"count":1},{"code":{"coding":[{"system":"http://terminology.hl7.org/CodeSystem/measure-population","code":"numerator","display":"Numerator"}]},"count":0},{"code":{"coding":[{"system":"http://terminology.hl7.org/CodeSystem/measure-population","code":"denominator-exception","display":"Denominator Exception"}]},"count":1}]}]},"request":{"method":"PUT","url":"MeasureReport/c89cdfa5-b04a-4309-b11f-5990baab8cf3"}}]}