{"resourceType":"Bundle","id":"tests-73734a3e-0dc8-44ce-a5a2-070b1ab48aaf-bundle","type":"transaction","entry":[{"fullUrl":"https://madie.cms.gov/Patient/73734a3e-0dc8-44ce-a5a2-070b1ab48aaf","resource":{"resourceType":"Patient","id":"73734a3e-0dc8-44ce-a5a2-070b1ab48aaf","meta":{"profile":["http://hl7.org/fhir/us/qicore/StructureDefinition/qicore-patient"]},"extension":[{"url":"http://hl7.org/fhir/us/core/StructureDefinition/us-core-race","extension":[{"url":"ombCategory","valueCoding":{"system":"urn:oid:2.16.840.1.113883.6.238","code":"1002-5","display":"American Indian or Alaska Native","userSelected":true}},{"url":"text","valueString":"American Indian or Alaska Native"}]},{"url":"http://hl7.org/fhir/us/core/StructureDefinition/us-core-ethnicity","extension":[{"url":"ombCategory","valueCoding":{"system":"urn:oid:2.16.840.1.113883.6.238","code":"2135-2","display":"Hispanic or Latino","userSelected":true}},{"url":"text","valueString":"Hispanic or Latino"}]}],"identifier":[{"type":{"coding":[{"system":"http://terminology.hl7.org/CodeSystem/v2-0203","code":"MR"}]},"system":"https://bonnie-fhir.healthit.gov/","value":"61168b8798086b77ef9c5ebe"}],"active":true,"name":[{"use":"usual","family":"IPFail","given":["NoRetinopathyDx"]}],"gender":"female","birthDate":"1971-05-14"},"request":{"method":"PUT","url":"Patient/73734a3e-0dc8-44ce-a5a2-070b1ab48aaf"}},{"fullUrl":"https://madie.cms.gov/Observation/5c9a42e9b84846238385006c","resource":{"resourceType":"Observation","id":"8fb300c5-cdb6-4d6a-bd4e-4f03ba6421ac","meta":{"profile":["http://hl7.org/fhir/us/qicore/StructureDefinition/qicore-observation"]},"status":"final","category":[{"coding":[{"system":"http://terminology.hl7.org/CodeSystem/observation-category","code":"vital-signs","display":"Vital Signs"}]}],"code":{"coding":[{"system":"http://loinc.org","version":"2.73","code":"32451-7"}]},"subject":{"reference":"Patient/73734a3e-0dc8-44ce-a5a2-070b1ab48aaf"},"effectivePeriod":{"start":"2025-09-30T09:50:00+00:00","end":"2025-09-30T09:50:00+00:00"},"valueBoolean":true},"request":{"method":"PUT","url":"Observation/8fb300c5-cdb6-4d6a-bd4e-4f03ba6421ac"}},{"fullUrl":"https://madie.cms.gov/Encounter/5c9a42eab8484623838500c1","resource":{"resourceType":"Encounter","id":"59fd95c4-d563-4952-acc5-a6fe99273352","meta":{"profile":["http://hl7.org/fhir/us/qicore/StructureDefinition/qicore-encounter"]},"status":"finished","class":{"system":"http://terminology.hl7.org/CodeSystem/v3-ActCode","code":"AMB"},"type":[{"coding":[{"system":"http://www.ama-assn.org/go/cpt","code":"99205"}]}],"subject":{"reference":"Patient/73734a3e-0dc8-44ce-a5a2-070b1ab48aaf"},"period":{"start":"2025-09-11T10:00:00+00:00","end":"2025-09-11T11:00:00+00:00"}},"request":{"method":"PUT","url":"Encounter/59fd95c4-d563-4952-acc5-a6fe99273352"}},{"fullUrl":"https://madie.cms.gov/MeasureReport/e0f905bb-b592-4756-8cab-978d21ed3413","resource":{"resourceType":"MeasureReport","id":"e0f905bb-b592-4756-8cab-978d21ed3413","meta":{"profile":["http://hl7.org/fhir/us/cqfmeasures/StructureDefinition/test-case-cqfm"]},"contained":[{"resourceType":"Parameters","id":"25c2c78b-9d97-47d4-bbed-46943e8b67aa-parameters","parameter":[{"name":"subject","valueString":"73734a3e-0dc8-44ce-a5a2-070b1ab48aaf"}]}],"extension":[{"url":"http://hl7.org/fhir/us/cqfmeasures/StructureDefinition/cqfm-inputParameters","valueReference":{"reference":"#25c2c78b-9d97-47d4-bbed-46943e8b67aa-parameters"}},{"url":"http://hl7.org/fhir/us/cqfmeasures/StructureDefinition/cqfm-testCaseDescription","valueMarkdown":"Patient does not have retinopathy diagnosis."}],"modifierExtension":[{"url":"http://hl7.org/fhir/us/cqfmeasures/StructureDefinition/cqfm-isTestCase","valueBoolean":true}],"status":"complete","type":"individual","measure":"https://madie.cms.gov/Measure/DRCommunicationWithPhysicianManagingDiabetesFHIR","period":{"start":"2025-01-01","end":"2025-12-31"},"group":[{"population":[{"code":{"coding":[{"system":"http://terminology.hl7.org/CodeSystem/measure-population","code":"initial-population","display":"Initial Population"}]},"count":0},{"code":{"coding":[{"system":"http://terminology.hl7.org/CodeSystem/measure-population","code":"denominator","display":"Denominator"}]},"count":0},{"code":{"coding":[{"system":"http://terminology.hl7.org/CodeSystem/measure-population","code":"numerator","display":"Numerator"}]},"count":0},{"code":{"coding":[{"system":"http://terminology.hl7.org/CodeSystem/measure-population","code":"denominator-exception","display":"Denominator Exception"}]},"count":0}]}]},"request":{"method":"PUT","url":"MeasureReport/e0f905bb-b592-4756-8cab-978d21ed3413"}}]}