{"resourceType":"Bundle","id":"tests-ccee7cc2-a83f-4b0b-8cda-43099234b75d-bundle","type":"transaction","entry":[{"fullUrl":"https://madie.cms.gov/Patient/ccee7cc2-a83f-4b0b-8cda-43099234b75d","resource":{"resourceType":"Patient","id":"ccee7cc2-a83f-4b0b-8cda-43099234b75d","meta":{"profile":["http://hl7.org/fhir/us/qicore/StructureDefinition/qicore-patient"]},"extension":[{"url":"http://hl7.org/fhir/us/core/StructureDefinition/us-core-race","extension":[{"url":"ombCategory","valueCoding":{"system":"urn:oid:2.16.840.1.113883.6.238","code":"2106-3","display":"White","userSelected":true}},{"url":"text","valueString":"White"}]},{"url":"http://hl7.org/fhir/us/core/StructureDefinition/us-core-ethnicity","extension":[{"url":"ombCategory","valueCoding":{"system":"urn:oid:2.16.840.1.113883.6.238","code":"2186-5","display":"Non Hispanic or Latino","userSelected":true}},{"url":"text","valueString":"Non Hispanic or Latino"}]}],"identifier":[{"type":{"coding":[{"system":"http://terminology.hl7.org/CodeSystem/v2-0203","code":"MR"}]},"system":"https://myGoodHealthCare.com/","value":"61168b8798086b77ef9c5ec1"}],"active":true,"name":[{"use":"usual","family":"IPFail","given":["DiabeticRetinopathyDxInactive"]}],"gender":"male","birthDate":"1988-04-02"},"request":{"method":"PUT","url":"Patient/ccee7cc2-a83f-4b0b-8cda-43099234b75d"}},{"fullUrl":"https://madie.cms.gov/Condition/5c9a42eab8484623838500c0","resource":{"resourceType":"Condition","id":"a67b9cc7-eb63-41a3-b7c3-8ffbcfdea3a1","meta":{"profile":["http://hl7.org/fhir/us/qicore/StructureDefinition/qicore-condition"]},"clinicalStatus":{"coding":[{"system":"http://terminology.hl7.org/CodeSystem/condition-clinical","code":"inactive","display":"Inactive","userSelected":true}]},"category":[{"coding":[{"system":"http://terminology.hl7.org/CodeSystem/condition-category","code":"problem-list-item","display":"Problem List Item"}]}],"code":{"coding":[{"system":"http://snomed.info/sct","version":"http://snomed.info/sct/731000124108/version/202303","code":"314014002"}]},"subject":{"reference":"Patient/ccee7cc2-a83f-4b0b-8cda-43099234b75d"},"onsetDateTime":"2025-09-10T10:45:00+00:00"},"request":{"method":"PUT","url":"Condition/a67b9cc7-eb63-41a3-b7c3-8ffbcfdea3a1"}},{"fullUrl":"https://madie.cms.gov/Encounter/5c9a42eab8484623839000a","resource":{"resourceType":"Encounter","id":"b8d3d1f1-61c6-4702-b900-8a6895ed2e2d","meta":{"profile":["http://hl7.org/fhir/us/qicore/StructureDefinition/qicore-encounter"]},"status":"finished","class":{"system":"http://terminology.hl7.org/CodeSystem/v3-ActCode","code":"AMB"},"type":[{"coding":[{"system":"http://www.ama-assn.org/go/cpt","version":"2023","code":"99205"}]}],"subject":{"reference":"Patient/ccee7cc2-a83f-4b0b-8cda-43099234b75d"},"period":{"start":"2025-09-11T10:00:00+00:00","end":"2025-09-11T11:00:00+00:00"}},"request":{"method":"PUT","url":"Encounter/b8d3d1f1-61c6-4702-b900-8a6895ed2e2d"}},{"fullUrl":"https://madie.cms.gov/Coverage/900090","resource":{"resourceType":"Coverage","id":"09ffe26c-943f-4dff-9711-e568a2246e51","meta":{"profile":["http://hl7.org/fhir/us/qicore/StructureDefinition/qicore-coverage"]},"status":"active","beneficiary":{"reference":"Patient/ccee7cc2-a83f-4b0b-8cda-43099234b75d"},"payor":[{"reference":"Organization/4b5a882f-1f43-485c-85c6-f5ad2337d5b1"}]},"request":{"method":"PUT","url":"Coverage/09ffe26c-943f-4dff-9711-e568a2246e51"}},{"fullUrl":"https://madie.cms.gov/Organization/123456","resource":{"resourceType":"Organization","id":"4b5a882f-1f43-485c-85c6-f5ad2337d5b1","meta":{"profile":["http://hl7.org/fhir/us/qicore/StructureDefinition/qicore-organization"]},"identifier":[{"use":"temp","system":"urn:oid:2.16.840.1.113883.4.4","value":"21-3259825"}],"active":true,"type":[{"coding":[{"system":"http://terminology.hl7.org/CodeSystem/organization-type","code":"pay","display":"Payer"}]}],"name":"Blue Cross Blue Shield of Texas","telecom":[{"system":"phone","value":"(+1) 972-766-6900"}],"address":[{"use":"billing","type":"postal","line":["P.O. Box 660044"],"city":"Dallas","state":"TX","postalCode":"75266-0044","country":"USA"}]},"request":{"method":"PUT","url":"Organization/4b5a882f-1f43-485c-85c6-f5ad2337d5b1"}},{"fullUrl":"https://madie.cms.gov/MeasureReport/28ddd623-827c-4b32-8a2c-adf0aa58f3fb","resource":{"resourceType":"MeasureReport","id":"28ddd623-827c-4b32-8a2c-adf0aa58f3fb","meta":{"profile":["http://hl7.org/fhir/us/cqfmeasures/StructureDefinition/test-case-cqfm"]},"contained":[{"resourceType":"Parameters","id":"27667dff-4fab-42e4-8c3e-a41448ee42bc-parameters","parameter":[{"name":"subject","valueString":"ccee7cc2-a83f-4b0b-8cda-43099234b75d"}]}],"extension":[{"url":"http://hl7.org/fhir/us/cqfmeasures/StructureDefinition/cqfm-inputParameters","valueReference":{"reference":"#27667dff-4fab-42e4-8c3e-a41448ee42bc-parameters"}},{"url":"http://hl7.org/fhir/us/cqfmeasures/StructureDefinition/cqfm-testCaseDescription","valueMarkdown":"Patient with Qualifying Encounter during MP and overlapped diabetic retinopathy diagnosis does not meet population criteria due to inactive clinical status"}],"modifierExtension":[{"url":"http://hl7.org/fhir/us/cqfmeasures/StructureDefinition/cqfm-isTestCase","valueBoolean":true}],"status":"complete","type":"individual","measure":"https://madie.cms.gov/Measure/DRCommunicationWithPhysicianManagingDiabetesFHIR","period":{"start":"2025-01-01","end":"2025-12-31"},"group":[{"population":[{"code":{"coding":[{"system":"http://terminology.hl7.org/CodeSystem/measure-population","code":"initial-population","display":"Initial Population"}]},"count":0},{"code":{"coding":[{"system":"http://terminology.hl7.org/CodeSystem/measure-population","code":"denominator","display":"Denominator"}]},"count":0},{"code":{"coding":[{"system":"http://terminology.hl7.org/CodeSystem/measure-population","code":"numerator","display":"Numerator"}]},"count":0},{"code":{"coding":[{"system":"http://terminology.hl7.org/CodeSystem/measure-population","code":"denominator-exception","display":"Denominator Exception"}]},"count":0}]}]},"request":{"method":"PUT","url":"MeasureReport/28ddd623-827c-4b32-8a2c-adf0aa58f3fb"}}]}