{
  "resourceType": "Bundle",
  "id": "IPPPass-InitialOfficeVisit",
  "type": "transaction",
  "entry": [ {
    "fullUrl": "https://madie.cms.gov/Patient/048a7212-c19c-4f9d-89e2-13727b23e585",
    "resource": {
      "resourceType": "Patient",
      "id": "048a7212-c19c-4f9d-89e2-13727b23e585",
      "meta": {
        "profile": [ "http://hl7.org/fhir/us/qicore/StructureDefinition/qicore-patient" ]
      },
      "extension": [ {
        "url": "http://hl7.org/fhir/us/core/StructureDefinition/us-core-race",
        "extension": [ {
          "url": "ombCategory",
          "valueCoding": {
            "system": "urn:oid:2.16.840.1.113883.6.238",
            "code": "2028-9",
            "display": "Asian"
          }
        }, {
          "url": "text",
          "valueString": "Asian"
        } ]
      }, {
        "url": "http://hl7.org/fhir/us/core/StructureDefinition/us-core-ethnicity",
        "extension": [ {
          "url": "ombCategory",
          "valueCoding": {
            "system": "urn:oid:2.16.840.1.113883.6.238",
            "code": "2135-2",
            "display": "Hispanic or Latino"
          }
        }, {
          "url": "text",
          "valueString": "Hispanic or Latino"
        } ]
      } ],
      "identifier": [ {
        "system": "http://hospital.smarthealthit.org",
        "value": "999999995"
      } ],
      "name": [ {
        "family": "IPPass",
        "given": [ "InitialOfficeVisit" ]
      } ],
      "gender": "female",
      "birthDate": "2006-12-31"
    },
    "request": {
      "method": "POST",
      "url": "Patient/048a7212-c19c-4f9d-89e2-13727b23e585"
    }
  }, {
    "fullUrl": "https://madie.cms.gov/Encounter/Encounter-1",
    "resource": {
      "resourceType": "Encounter",
      "id": "Encounter-1",
      "meta": {
        "profile": [ "http://hl7.org/fhir/us/qicore/StructureDefinition/qicore-encounter" ]
      },
      "status": "finished",
      "class": {
        "system": "http://terminology.hl7.org/CodeSystem/v3-ActCode",
        "code": "AMB",
        "display": "ambulatory"
      },
      "type": [ {
        "coding": [ {
          "system": "http://www.ama-assn.org/go/cpt",
          "code": "99386",
          "display": "Initial comprehensive preventive medicine evaluation and management of an individual including an age and gender appropriate history, examination, counseling/anticipatory guidance/risk factor reduction interventions, and the ordering of laboratory/diagnostic procedures, new patient; 40-64 years"
        } ]
      } ],
      "subject": {
        "reference": "Patient/048a7212-c19c-4f9d-89e2-13727b23e585"
      },
      "period": {
        "start": "2025-01-01T00:00:00.000Z",
        "end": "2025-01-01T01:00:00.000Z"
      }
    },
    "request": {
      "method": "POST",
      "url": "Encounter/Encounter-1"
    }
  }, {
    "fullUrl": "https://madie.cms.gov/Condition/Condition-1",
    "resource": {
      "resourceType": "Condition",
      "id": "Condition-1",
      "meta": {
        "profile": [ "http://hl7.org/fhir/us/qicore/StructureDefinition/qicore-condition" ]
      },
      "clinicalStatus": {
        "coding": [ {
          "system": "http://terminology.hl7.org/CodeSystem/condition-clinical",
          "code": "active"
        } ]
      },
      "category": [ {
        "coding": [ {
          "system": "http://terminology.hl7.org/CodeSystem/condition-category",
          "code": "problem-list-item",
          "display": "Problem List Item"
        } ]
      } ],
      "code": {
        "coding": [ {
          "system": "http://snomed.info/sct",
          "code": "371125006",
          "display": "Labile essential hypertension (disorder)"
        } ]
      },
      "subject": {
        "reference": "Patient/048a7212-c19c-4f9d-89e2-13727b23e585"
      },
      "onsetDateTime": "2025-06-30T23:59:59.000Z"
    },
    "request": {
      "method": "POST",
      "url": "Condition/Condition-1"
    }
  }, {
    "fullUrl": "https://madie.cms.gov/MeasureReport/836b8fef-1f37-4140-a8c3-57223a711025",
    "resource": {
      "resourceType": "MeasureReport",
      "id": "836b8fef-1f37-4140-a8c3-57223a711025",
      "meta": {
        "profile": [ "http://hl7.org/fhir/us/cqfmeasures/StructureDefinition/test-case-cqfm" ]
      },
      "contained": [ {
        "resourceType": "Parameters",
        "id": "77f7ef21-2e55-4b7f-ae08-beb3b8acb042-parameters",
        "parameter": [ {
          "name": "subject",
          "valueString": "048a7212-c19c-4f9d-89e2-13727b23e585"
        } ]
      } ],
      "extension": [ {
        "url": "http://hl7.org/fhir/us/cqfmeasures/StructureDefinition/cqfm-inputParameters",
        "valueReference": {
          "reference": "#77f7ef21-2e55-4b7f-ae08-beb3b8acb042-parameters"
        }
      }, {
        "url": "http://hl7.org/fhir/us/cqfmeasures/StructureDefinition/cqfm-testCaseDescription",
        "valueMarkdown": "Initial office visit during MP"
      } ],
      "modifierExtension": [ {
        "url": "http://hl7.org/fhir/us/cqfmeasures/StructureDefinition/cqfm-isTestCase",
        "valueBoolean": true
      } ],
      "status": "complete",
      "type": "individual",
      "measure": "https://madie.cms.gov/Measure/ControllingHighBloodPressureFHIR",
      "period": {
        "start": "2025-01-01",
        "end": "2025-12-31"
      },
      "group": [ {
        "population": [ {
          "code": {
            "coding": [ {
              "system": "http://terminology.hl7.org/CodeSystem/measure-population",
              "code": "initial-population",
              "display": "Initial Population"
            } ]
          },
          "count": 1
        }, {
          "code": {
            "coding": [ {
              "system": "http://terminology.hl7.org/CodeSystem/measure-population",
              "code": "denominator",
              "display": "Denominator"
            } ]
          },
          "count": 1
        }, {
          "code": {
            "coding": [ {
              "system": "http://terminology.hl7.org/CodeSystem/measure-population",
              "code": "denominator-exclusion",
              "display": "Denominator Exclusion"
            } ]
          },
          "count": 0
        }, {
          "code": {
            "coding": [ {
              "system": "http://terminology.hl7.org/CodeSystem/measure-population",
              "code": "numerator",
              "display": "Numerator"
            } ]
          },
          "count": 0
        } ]
      } ],
      "evaluatedResource": [ {
        "reference": "https://madie.cms.gov/Patient/048a7212-c19c-4f9d-89e2-13727b23e585"
      }, {
        "reference": "https://madie.cms.gov/Encounter/Encounter-1"
      }, {
        "reference": "https://madie.cms.gov/Condition/Condition-1"
      } ]
    },
    "request": {
      "method": "POST",
      "url": "MeasureReport/836b8fef-1f37-4140-a8c3-57223a711025"
    }
  } ]
}