{
  "resourceType": "Bundle",
  "id": "62c880ec0111a60120dc220c",
  "type": "transaction",
  "entry": [ {
    "fullUrl": "https://madie.cms.gov/Patient/64e6ec83-91f3-49be-8a32-cce1f3468a2e",
    "resource": {
      "resourceType": "Patient",
      "id": "64e6ec83-91f3-49be-8a32-cce1f3468a2e",
      "meta": {
        "profile": [ "http://hl7.org/fhir/us/qicore/StructureDefinition/qicore-patient" ]
      },
      "text": {
        "status": "generated",
        "div": "<div xmlns=\"http://www.w3.org/1999/xhtml\"><div class=\"hapiHeaderText\">MultCancerDx<b>DENOMPassPop2</b></div><table class=\"hapiPropertyTable\"><tbody><tr><td>Date of birth</td><td><span>04 March 1978</span></td></tr></tbody></table></div>"
      },
      "extension": [ {
        "url": "http://hl7.org/fhir/us/core/StructureDefinition/us-core-race",
        "extension": [ {
          "url": "ombCategory",
          "valueCoding": {
            "system": "urn:oid:2.16.840.1.113883.6.238",
            "code": "1002-5",
            "display": "American Indian or Alaska Native",
            "userSelected": true
          }
        }, {
          "url": "text",
          "valueString": "American Indian or Alaska Native"
        } ]
      }, {
        "url": "http://hl7.org/fhir/us/core/StructureDefinition/us-core-ethnicity",
        "extension": [ {
          "url": "ombCategory",
          "valueCoding": {
            "system": "urn:oid:2.16.840.1.113883.6.238",
            "code": "2135-2",
            "display": "Hispanic or Latino",
            "userSelected": true
          }
        }, {
          "url": "text",
          "valueString": "Hispanic or Latino"
        } ]
      } ],
      "identifier": [ {
        "type": {
          "coding": [ {
            "system": "http://terminology.hl7.org/CodeSystem/v2-0203",
            "code": "MR"
          } ]
        },
        "system": "https://bonnie-fhir.healthit.gov/",
        "value": "62c880ec0111a60120dc220c"
      } ],
      "active": true,
      "name": [ {
        "use": "usual",
        "family": "DENOMPassPop2",
        "given": [ "MultCancerDx" ]
      } ],
      "gender": "female",
      "birthDate": "1978-03-04"
    },
    "request": {
      "method": "POST",
      "url": "Patient/64e6ec83-91f3-49be-8a32-cce1f3468a2e"
    }
  }, {
    "fullUrl": "https://madie.cms.gov/Condition/5e41aa14a9c22a0000b32084",
    "resource": {
      "resourceType": "Condition",
      "id": "5e41aa14a9c22a0000b32084",
      "meta": {
        "profile": [ "http://hl7.org/fhir/us/qicore/StructureDefinition/qicore-condition" ]
      },
      "clinicalStatus": {
        "coding": [ {
          "system": "http://terminology.hl7.org/CodeSystem/condition-clinical",
          "code": "active",
          "display": "active",
          "userSelected": true
        } ]
      },
      "verificationStatus": {
        "coding": [ {
          "system": "http://terminology.hl7.org/CodeSystem/condition-ver-status",
          "code": "confirmed",
          "display": "Confirmed"
        } ]
      },
      "category": [ {
        "coding": [ {
          "system": "http://terminology.hl7.org/CodeSystem/condition-category",
          "code": "problem-list-item",
          "display": "Problem List Item"
        } ]
      } ],
      "code": {
        "coding": [ {
          "system": "http://snomed.info/sct",
          "code": "107691000119101"
        } ]
      },
      "subject": {
        "reference": "Patient/64e6ec83-91f3-49be-8a32-cce1f3468a2e"
      },
      "onsetDateTime": "2025-01-10T08:00:00.000Z"
    },
    "request": {
      "method": "POST",
      "url": "Condition/5e41aa14a9c22a0000b32084"
    }
  }, {
    "fullUrl": "https://madie.cms.gov/Condition/5e41ab3ca9c22a0000b3219d",
    "resource": {
      "resourceType": "Condition",
      "id": "5e41ab3ca9c22a0000b3219d",
      "meta": {
        "profile": [ "http://hl7.org/fhir/us/qicore/StructureDefinition/qicore-condition" ]
      },
      "clinicalStatus": {
        "coding": [ {
          "system": "http://terminology.hl7.org/CodeSystem/condition-clinical",
          "code": "remission",
          "display": "remission",
          "userSelected": true
        } ]
      },
      "verificationStatus": {
        "coding": [ {
          "system": "http://terminology.hl7.org/CodeSystem/condition-ver-status",
          "code": "confirmed",
          "display": "Confirmed"
        } ]
      },
      "category": [ {
        "coding": [ {
          "system": "http://terminology.hl7.org/CodeSystem/condition-category",
          "code": "problem-list-item",
          "display": "Problem List Item"
        } ]
      } ],
      "code": {
        "coding": [ {
          "system": "http://hl7.org/fhir/sid/icd-10-cm",
          "code": "C02.3"
        } ]
      },
      "subject": {
        "reference": "Patient/64e6ec83-91f3-49be-8a32-cce1f3468a2e"
      },
      "onsetDateTime": "2025-03-10T08:00:00.000Z",
      "abatementDateTime": "2025-03-10T08:15:00.000Z"
    },
    "request": {
      "method": "POST",
      "url": "Condition/5e41ab3ca9c22a0000b3219d"
    }
  }, {
    "fullUrl": "https://madie.cms.gov/Coverage/60099acb1c76ba64612b069a",
    "resource": {
      "resourceType": "Coverage",
      "id": "60099acb1c76ba64612b069a",
      "meta": {
        "profile": [ "http://hl7.org/fhir/us/qicore/StructureDefinition/qicore-coverage" ]
      },
      "status": "active",
      "beneficiary": {
        "reference": "Patient/64e6ec83-91f3-49be-8a32-cce1f3468a2e"
      },
      "period": {
        "start": "1978-03-04T08:00:00.000Z"
      },
      "payor": [ {
        "reference": "Organization/123456"
      } ]
    },
    "request": {
      "method": "POST",
      "url": "Coverage/60099acb1c76ba64612b069a"
    }
  }, {
    "fullUrl": "https://madie.cms.gov/Encounter/radiation-treatment-management-445b",
    "resource": {
      "resourceType": "Encounter",
      "id": "radiation-treatment-management-445b",
      "meta": {
        "profile": [ "http://hl7.org/fhir/us/qicore/StructureDefinition/qicore-encounter" ]
      },
      "status": "finished",
      "class": {
        "system": "http://terminology.hl7.org/CodeSystem/v3-ActCode",
        "code": "AMB",
        "display": "ambulatory",
        "userSelected": true
      },
      "type": [ {
        "coding": [ {
          "system": "http://www.ama-assn.org/go/cpt",
          "version": "2023",
          "code": "77427",
          "display": "Radiation treatment management, 5 treatments",
          "userSelected": true
        } ]
      } ],
      "subject": {
        "reference": "Patient/64e6ec83-91f3-49be-8a32-cce1f3468a2e"
      },
      "period": {
        "start": "2025-02-10T08:00:00.000+00:00",
        "end": "2025-02-10T08:15:00.000+00:00"
      }
    },
    "request": {
      "method": "POST",
      "url": "Encounter/radiation-treatment-management-445b"
    }
  }, {
    "fullUrl": "https://madie.cms.gov/Organization/123456",
    "resource": {
      "resourceType": "Organization",
      "id": "123456",
      "meta": {
        "profile": [ "http://hl7.org/fhir/us/qicore/StructureDefinition/qicore-organization" ]
      },
      "identifier": [ {
        "use": "temp",
        "system": "urn:oid:2.16.840.1.113883.4.4",
        "value": "21-3259825"
      } ],
      "active": true,
      "type": [ {
        "coding": [ {
          "system": "http://terminology.hl7.org/CodeSystem/organization-type",
          "code": "pay",
          "display": "Payer"
        } ]
      } ],
      "name": "Blue Cross Blue Shield of Texas",
      "telecom": [ {
        "system": "phone",
        "value": "(+1) 972-766-6900"
      } ],
      "address": [ {
        "use": "billing",
        "type": "postal",
        "line": [ "P.O. Box 660044" ],
        "city": "Dallas",
        "state": "TX",
        "postalCode": "75266-0044",
        "country": "USA"
      } ]
    },
    "request": {
      "method": "POST",
      "url": "Organization/123456"
    }
  }, {
    "fullUrl": "https://madie.cms.gov/Practitioner/practitioner-123456",
    "resource": {
      "resourceType": "Practitioner",
      "id": "practitioner-123456",
      "meta": {
        "profile": [ "http://hl7.org/fhir/us/qicore/StructureDefinition/qicore-practitioner" ]
      },
      "identifier": [ {
        "system": "http://hl7.org/fhir/sid/us-npi",
        "value": "123456"
      } ],
      "name": [ {
        "family": "Evil",
        "prefix": [ "Dr" ]
      } ]
    },
    "request": {
      "method": "POST",
      "url": "Practitioner/practitioner-123456"
    }
  }, {
    "fullUrl": "https://madie.cms.gov/MeasureReport/b63294df-6bfb-4be3-90c6-4143d5991bf0",
    "resource": {
      "resourceType": "MeasureReport",
      "id": "b63294df-6bfb-4be3-90c6-4143d5991bf0",
      "meta": {
        "profile": [ "http://hl7.org/fhir/us/cqfmeasures/StructureDefinition/test-case-cqfm" ]
      },
      "contained": [ {
        "resourceType": "Parameters",
        "id": "383ff767-fc81-4172-abf5-50d3f898dcdf-parameters",
        "parameter": [ {
          "name": "subject",
          "valueString": "64e6ec83-91f3-49be-8a32-cce1f3468a2e"
        } ]
      } ],
      "extension": [ {
        "url": "http://hl7.org/fhir/us/cqfmeasures/StructureDefinition/cqfm-inputParameters",
        "valueReference": {
          "reference": "#383ff767-fc81-4172-abf5-50d3f898dcdf-parameters"
        }
      }, {
        "url": "http://hl7.org/fhir/us/cqfmeasures/StructureDefinition/cqfm-testCaseDescription",
        "valueMarkdown": "Patient with multiple cancer diagnoses on different dates that overlap a radiation treatment management during measurement period.\n"
      } ],
      "modifierExtension": [ {
        "url": "http://hl7.org/fhir/us/cqfmeasures/StructureDefinition/cqfm-isTestCase",
        "valueBoolean": true
      } ],
      "status": "complete",
      "type": "individual",
      "measure": "https://madie.cms.gov/Measure/OncologyPainIntensityQuantifiedFHIR",
      "period": {
        "start": "2025-01-01",
        "end": "2025-12-31"
      },
      "group": [ {
        "population": [ {
          "code": {
            "coding": [ {
              "system": "http://terminology.hl7.org/CodeSystem/measure-population",
              "code": "initial-population",
              "display": "Initial Population"
            } ]
          },
          "count": 0
        }, {
          "code": {
            "coding": [ {
              "system": "http://terminology.hl7.org/CodeSystem/measure-population",
              "code": "denominator",
              "display": "Denominator"
            } ]
          },
          "count": 0
        }, {
          "code": {
            "coding": [ {
              "system": "http://terminology.hl7.org/CodeSystem/measure-population",
              "code": "numerator",
              "display": "Numerator"
            } ]
          },
          "count": 0
        } ]
      }, {
        "population": [ {
          "code": {
            "coding": [ {
              "system": "http://terminology.hl7.org/CodeSystem/measure-population",
              "code": "initial-population",
              "display": "Initial Population"
            } ]
          },
          "count": 1
        }, {
          "code": {
            "coding": [ {
              "system": "http://terminology.hl7.org/CodeSystem/measure-population",
              "code": "denominator",
              "display": "Denominator"
            } ]
          },
          "count": 1
        }, {
          "code": {
            "coding": [ {
              "system": "http://terminology.hl7.org/CodeSystem/measure-population",
              "code": "numerator",
              "display": "Numerator"
            } ]
          },
          "count": 0
        } ]
      } ],
      "evaluatedResource": [ {
        "reference": "https://madie.cms.gov/Patient/64e6ec83-91f3-49be-8a32-cce1f3468a2e"
      }, {
        "reference": "https://madie.cms.gov/Condition/5e41aa14a9c22a0000b32084"
      }, {
        "reference": "https://madie.cms.gov/Condition/5e41ab3ca9c22a0000b3219d"
      }, {
        "reference": "https://madie.cms.gov/Coverage/60099acb1c76ba64612b069a"
      }, {
        "reference": "https://madie.cms.gov/Encounter/radiation-treatment-management-445b"
      }, {
        "reference": "https://madie.cms.gov/Organization/123456"
      }, {
        "reference": "https://madie.cms.gov/Practitioner/practitioner-123456"
      } ]
    },
    "request": {
      "method": "POST",
      "url": "MeasureReport/b63294df-6bfb-4be3-90c6-4143d5991bf0"
    }
  } ]
}