{"resourceType":"Bundle","id":"tests-7d60115f-0495-485a-9140-df3ca75bce5c-bundle","type":"transaction","entry":[{"fullUrl":"https://madie.cms.gov/Patient/7d60115f-0495-485a-9140-df3ca75bce5c","resource":{"resourceType":"Patient","id":"7d60115f-0495-485a-9140-df3ca75bce5c","meta":{"profile":["http://hl7.org/fhir/us/qicore/StructureDefinition/qicore-patient"]},"extension":[{"url":"http://hl7.org/fhir/us/core/StructureDefinition/us-core-race","extension":[{"url":"ombCategory","valueCoding":{"system":"urn:oid:2.16.840.1.113883.6.238","code":"2028-9","display":"Asian","userSelected":true}},{"url":"text","valueString":"Asian"}]},{"url":"http://hl7.org/fhir/us/core/StructureDefinition/us-core-ethnicity","extension":[{"url":"ombCategory","valueCoding":{"system":"urn:oid:2.16.840.1.113883.6.238","code":"2186-5","display":"Not Hispanic or Latino","userSelected":true}},{"url":"text","valueString":"Not Hispanic or Latino"}]}],"identifier":[{"type":{"coding":[{"system":"http://terminology.hl7.org/CodeSystem/v2-0203","code":"MR"}]},"system":"https://bonnie-fhir.healthit.gov/","value":"62ec24deea03a4ebacd6a074"}],"name":[{"family":"IPPDenomFail","given":["EncBeforeMP"]}],"gender":"male","birthDate":"2007-01-01"},"request":{"method":"PUT","url":"Patient/7d60115f-0495-485a-9140-df3ca75bce5c"}},{"fullUrl":"https://madie.cms.gov/Encounter/encounter-to-document-medications-a075","resource":{"resourceType":"Encounter","id":"37763054-63cf-4624-bbcf-8b2dfb320618","meta":{"profile":["http://hl7.org/fhir/us/qicore/StructureDefinition/qicore-encounter"]},"status":"finished","class":{"system":"http://terminology.hl7.org/CodeSystem/v3-ActCode","code":"IMP","display":"inpatient encounter"},"type":[{"coding":[{"system":"http://snomed.info/sct","version":"2022-03","code":"10197000","display":"Psychiatric interview and evaluation (procedure)","userSelected":true}]}],"subject":{"reference":"Patient/7d60115f-0495-485a-9140-df3ca75bce5c"},"period":{"start":"2024-12-31T23:15:00.000+00:00","end":"2024-12-31T23:59:00.000+00:00"}},"request":{"method":"PUT","url":"Encounter/37763054-63cf-4624-bbcf-8b2dfb320618"}},{"fullUrl":"https://madie.cms.gov/MeasureReport/5fd12ec6-ba22-493c-ae53-88e611547b1d","resource":{"resourceType":"MeasureReport","id":"5fd12ec6-ba22-493c-ae53-88e611547b1d","meta":{"profile":["http://hl7.org/fhir/us/cqfmeasures/StructureDefinition/test-case-cqfm"]},"contained":[{"resourceType":"Parameters","id":"168081a4-d253-4277-94ac-7e0eb9356e6f-parameters","parameter":[{"name":"subject","valueString":"7d60115f-0495-485a-9140-df3ca75bce5c"}]}],"extension":[{"url":"http://hl7.org/fhir/us/cqfmeasures/StructureDefinition/cqfm-inputParameters","valueReference":{"reference":"#168081a4-d253-4277-94ac-7e0eb9356e6f-parameters"}},{"url":"http://hl7.org/fhir/us/cqfmeasures/StructureDefinition/cqfm-testCaseDescription","valueMarkdown":"Qualifying encounter status finished before MP (edge test)"}],"modifierExtension":[{"url":"http://hl7.org/fhir/us/cqfmeasures/StructureDefinition/cqfm-isTestCase","valueBoolean":true}],"status":"complete","type":"individual","measure":"https://madie.cms.gov/Measure/DocumentationofCurrentMedicationsFHIR","period":{"start":"2025-01-01","end":"2025-12-31"},"group":[{"population":[{"code":{"coding":[{"system":"http://terminology.hl7.org/CodeSystem/measure-population","code":"initial-population","display":"Initial Population"}]},"count":0},{"code":{"coding":[{"system":"http://terminology.hl7.org/CodeSystem/measure-population","code":"denominator","display":"Denominator"}]},"count":0},{"code":{"coding":[{"system":"http://terminology.hl7.org/CodeSystem/measure-population","code":"numerator","display":"Numerator"}]},"count":0},{"code":{"coding":[{"system":"http://terminology.hl7.org/CodeSystem/measure-population","code":"denominator-exception","display":"Denominator Exception"}]},"count":0}]}]},"request":{"method":"PUT","url":"MeasureReport/5fd12ec6-ba22-493c-ae53-88e611547b1d"}}]}