{"resourceType":"Bundle","id":"tests-18ff7ddc-d1e5-44ef-98e3-a9285cd86cc5-bundle","type":"transaction","entry":[{"fullUrl":"https://madie.cms.gov/Patient/18ff7ddc-d1e5-44ef-98e3-a9285cd86cc5","resource":{"resourceType":"Patient","id":"18ff7ddc-d1e5-44ef-98e3-a9285cd86cc5","meta":{"profile":["http://hl7.org/fhir/us/qicore/StructureDefinition/qicore-patient"]},"extension":[{"url":"http://hl7.org/fhir/us/core/StructureDefinition/us-core-race","extension":[{"url":"ombCategory","valueCoding":{"system":"urn:oid:2.16.840.1.113883.6.238","code":"2054-5","display":"Black or African American","userSelected":true}},{"url":"text","valueString":"Black or African American"}]},{"url":"http://hl7.org/fhir/us/core/StructureDefinition/us-core-ethnicity","extension":[{"url":"ombCategory","valueCoding":{"system":"urn:oid:2.16.840.1.113883.6.238","code":"2186-5","display":"Not Hispanic or Latino","userSelected":true}},{"url":"text","valueString":"Not Hispanic or Latino"}]}],"identifier":[{"type":{"coding":[{"system":"http://terminology.hl7.org/CodeSystem/v2-0203","code":"MR"}]},"system":"https://bonnie-fhir.healthit.gov/","value":"62ec2954ea03a4ebacd6a07d"}],"name":[{"family":"IPPDenomFail","given":["Encounter1MinAfterMPEnds"]}],"gender":"female","birthDate":"2007-01-02"},"request":{"method":"PUT","url":"Patient/18ff7ddc-d1e5-44ef-98e3-a9285cd86cc5"}},{"fullUrl":"https://madie.cms.gov/Encounter/encounter-to-document-medications-a07e","resource":{"resourceType":"Encounter","id":"9427ca06-a71b-4611-b241-5249eeec0b48","meta":{"profile":["http://hl7.org/fhir/us/qicore/StructureDefinition/qicore-encounter"]},"status":"finished","class":{"system":"http://terminology.hl7.org/CodeSystem/v3-ActCode","code":"IMP","display":"inpatient encounter"},"type":[{"coding":[{"system":"http://snomed.info/sct","version":"2022-03","code":"10197000","display":"Psychiatric interview and evaluation (procedure)","userSelected":true}]}],"subject":{"reference":"Patient/18ff7ddc-d1e5-44ef-98e3-a9285cd86cc5"},"period":{"start":"2026-01-01T00:01:00.000+00:00","end":"2026-01-02T08:15:00.000+00:00"}},"request":{"method":"PUT","url":"Encounter/9427ca06-a71b-4611-b241-5249eeec0b48"}},{"fullUrl":"https://madie.cms.gov/MeasureReport/214eb5a1-b856-41b6-b9a8-abb07ae36264","resource":{"resourceType":"MeasureReport","id":"214eb5a1-b856-41b6-b9a8-abb07ae36264","meta":{"profile":["http://hl7.org/fhir/us/cqfmeasures/StructureDefinition/test-case-cqfm"]},"contained":[{"resourceType":"Parameters","id":"949d0dcb-6fb9-4243-9743-d8f06f0a5aa0-parameters","parameter":[{"name":"subject","valueString":"18ff7ddc-d1e5-44ef-98e3-a9285cd86cc5"}]}],"extension":[{"url":"http://hl7.org/fhir/us/cqfmeasures/StructureDefinition/cqfm-inputParameters","valueReference":{"reference":"#949d0dcb-6fb9-4243-9743-d8f06f0a5aa0-parameters"}},{"url":"http://hl7.org/fhir/us/cqfmeasures/StructureDefinition/cqfm-testCaseDescription","valueMarkdown":"Encounter outside MP - 1 min after MP ends"}],"modifierExtension":[{"url":"http://hl7.org/fhir/us/cqfmeasures/StructureDefinition/cqfm-isTestCase","valueBoolean":true}],"status":"complete","type":"individual","measure":"https://madie.cms.gov/Measure/DocumentationofCurrentMedicationsFHIR","period":{"start":"2025-01-01","end":"2025-12-31"},"group":[{"population":[{"code":{"coding":[{"system":"http://terminology.hl7.org/CodeSystem/measure-population","code":"initial-population","display":"Initial Population"}]},"count":0},{"code":{"coding":[{"system":"http://terminology.hl7.org/CodeSystem/measure-population","code":"denominator","display":"Denominator"}]},"count":0},{"code":{"coding":[{"system":"http://terminology.hl7.org/CodeSystem/measure-population","code":"numerator","display":"Numerator"}]},"count":0},{"code":{"coding":[{"system":"http://terminology.hl7.org/CodeSystem/measure-population","code":"denominator-exception","display":"Denominator Exception"}]},"count":0}]}]},"request":{"method":"PUT","url":"MeasureReport/214eb5a1-b856-41b6-b9a8-abb07ae36264"}}]}