{"resourceType":"Bundle","id":"tests-d6c5a019-b6fd-4468-b933-1475fec7ae4a-bundle","type":"transaction","entry":[{"fullUrl":"https://madie.cms.gov/Patient/d6c5a019-b6fd-4468-b933-1475fec7ae4a","resource":{"resourceType":"Patient","id":"d6c5a019-b6fd-4468-b933-1475fec7ae4a","meta":{"profile":["http://hl7.org/fhir/us/qicore/StructureDefinition/qicore-patient"]},"extension":[{"url":"http://hl7.org/fhir/us/core/StructureDefinition/us-core-race","extension":[{"url":"ombCategory","valueCoding":{"system":"urn:oid:2.16.840.1.113883.6.238","code":"1002-5","display":"American Indian or Alaska Native","userSelected":true}},{"url":"text","valueString":"American Indian or Alaska Native"}]},{"url":"http://hl7.org/fhir/us/core/StructureDefinition/us-core-ethnicity","extension":[{"url":"ombCategory","valueCoding":{"system":"urn:oid:2.16.840.1.113883.6.238","code":"2135-2","display":"Hispanic or Latino","userSelected":true}},{"url":"text","valueString":"Hispanic or Latino"}]}],"identifier":[{"type":{"coding":[{"system":"http://terminology.hl7.org/CodeSystem/v2-0203","code":"MR"}]},"system":"https://bonnie-fhir.healthit.gov/","value":"62ec2e7cea03a4ebacd6a084"}],"name":[{"family":"NumerFail","given":["MedsNoDocBeforeEncPeriod"]}],"gender":"unknown","birthDate":"1966-01-19"},"request":{"method":"PUT","url":"Patient/d6c5a019-b6fd-4468-b933-1475fec7ae4a"}},{"fullUrl":"https://madie.cms.gov/Encounter/encounter-to-document-medications-a085","resource":{"resourceType":"Encounter","id":"25ccda0c-6103-4abc-8b11-d46932d70d22","meta":{"profile":["http://hl7.org/fhir/us/qicore/StructureDefinition/qicore-encounter"]},"status":"finished","class":{"system":"http://terminology.hl7.org/CodeSystem/v3-ActCode","code":"IMP","display":"inpatient encounter"},"type":[{"coding":[{"system":"http://snomed.info/sct","version":"2022-03","code":"10197000","display":"Psychiatric interview and evaluation (procedure)","userSelected":true}]}],"subject":{"reference":"Patient/d6c5a019-b6fd-4468-b933-1475fec7ae4a"},"period":{"start":"2025-08-04T08:00:00.000+00:00","end":"2025-08-04T09:15:00.000+00:00"}},"request":{"method":"PUT","url":"Encounter/25ccda0c-6103-4abc-8b11-d46932d70d22"}},{"fullUrl":"https://madie.cms.gov/Task/documentation-of-current-medications-procedure-a086","resource":{"resourceType":"Task","id":"3c04017e-349b-4319-9e9e-2135e2962306","meta":{"profile":["http://hl7.org/fhir/us/qicore/StructureDefinition/qicore-task"]},"identifier":[{"use":"official","system":"http:/goodhealth.org/identifiers","value":"20170201-002"}],"status":"accepted","intent":"proposal","priority":"routine","code":{"coding":[{"system":"http://snomed.info/sct","code":"428191000124101","display":"Documentation of current medications (procedure)","userSelected":true}]},"for":{"reference":"Patient/d6c5a019-b6fd-4468-b933-1475fec7ae4a"},"executionPeriod":{"start":"2025-08-04T07:45:00+10:00"},"authoredOn":"2025-08-04T07:45:00.000+00:00"},"request":{"method":"PUT","url":"Task/3c04017e-349b-4319-9e9e-2135e2962306"}},{"fullUrl":"https://madie.cms.gov/MeasureReport/8e2cb559-b9fb-4aca-88f9-fea95e1ce00c","resource":{"resourceType":"MeasureReport","id":"8e2cb559-b9fb-4aca-88f9-fea95e1ce00c","meta":{"profile":["http://hl7.org/fhir/us/cqfmeasures/StructureDefinition/test-case-cqfm"]},"contained":[{"resourceType":"Parameters","id":"eb8e73f8-5d93-4b0b-9f92-e7054b13d79e-parameters","parameter":[{"name":"subject","valueString":"d6c5a019-b6fd-4468-b933-1475fec7ae4a"}]}],"extension":[{"url":"http://hl7.org/fhir/us/cqfmeasures/StructureDefinition/cqfm-inputParameters","valueReference":{"reference":"#eb8e73f8-5d93-4b0b-9f92-e7054b13d79e-parameters"}},{"url":"http://hl7.org/fhir/us/cqfmeasures/StructureDefinition/cqfm-testCaseDescription","valueMarkdown":"Qualifying encounter (status finished) during MP. Medications documented before encounter period (edge test) status = accepted"}],"modifierExtension":[{"url":"http://hl7.org/fhir/us/cqfmeasures/StructureDefinition/cqfm-isTestCase","valueBoolean":true}],"status":"complete","type":"individual","measure":"https://madie.cms.gov/Measure/DocumentationofCurrentMedicationsFHIR","period":{"start":"2025-01-01","end":"2025-12-31"},"group":[{"population":[{"code":{"coding":[{"system":"http://terminology.hl7.org/CodeSystem/measure-population","code":"initial-population","display":"Initial Population"}]},"count":1},{"code":{"coding":[{"system":"http://terminology.hl7.org/CodeSystem/measure-population","code":"denominator","display":"Denominator"}]},"count":1},{"code":{"coding":[{"system":"http://terminology.hl7.org/CodeSystem/measure-population","code":"numerator","display":"Numerator"}]},"count":0},{"code":{"coding":[{"system":"http://terminology.hl7.org/CodeSystem/measure-population","code":"denominator-exception","display":"Denominator Exception"}]},"count":0}]}]},"request":{"method":"PUT","url":"MeasureReport/8e2cb559-b9fb-4aca-88f9-fea95e1ce00c"}}]}