{"resourceType":"Bundle","id":"tests-806638cb-f0b9-4404-98fe-aba3e73ac65f-bundle","type":"transaction","entry":[{"fullUrl":"https://madie.cms.gov/Patient/806638cb-f0b9-4404-98fe-aba3e73ac65f","resource":{"resourceType":"Patient","id":"806638cb-f0b9-4404-98fe-aba3e73ac65f","meta":{"profile":["http://hl7.org/fhir/us/qicore/StructureDefinition/qicore-patient"]},"extension":[{"url":"http://hl7.org/fhir/us/core/StructureDefinition/us-core-race","extension":[{"url":"ombCategory","valueCoding":{"system":"urn:oid:2.16.840.1.113883.6.238","code":"1002-5","display":"American Indian or Alaska Native","userSelected":true}},{"url":"text","valueString":"American Indian or Alaska Native"},{"url":"detailed","valueCoding":{"system":"urn:oid:2.16.840.1.113883.6.238","code":"1653-5","display":"Tohono O'Odham"}}]},{"url":"http://hl7.org/fhir/us/core/StructureDefinition/us-core-ethnicity","extension":[{"url":"ombCategory","valueCoding":{"system":"urn:oid:2.16.840.1.113883.6.238","code":"2135-2","display":"Hispanic or Latino","userSelected":true}},{"url":"text","valueString":"Hispanic or Latino"},{"url":"detailed","valueCoding":{"system":"urn:oid:2.16.840.1.113883.6.238","code":"2153-5","display":"Mexican American Indian"}}]}],"identifier":[{"type":{"coding":[{"system":"http://terminology.hl7.org/CodeSystem/v2-0203","code":"MR"}]},"system":"https://bonnie-fhir.healthit.gov/","value":"62ec3235ea03a4ebacd6a08a"}],"name":[{"family":"NumerPass","given":["Enc1stDayMPAt0000"]}],"gender":"unknown","birthDate":"2007-01-01"},"request":{"method":"PUT","url":"Patient/806638cb-f0b9-4404-98fe-aba3e73ac65f"}},{"fullUrl":"https://madie.cms.gov/Encounter/encounter-to-document-medications-a085","resource":{"resourceType":"Encounter","id":"a33d658a-0c63-4f2c-9786-456d057d17b2","meta":{"profile":["http://hl7.org/fhir/us/qicore/StructureDefinition/qicore-encounter"]},"status":"finished","class":{"system":"http://terminology.hl7.org/CodeSystem/v3-ActCode","code":"AMB","display":"ambulatory"},"type":[{"coding":[{"system":"http://snomed.info/sct","version":"2022-03","code":"10197000","display":"Psychiatric interview and evaluation (procedure)","userSelected":true}]}],"subject":{"reference":"Patient/806638cb-f0b9-4404-98fe-aba3e73ac65f"},"period":{"start":"2025-01-01T00:00:00.000+00:00","end":"2025-08-04T08:15:00.000+00:00"}},"request":{"method":"PUT","url":"Encounter/a33d658a-0c63-4f2c-9786-456d057d17b2"}},{"fullUrl":"https://madie.cms.gov/Procedure/documentation-of-current-medications-procedure-58cf","resource":{"resourceType":"Procedure","id":"70f90dc9-b1c4-4883-9bf9-1e10ea5a2b39","meta":{"profile":["http://hl7.org/fhir/us/qicore/StructureDefinition/qicore-procedure"]},"extension":[{"url":"http://hl7.org/fhir/us/qicore/StructureDefinition/qicore-recorded","valueDateTime":"2024-02-01T09:00:00.000+00:00"}],"status":"completed","code":{"coding":[{"system":"http://snomed.info/sct","code":"428191000124101","display":"Documentation of current medications (procedure)","userSelected":true}]},"subject":{"reference":"Patient/806638cb-f0b9-4404-98fe-aba3e73ac65f"},"performedDateTime":"2025-01-01T08:10:00.000+00:00"},"request":{"method":"PUT","url":"Procedure/70f90dc9-b1c4-4883-9bf9-1e10ea5a2b39"}},{"fullUrl":"https://madie.cms.gov/Coverage/1","resource":{"resourceType":"Coverage","id":"5ab0a220-b7d6-471c-b128-e7597777b515","meta":{"profile":["http://hl7.org/fhir/us/qicore/StructureDefinition/qicore-coverage"]},"status":"active","type":{"coding":[{"system":"https://nahdo.org/sopt","code":"1","display":"MEDICARE"}]},"beneficiary":{"reference":"Patient/806638cb-f0b9-4404-98fe-aba3e73ac65f"},"period":{"start":"2024-12-01T00:00:00+00:00"},"payor":[{"reference":"Organization/4b5a882f-1f43-485c-85c6-f5ad2337d5b1"}]},"request":{"method":"PUT","url":"Coverage/5ab0a220-b7d6-471c-b128-e7597777b515"}},{"fullUrl":"https://madie.cms.gov/Organization/123456","resource":{"resourceType":"Organization","id":"4b5a882f-1f43-485c-85c6-f5ad2337d5b1","meta":{"profile":["http://hl7.org/fhir/us/qicore/StructureDefinition/qicore-organization"]},"identifier":[{"use":"temp","system":"urn:oid:2.16.840.1.113883.4.4","value":"21-3259825"}],"active":true,"type":[{"coding":[{"system":"http://terminology.hl7.org/CodeSystem/organization-type","code":"pay","display":"Payer"}]}],"name":"Blue Cross Blue Shield of Texas","telecom":[{"system":"phone","value":"(+1) 972-766-6900"}],"address":[{"use":"billing","type":"postal","line":["P.O. Box 660044"],"city":"Dallas","state":"TX","postalCode":"75266-0044","country":"USA"}]},"request":{"method":"PUT","url":"Organization/4b5a882f-1f43-485c-85c6-f5ad2337d5b1"}},{"fullUrl":"https://madie.cms.gov/Practitioner/practitioner-123456","resource":{"resourceType":"Practitioner","id":"b2978d22-5ad3-4613-8c29-6caae5fc8942","meta":{"profile":["http://hl7.org/fhir/us/qicore/StructureDefinition/qicore-practitioner"]},"identifier":[{"system":"http://hl7.org/fhir/sid/us-npi","value":"123456"}],"name":[{"family":"Evil","prefix":["Dr"]}]},"request":{"method":"PUT","url":"Practitioner/b2978d22-5ad3-4613-8c29-6caae5fc8942"}},{"fullUrl":"https://madie.cms.gov/MeasureReport/c18b5163-1665-4365-a20e-da5ed0bf1a7d","resource":{"resourceType":"MeasureReport","id":"c18b5163-1665-4365-a20e-da5ed0bf1a7d","meta":{"profile":["http://hl7.org/fhir/us/cqfmeasures/StructureDefinition/test-case-cqfm"]},"contained":[{"resourceType":"Parameters","id":"235d690b-a4aa-4ccc-a217-da6c601467dc-parameters","parameter":[{"name":"subject","valueString":"806638cb-f0b9-4404-98fe-aba3e73ac65f"}]}],"extension":[{"url":"http://hl7.org/fhir/us/cqfmeasures/StructureDefinition/cqfm-inputParameters","valueReference":{"reference":"#235d690b-a4aa-4ccc-a217-da6c601467dc-parameters"}},{"url":"http://hl7.org/fhir/us/cqfmeasures/StructureDefinition/cqfm-testCaseDescription","valueMarkdown":"Qualifying encounter on the first day of the measurement period with time of 0000."}],"modifierExtension":[{"url":"http://hl7.org/fhir/us/cqfmeasures/StructureDefinition/cqfm-isTestCase","valueBoolean":true}],"status":"complete","type":"individual","measure":"https://madie.cms.gov/Measure/DocumentationofCurrentMedicationsFHIR","period":{"start":"2025-01-01","end":"2025-12-31"},"group":[{"population":[{"code":{"coding":[{"system":"http://terminology.hl7.org/CodeSystem/measure-population","code":"initial-population","display":"Initial Population"}]},"count":1},{"code":{"coding":[{"system":"http://terminology.hl7.org/CodeSystem/measure-population","code":"denominator","display":"Denominator"}]},"count":1},{"code":{"coding":[{"system":"http://terminology.hl7.org/CodeSystem/measure-population","code":"numerator","display":"Numerator"}]},"count":1},{"code":{"coding":[{"system":"http://terminology.hl7.org/CodeSystem/measure-population","code":"denominator-exception","display":"Denominator Exception"}]},"count":0}]}]},"request":{"method":"PUT","url":"MeasureReport/c18b5163-1665-4365-a20e-da5ed0bf1a7d"}}]}