{"resourceType":"Bundle","id":"tests-3142fb25-de49-42b7-aeb9-61ffe1c9a086-bundle","type":"transaction","entry":[{"fullUrl":"https://madie.cms.gov/Patient/3142fb25-de49-42b7-aeb9-61ffe1c9a086","resource":{"resourceType":"Patient","id":"3142fb25-de49-42b7-aeb9-61ffe1c9a086","meta":{"profile":["http://hl7.org/fhir/us/qicore/StructureDefinition/qicore-patient"]},"extension":[{"url":"http://hl7.org/fhir/us/core/StructureDefinition/us-core-race","extension":[{"url":"ombCategory","valueCoding":{"system":"urn:oid:2.16.840.1.113883.6.238","code":"2076-8","display":"Native Hawaiian or Other Pacific Islander","userSelected":true}},{"url":"text","valueString":"Native Hawaiian or Other Pacific Islander"}]},{"url":"http://hl7.org/fhir/us/core/StructureDefinition/us-core-ethnicity","extension":[{"url":"ombCategory","valueCoding":{"system":"urn:oid:2.16.840.1.113883.6.238","code":"2135-2","display":"Hispanic or Latino","userSelected":true}},{"url":"text","valueString":"Hispanic or Latino"}]}],"identifier":[{"type":{"coding":[{"system":"http://terminology.hl7.org/CodeSystem/v2-0203","code":"MR"}]},"system":"https://bonnie-fhir.healthit.gov/","value":"62ec286bea03a4ebacd6a07b"}],"name":[{"family":"IPPDenomFail","given":["Encounter1MinBeforeMPBegins"]}],"gender":"male","birthDate":"2007-12-26"},"request":{"method":"PUT","url":"Patient/3142fb25-de49-42b7-aeb9-61ffe1c9a086"}},{"fullUrl":"https://madie.cms.gov/Encounter/encounter-to-document-medications-a07c","resource":{"resourceType":"Encounter","id":"5bbde066-e6c7-4c67-8646-1d14ce72168b","meta":{"profile":["http://hl7.org/fhir/us/qicore/StructureDefinition/qicore-encounter"]},"status":"finished","class":{"system":"http://terminology.hl7.org/CodeSystem/v3-ActCode","code":"IMP","display":"inpatient encounter"},"type":[{"coding":[{"system":"http://snomed.info/sct","version":"2022-03","code":"10197000","display":"Psychiatric interview and evaluation (procedure)","userSelected":true}]}],"subject":{"reference":"Patient/3142fb25-de49-42b7-aeb9-61ffe1c9a086"},"period":{"start":"2024-12-31T08:00:00.000+00:00","end":"2024-12-31T09:15:00.000+00:00"}},"request":{"method":"PUT","url":"Encounter/5bbde066-e6c7-4c67-8646-1d14ce72168b"}},{"fullUrl":"https://madie.cms.gov/MeasureReport/3c498d9e-5497-4817-91bd-1df557919c54","resource":{"resourceType":"MeasureReport","id":"3c498d9e-5497-4817-91bd-1df557919c54","meta":{"profile":["http://hl7.org/fhir/us/cqfmeasures/StructureDefinition/test-case-cqfm"]},"contained":[{"resourceType":"Parameters","id":"9575ec04-ed82-47f5-a41c-cec7e28d9672-parameters","parameter":[{"name":"subject","valueString":"3142fb25-de49-42b7-aeb9-61ffe1c9a086"}]}],"extension":[{"url":"http://hl7.org/fhir/us/cqfmeasures/StructureDefinition/cqfm-inputParameters","valueReference":{"reference":"#9575ec04-ed82-47f5-a41c-cec7e28d9672-parameters"}},{"url":"http://hl7.org/fhir/us/cqfmeasures/StructureDefinition/cqfm-testCaseDescription","valueMarkdown":"Qualifying encounter 1 minute before MP begins"}],"modifierExtension":[{"url":"http://hl7.org/fhir/us/cqfmeasures/StructureDefinition/cqfm-isTestCase","valueBoolean":true}],"status":"complete","type":"individual","measure":"https://madie.cms.gov/Measure/DocumentationofCurrentMedicationsFHIR","period":{"start":"2025-01-01","end":"2025-12-31"},"group":[{"population":[{"code":{"coding":[{"system":"http://terminology.hl7.org/CodeSystem/measure-population","code":"initial-population","display":"Initial Population"}]},"count":0},{"code":{"coding":[{"system":"http://terminology.hl7.org/CodeSystem/measure-population","code":"denominator","display":"Denominator"}]},"count":0},{"code":{"coding":[{"system":"http://terminology.hl7.org/CodeSystem/measure-population","code":"numerator","display":"Numerator"}]},"count":0},{"code":{"coding":[{"system":"http://terminology.hl7.org/CodeSystem/measure-population","code":"denominator-exception","display":"Denominator Exception"}]},"count":0}]}]},"request":{"method":"PUT","url":"MeasureReport/3c498d9e-5497-4817-91bd-1df557919c54"}}]}