{"resourceType":"Bundle","id":"tests-b8b3b2d1-d246-47a1-bdea-552c5ab4a7c9-bundle","type":"transaction","entry":[{"fullUrl":"https://madie.cms.gov/Patient/b8b3b2d1-d246-47a1-bdea-552c5ab4a7c9","resource":{"resourceType":"Patient","id":"b8b3b2d1-d246-47a1-bdea-552c5ab4a7c9","meta":{"profile":["http://hl7.org/fhir/us/qicore/StructureDefinition/qicore-patient"]},"extension":[{"url":"http://hl7.org/fhir/us/core/StructureDefinition/us-core-ethnicity","extension":[{"url":"ombCategory","valueCoding":{"system":"urn:oid:2.16.840.1.113883.6.238","code":"2135-2","display":"Hispanic or Latino","userSelected":true}},{"url":"text","valueString":"Hispanic or Latino"}]}],"identifier":[{"type":{"coding":[{"system":"http://terminology.hl7.org/CodeSystem/v2-0203","code":"MR"}]},"system":"https://bonnie-fhir.healthit.gov/","value":"62ec2bd3ea03a4ebacd6a081"}],"name":[{"family":"IPPDenomPass","given":["EncMPStatusFinished"]}],"gender":"male","birthDate":"2007-01-01"},"request":{"method":"PUT","url":"Patient/b8b3b2d1-d246-47a1-bdea-552c5ab4a7c9"}},{"fullUrl":"https://madie.cms.gov/Encounter/encounter-to-document-medications-a080","resource":{"resourceType":"Encounter","id":"d2af7352-c9da-4503-9610-ecc6bdb69236","meta":{"profile":["http://hl7.org/fhir/us/qicore/StructureDefinition/qicore-encounter"]},"status":"finished","class":{"system":"http://terminology.hl7.org/CodeSystem/v3-ActCode","code":"IMP","display":"inpatient encounte"},"type":[{"coding":[{"system":"http://snomed.info/sct","version":"2022-03","code":"10197000","display":"Psychiatric interview and evaluation (procedure)","userSelected":true}]}],"subject":{"reference":"Patient/b8b3b2d1-d246-47a1-bdea-552c5ab4a7c9"},"period":{"start":"2025-03-09T00:00:00.000+00:00","end":"2025-03-09T01:15:00.000+00:00"}},"request":{"method":"PUT","url":"Encounter/d2af7352-c9da-4503-9610-ecc6bdb69236"}},{"fullUrl":"https://madie.cms.gov/MeasureReport/b2733589-efcb-48b4-b482-6ae02ecb3d18","resource":{"resourceType":"MeasureReport","id":"b2733589-efcb-48b4-b482-6ae02ecb3d18","meta":{"profile":["http://hl7.org/fhir/us/cqfmeasures/StructureDefinition/test-case-cqfm"]},"contained":[{"resourceType":"Parameters","id":"c3661399-8e7e-4b41-bbd4-718ec3b4073f-parameters","parameter":[{"name":"subject","valueString":"b8b3b2d1-d246-47a1-bdea-552c5ab4a7c9"}]}],"extension":[{"url":"http://hl7.org/fhir/us/cqfmeasures/StructureDefinition/cqfm-inputParameters","valueReference":{"reference":"#c3661399-8e7e-4b41-bbd4-718ec3b4073f-parameters"}},{"url":"http://hl7.org/fhir/us/cqfmeasures/StructureDefinition/cqfm-testCaseDescription","valueMarkdown":"Qualifying encounter (status finished) during MP"}],"modifierExtension":[{"url":"http://hl7.org/fhir/us/cqfmeasures/StructureDefinition/cqfm-isTestCase","valueBoolean":true}],"status":"complete","type":"individual","measure":"https://madie.cms.gov/Measure/DocumentationofCurrentMedicationsFHIR","period":{"start":"2025-01-01","end":"2025-12-31"},"group":[{"population":[{"code":{"coding":[{"system":"http://terminology.hl7.org/CodeSystem/measure-population","code":"initial-population","display":"Initial Population"}]},"count":1},{"code":{"coding":[{"system":"http://terminology.hl7.org/CodeSystem/measure-population","code":"denominator","display":"Denominator"}]},"count":1},{"code":{"coding":[{"system":"http://terminology.hl7.org/CodeSystem/measure-population","code":"numerator","display":"Numerator"}]},"count":0},{"code":{"coding":[{"system":"http://terminology.hl7.org/CodeSystem/measure-population","code":"denominator-exception","display":"Denominator Exception"}]},"count":0}]}]},"request":{"method":"PUT","url":"MeasureReport/b2733589-efcb-48b4-b482-6ae02ecb3d18"}}]}