{"resourceType":"Bundle","id":"tests-e0aacb7e-5624-492a-b744-dd75659d8400-bundle","type":"transaction","entry":[{"fullUrl":"https://madie.cms.gov/Patient/e0aacb7e-5624-492a-b744-dd75659d8400","resource":{"resourceType":"Patient","id":"e0aacb7e-5624-492a-b744-dd75659d8400","meta":{"profile":["http://hl7.org/fhir/us/qicore/StructureDefinition/qicore-patient"]},"text":{"status":"generated","div":"<div xmlns=\"http://www.w3.org/1999/xhtml\"><div class=\"hapiHeaderText\">EncDxObstetrics <b>IPFAIL </b></div><table class=\"hapiPropertyTable\"><tbody><tr><td>Identifier</td><td>73dfd43c47660281c0a5408728e85897</td></tr><tr><td>Date of birth</td><td><span>03 March 1974</span></td></tr></tbody></table></div>"},"extension":[{"url":"http://hl7.org/fhir/us/core/StructureDefinition/us-core-race","extension":[{"url":"ombCategory","valueCoding":{"system":"urn:oid:2.16.840.1.113883.6.238","code":"1002-5","display":"American Indian or Alaska Native","userSelected":true}},{"url":"text","valueString":"American Indian or Alaska Native"}]},{"url":"http://hl7.org/fhir/us/core/StructureDefinition/us-core-ethnicity","extension":[{"url":"ombCategory","valueCoding":{"system":"urn:oid:2.16.840.1.113883.6.238","code":"2186-5","display":"Not Hispanic or Latino","userSelected":true}},{"url":"text","valueString":"Not Hispanic or Latino"}]}],"identifier":[{"type":{"coding":[{"system":"http://terminology.hl7.org/CodeSystem/v2-0203","code":"MR"}]},"system":"https://bonnie-fhir.healthit.gov/","value":"612e6f1402c62a011f2f0ad8"}],"active":true,"name":[{"use":"usual","family":"IPFail","given":["EncDxObstetrics"]}],"gender":"female","birthDate":"1974-03-03"},"request":{"method":"PUT","url":"Patient/e0aacb7e-5624-492a-b744-dd75659d8400"}},{"fullUrl":"https://madie.cms.gov/Encounter/5ce80970b848467c29eaf1f7","resource":{"resourceType":"Encounter","id":"ffa5b74b-54d9-46b4-aa6e-a8a7eaa3e085","meta":{"profile":["http://hl7.org/fhir/us/qicore/StructureDefinition/qicore-encounter"]},"status":"finished","class":{"system":"http://terminology.hl7.org/CodeSystem/v3-ActCode","code":"IMP","display":"inpatient encounter"},"type":[{"coding":[{"system":"http://snomed.info/sct","code":"8715000"}]}],"subject":{"reference":"Patient/e0aacb7e-5624-492a-b744-dd75659d8400"},"period":{"start":"2025-12-04T08:00:00+00:00","end":"2025-12-30T08:15:00+00:00"},"length":{"value":26.0,"unit":"days"},"diagnosis":[{"condition":{"reference":"Condition/obstetrics-vte-24ef"}}],"location":[{"location":{"reference":"Location/Location-1"},"period":{"start":"2025-12-06T08:00:00.000+00:00","end":"2025-12-08T08:15:00.000+00:00"}}]},"request":{"method":"PUT","url":"Encounter/ffa5b74b-54d9-46b4-aa6e-a8a7eaa3e085"}},{"fullUrl":"https://madie.cms.gov/Coverage/5fa040fc1c76ba66d9959036","resource":{"resourceType":"Coverage","id":"8b8620a3-3854-4dd3-9d44-409a3c47acd3","status":"active","beneficiary":{"reference":"Patient/e0aacb7e-5624-492a-b744-dd75659d8400"},"period":{"start":"1974-03-03T08:00:00+00:00"},"payor":[{"reference":"Organization/4b5a882f-1f43-485c-85c6-f5ad2337d5b1"}]},"request":{"method":"PUT","url":"Coverage/8b8620a3-3854-4dd3-9d44-409a3c47acd3"}},{"fullUrl":"https://madie.cms.gov/Condition/obstetrics-vte-24ef","resource":{"resourceType":"Condition","id":"7c926d88-28eb-44de-8a7e-fd1428de16aa","meta":{"profile":["http://hl7.org/fhir/us/qicore/StructureDefinition/qicore-condition"]},"category":[{"coding":[{"system":"http://terminology.hl7.org/CodeSystem/condition-category","code":"encounter-diagnosis","display":"Encounter Diagnosis"}]}],"code":{"coding":[{"system":"http://snomed.info/sct","code":"13943000","display":"Failed attempted abortion complicated by embolism (disorder)","userSelected":true}]},"subject":{"reference":"Patient/e0aacb7e-5624-492a-b744-dd75659d8400"},"recordedDate":"2025-09-09T08:00:00.000+00:00"},"request":{"method":"PUT","url":"Condition/7c926d88-28eb-44de-8a7e-fd1428de16aa"}},{"fullUrl":"https://madie.cms.gov/Location/Location-1","resource":{"resourceType":"Location","id":"c5853f25-64a8-4d83-bdb6-34bc08ab0acf","meta":{"profile":["http://hl7.org/fhir/us/qicore/StructureDefinition/qicore-location"]},"identifier":[{"use":"usual","system":"http://exampleoflocation.com","value":"B1-S.F2"}],"name":"Medical Surgical East, first floor","type":[{"coding":[{"system":"https://www.cdc.gov/nhsn/cdaportal/terminology/codesystem/hsloc.html","code":"1025-6","display":"Trauma Critical Care","userSelected":true}]}]},"request":{"method":"PUT","url":"Location/c5853f25-64a8-4d83-bdb6-34bc08ab0acf"}},{"fullUrl":"https://madie.cms.gov/Organization/123456","resource":{"resourceType":"Organization","id":"4b5a882f-1f43-485c-85c6-f5ad2337d5b1","meta":{"profile":["http://hl7.org/fhir/us/qicore/StructureDefinition/qicore-organization"]},"identifier":[{"use":"temp","system":"urn:oid:2.16.840.1.113883.4.4","value":"21-3259825"}],"active":true,"type":[{"coding":[{"system":"http://terminology.hl7.org/CodeSystem/organization-type","code":"pay","display":"Payer"}]}],"name":"Blue Cross Blue Shield of Texas","telecom":[{"system":"phone","value":"(+1) 972-766-6900"}],"address":[{"use":"billing","type":"postal","line":["P.O. Box 660044"],"city":"Dallas","state":"TX","postalCode":"75266-0044","country":"USA"}]},"request":{"method":"PUT","url":"Organization/4b5a882f-1f43-485c-85c6-f5ad2337d5b1"}},{"fullUrl":"https://madie.cms.gov/Practitioner/practitioner-123456","resource":{"resourceType":"Practitioner","id":"caa58a41-b06a-45d8-85df-de152e85bae4","identifier":[{"system":"http://hl7.org/fhir/sid/us-npi","value":"123456"}],"name":[{"family":"Evil","prefix":["Dr"]}]},"request":{"method":"PUT","url":"Practitioner/caa58a41-b06a-45d8-85df-de152e85bae4"}},{"fullUrl":"https://madie.cms.gov/MeasureReport/3e9373a5-4964-4a44-ad53-4e16d876076c","resource":{"resourceType":"MeasureReport","id":"3e9373a5-4964-4a44-ad53-4e16d876076c","meta":{"profile":["http://hl7.org/fhir/us/cqfmeasures/StructureDefinition/test-case-cqfm"]},"contained":[{"resourceType":"Parameters","id":"a2a66ef4-8efd-433a-b047-577903aa95f1-parameters","parameter":[{"name":"subject","valueString":"e0aacb7e-5624-492a-b744-dd75659d8400"}]}],"extension":[{"url":"http://hl7.org/fhir/us/cqfmeasures/StructureDefinition/cqfm-inputParameters","valueReference":{"reference":"#a2a66ef4-8efd-433a-b047-577903aa95f1-parameters"}},{"url":"http://hl7.org/fhir/us/cqfmeasures/StructureDefinition/cqfm-testCaseDescription","valueMarkdown":"Encounter  Inpt Dx of Obstetrics VTE\n"}],"modifierExtension":[{"url":"http://hl7.org/fhir/us/cqfmeasures/StructureDefinition/cqfm-isTestCase","valueBoolean":true}],"status":"complete","type":"individual","measure":"https://madie.cms.gov/Measure/IntensiveCareUnitVenousThromboembolismProphylaxisFHIR","period":{"start":"2025-01-01","end":"2025-12-31"},"group":[{"population":[{"code":{"coding":[{"system":"http://terminology.hl7.org/CodeSystem/measure-population","code":"initial-population","display":"Initial Population"}]},"count":0},{"code":{"coding":[{"system":"http://terminology.hl7.org/CodeSystem/measure-population","code":"denominator","display":"Denominator"}]},"count":0},{"code":{"coding":[{"system":"http://terminology.hl7.org/CodeSystem/measure-population","code":"denominator-exclusion","display":"Denominator Exclusion"}]},"count":0},{"code":{"coding":[{"system":"http://terminology.hl7.org/CodeSystem/measure-population","code":"numerator","display":"Numerator"}]},"count":0},{"code":{"coding":[{"system":"http://terminology.hl7.org/CodeSystem/measure-population","code":"denominator-exception","display":"Denominator Exception"}]},"count":0}]}]},"request":{"method":"PUT","url":"MeasureReport/3e9373a5-4964-4a44-ad53-4e16d876076c"}}]}