{"resourceType":"Bundle","id":"tests-a9c75661-be1c-41b2-aa15-222cc7d2ca81-bundle","type":"transaction","entry":[{"fullUrl":"https://madie.cms.gov/Patient/a9c75661-be1c-41b2-aa15-222cc7d2ca81","resource":{"resourceType":"Patient","id":"a9c75661-be1c-41b2-aa15-222cc7d2ca81","meta":{"profile":["http://hl7.org/fhir/us/qicore/StructureDefinition/qicore-patient"]},"text":{"status":"generated","div":"<div xmlns=\"http://www.w3.org/1999/xhtml\"><div class=\"hapiHeaderText\">PtRefDAGCSDuringED <b>NUMERPASS </b></div><table class=\"hapiPropertyTable\"><tbody><tr><td>Identifier</td><td>5f7ad5e9fc357bf072546722e2c19e60</td></tr><tr><td>Date of birth</td><td><span>02 January 1974</span></td></tr></tbody></table></div>"},"extension":[{"url":"http://hl7.org/fhir/us/core/StructureDefinition/us-core-race","extension":[{"url":"ombCategory","valueCoding":{"system":"urn:oid:2.16.840.1.113883.6.238","code":"1002-5","display":"American Indian or Alaska Native","userSelected":true}},{"url":"text","valueString":"American Indian or Alaska Native"}]},{"url":"http://hl7.org/fhir/us/core/StructureDefinition/us-core-ethnicity","extension":[{"url":"ombCategory","valueCoding":{"system":"urn:oid:2.16.840.1.113883.6.238","code":"2135-2","display":"Hispanic or Latino","userSelected":true}},{"url":"text","valueString":"Hispanic or Latino"}]}],"identifier":[{"type":{"coding":[{"system":"http://terminology.hl7.org/CodeSystem/v2-0203","code":"MR"}]},"system":"https://bonnie-fhir.healthit.gov/","value":"612e6ab302c62a011f2eafaf"}],"active":true,"name":[{"use":"usual","family":"NUMERPass","given":["PtRefDAGCSDuringED"]}],"gender":"male","birthDate":"1974-01-02"},"request":{"method":"PUT","url":"Patient/a9c75661-be1c-41b2-aa15-222cc7d2ca81"}},{"fullUrl":"https://madie.cms.gov/Encounter/5ca62960b8484628b8de1e50","resource":{"resourceType":"Encounter","id":"cc7ad4b2-913e-4d3f-8c91-4a07bf2f7166","meta":{"profile":["http://hl7.org/fhir/us/qicore/StructureDefinition/qicore-encounter"]},"status":"finished","class":{"system":"http://terminology.hl7.org/CodeSystem/v3-ActCode","code":"EMER","display":"emergency"},"type":[{"coding":[{"system":"http://snomed.info/sct","code":"4525004"}]}],"subject":{"reference":"Patient/a9c75661-be1c-41b2-aa15-222cc7d2ca81"},"period":{"start":"2025-10-31T05:00:00+00:00","end":"2025-11-01T07:15:00+00:00"},"length":{"value":1,"unit":"days"}},"request":{"method":"PUT","url":"Encounter/cc7ad4b2-913e-4d3f-8c91-4a07bf2f7166"}},{"fullUrl":"https://madie.cms.gov/Encounter/5ca62960b8484628b8de1e51","resource":{"resourceType":"Encounter","id":"5b7b8684-ab3e-4992-97d1-c5dddb256704","meta":{"profile":["http://hl7.org/fhir/us/qicore/StructureDefinition/qicore-encounter"]},"status":"finished","class":{"system":"http://terminology.hl7.org/CodeSystem/v3-ActCode","code":"IMP","display":"inpatient encounter"},"type":[{"coding":[{"system":"http://snomed.info/sct","code":"8715000"}]}],"subject":{"reference":"Patient/a9c75661-be1c-41b2-aa15-222cc7d2ca81"},"period":{"start":"2025-11-01T08:00:00+00:00","end":"2025-11-26T08:15:00+00:00"},"length":{"value":25,"unit":"days"},"location":[{"location":{"reference":"Location/Location-1"},"period":{"start":"2025-11-01T09:00:00.000+00:00","end":"2025-11-02T08:15:00.000+00:00"}}]},"request":{"method":"PUT","url":"Encounter/5b7b8684-ab3e-4992-97d1-c5dddb256704"}},{"fullUrl":"https://madie.cms.gov/Coverage/5fa041561c76ba66d9959259","resource":{"resourceType":"Coverage","id":"2d226ef7-f197-495d-889e-04e8d53dde69","status":"active","beneficiary":{"reference":"Patient/a9c75661-be1c-41b2-aa15-222cc7d2ca81"},"period":{"start":"1974-01-02T08:00:00+00:00"},"payor":[{"reference":"Organization/4b5a882f-1f43-485c-85c6-f5ad2337d5b1"}]},"request":{"method":"PUT","url":"Coverage/2d226ef7-f197-495d-889e-04e8d53dde69"}},{"fullUrl":"https://madie.cms.gov/Procedure/device-application-2c38","resource":{"resourceType":"Procedure","id":"6b325695-d202-473d-a888-f73f3c286146","meta":{"profile":["http://hl7.org/fhir/us/qicore/StructureDefinition/qicore-procedurenotdone"]},"extension":[{"url":"http://hl7.org/fhir/us/qicore/StructureDefinition/qicore-recorded","valueDateTime":"2025-10-31T17:35:00-04:00"}],"status":"not-done","statusReason":{"coding":[{"system":"http://snomed.info/sct","code":"443390004","display":"Refusal of treatment by patient (situation)","userSelected":true}]},"code":{"coding":[{"system":"http://snomed.info/sct","version":"2025-03","code":"229511001","display":"Application of graduated compression garment (procedure)","userSelected":true}]},"subject":{"reference":"Patient/a9c75661-be1c-41b2-aa15-222cc7d2ca81"},"_performedDateTime":{"extension":[{"url":"http://hl7.org/fhir/StructureDefinition/data-absent-reason","valueCode":"not-performed"}]}},"request":{"method":"PUT","url":"Procedure/6b325695-d202-473d-a888-f73f3c286146"}},{"fullUrl":"https://madie.cms.gov/Location/Location-1","resource":{"resourceType":"Location","id":"1bf67f13-0224-4332-85dd-86e4255d6f95","meta":{"profile":["http://hl7.org/fhir/us/qicore/StructureDefinition/qicore-location"]},"identifier":[{"use":"usual","system":"http://exampleoflocation.com","value":"B1-S.F2"}],"name":"Medical Surgical East, first floor","type":[{"coding":[{"system":"https://www.cdc.gov/nhsn/cdaportal/terminology/codesystem/hsloc.html","code":"1025-6","display":"Trauma Critical Care","userSelected":true}]}]},"request":{"method":"PUT","url":"Location/1bf67f13-0224-4332-85dd-86e4255d6f95"}},{"fullUrl":"https://madie.cms.gov/Organization/123456","resource":{"resourceType":"Organization","id":"4b5a882f-1f43-485c-85c6-f5ad2337d5b1","meta":{"profile":["http://hl7.org/fhir/us/qicore/StructureDefinition/qicore-organization"]},"identifier":[{"use":"temp","system":"urn:oid:2.16.840.1.113883.4.4","value":"21-3259825"}],"active":true,"type":[{"coding":[{"system":"http://terminology.hl7.org/CodeSystem/organization-type","code":"pay","display":"Payer"}]}],"name":"Blue Cross Blue Shield of Texas","telecom":[{"system":"phone","value":"(+1) 972-766-6900"}],"address":[{"use":"billing","type":"postal","line":["P.O. Box 660044"],"city":"Dallas","state":"TX","postalCode":"75266-0044","country":"USA"}]},"request":{"method":"PUT","url":"Organization/4b5a882f-1f43-485c-85c6-f5ad2337d5b1"}},{"fullUrl":"https://madie.cms.gov/Practitioner/practitioner-123456","resource":{"resourceType":"Practitioner","id":"7b66a279-0198-4011-a9ff-03e8588b0e17","identifier":[{"system":"http://hl7.org/fhir/sid/us-npi","value":"123456"}],"name":[{"family":"Evil","prefix":["Dr"]}]},"request":{"method":"PUT","url":"Practitioner/7b66a279-0198-4011-a9ff-03e8588b0e17"}},{"fullUrl":"https://madie.cms.gov/MeasureReport/5ce6e5cc-326a-45de-ad94-5234a293c975","resource":{"resourceType":"MeasureReport","id":"5ce6e5cc-326a-45de-ad94-5234a293c975","meta":{"profile":["http://hl7.org/fhir/us/cqfmeasures/StructureDefinition/test-case-cqfm"]},"contained":[{"resourceType":"Parameters","id":"615e679f-61b5-4cac-b7c0-fd0983833c8b-parameters","parameter":[{"name":"subject","valueString":"a9c75661-be1c-41b2-aa15-222cc7d2ca81"}]}],"extension":[{"url":"http://hl7.org/fhir/us/cqfmeasures/StructureDefinition/cqfm-inputParameters","valueReference":{"reference":"#615e679f-61b5-4cac-b7c0-fd0983833c8b-parameters"}},{"url":"http://hl7.org/fhir/us/cqfmeasures/StructureDefinition/cqfm-testCaseDescription","valueMarkdown":"meets IPP, meets Denominator, GCS applied not done patient Refusal  - during ED\n"}],"modifierExtension":[{"url":"http://hl7.org/fhir/us/cqfmeasures/StructureDefinition/cqfm-isTestCase","valueBoolean":true}],"status":"complete","type":"individual","measure":"https://madie.cms.gov/Measure/IntensiveCareUnitVenousThromboembolismProphylaxisFHIR","period":{"start":"2025-01-01","end":"2025-12-31"},"group":[{"population":[{"code":{"coding":[{"system":"http://terminology.hl7.org/CodeSystem/measure-population","code":"initial-population","display":"Initial Population"}]},"count":1},{"code":{"coding":[{"system":"http://terminology.hl7.org/CodeSystem/measure-population","code":"denominator","display":"Denominator"}]},"count":1},{"code":{"coding":[{"system":"http://terminology.hl7.org/CodeSystem/measure-population","code":"denominator-exclusion","display":"Denominator Exclusion"}]},"count":0},{"code":{"coding":[{"system":"http://terminology.hl7.org/CodeSystem/measure-population","code":"numerator","display":"Numerator"}]},"count":1},{"code":{"coding":[{"system":"http://terminology.hl7.org/CodeSystem/measure-population","code":"denominator-exception","display":"Denominator Exception"}]},"count":0}]}]},"request":{"method":"PUT","url":"MeasureReport/5ce6e5cc-326a-45de-ad94-5234a293c975"}}]}