{"resourceType":"Bundle","id":"tests-6d493c85-9519-429b-88b2-c4a5db777949-bundle","type":"transaction","entry":[{"fullUrl":"https://madie.cms.gov/Patient/6d493c85-9519-429b-88b2-c4a5db777949","resource":{"resourceType":"Patient","id":"6d493c85-9519-429b-88b2-c4a5db777949","meta":{"profile":["http://hl7.org/fhir/us/qicore/StructureDefinition/qicore-patient"]},"text":{"status":"generated","div":"<div xmlns=\"http://www.w3.org/1999/xhtml\"><div class=\"hapiHeaderText\">KneeSurgeryNotPrin <b>DENEXFAIL </b></div><table class=\"hapiPropertyTable\"><tbody><tr><td>Identifier</td><td>592ed714443566b5253e56305d420dc0</td></tr><tr><td>Date of birth</td><td><span>03 March 1974</span></td></tr></tbody></table></div>"},"extension":[{"url":"http://hl7.org/fhir/us/core/StructureDefinition/us-core-race","extension":[{"url":"ombCategory","valueCoding":{"system":"urn:oid:2.16.840.1.113883.6.238","code":"1002-5","display":"American Indian or Alaska Native","userSelected":true}},{"url":"text","valueString":"American Indian or Alaska Native"}]},{"url":"http://hl7.org/fhir/us/core/StructureDefinition/us-core-ethnicity","extension":[{"url":"ombCategory","valueCoding":{"system":"urn:oid:2.16.840.1.113883.6.238","code":"2135-2","display":"Hispanic or Latino","userSelected":true}},{"url":"text","valueString":"Hispanic or Latino"}]}],"identifier":[{"type":{"coding":[{"system":"http://terminology.hl7.org/CodeSystem/v2-0203","code":"MR"}]},"system":"https://bonnie-fhir.healthit.gov/","value":"612e6ed702c62a011f2efc7f"}],"active":true,"name":[{"use":"usual","family":"DENEXFail","given":["KneeSurgeryNotPrin"]}],"gender":"female","birthDate":"1974-03-03"},"request":{"method":"PUT","url":"Patient/6d493c85-9519-429b-88b2-c4a5db777949"}},{"fullUrl":"https://madie.cms.gov/Encounter/5ce8096eb848467c29eaf0ee","resource":{"resourceType":"Encounter","id":"a595d5b5-850e-4627-90fe-dbc6b59ebda0","meta":{"profile":["http://hl7.org/fhir/us/qicore/StructureDefinition/qicore-encounter"]},"status":"finished","class":{"system":"http://terminology.hl7.org/CodeSystem/v3-ActCode","code":"IMP","display":"inpatient encounter"},"type":[{"coding":[{"system":"http://snomed.info/sct","code":"8715000"}]}],"subject":{"reference":"Patient/6d493c85-9519-429b-88b2-c4a5db777949"},"period":{"start":"2025-12-04T08:00:00+00:00","end":"2025-12-30T08:15:00+00:00"},"length":{"value":26.0,"unit":"days"},"location":[{"location":{"reference":"Location/Location-1"},"period":{"start":"2025-12-06T08:00:00.000+00:00","end":"2025-12-08T08:15:00.000+00:00"}}]},"request":{"method":"PUT","url":"Encounter/a595d5b5-850e-4627-90fe-dbc6b59ebda0"}},{"fullUrl":"https://madie.cms.gov/Coverage/5fa040f11c76ba66d9958f64","resource":{"resourceType":"Coverage","id":"cc490517-68d2-4271-938a-bbe337f4387a","status":"active","beneficiary":{"reference":"Patient/6d493c85-9519-429b-88b2-c4a5db777949"},"period":{"start":"1974-03-03T08:00:00+00:00"},"payor":[{"reference":"Organization/4b5a882f-1f43-485c-85c6-f5ad2337d5b1"}]},"request":{"method":"PUT","url":"Coverage/cc490517-68d2-4271-938a-bbe337f4387a"}},{"fullUrl":"https://madie.cms.gov/Procedure/5ce8096eb848467c29eaf0f0","resource":{"resourceType":"Procedure","id":"b1c14263-2b58-4d1b-a3e7-62e35d105f3d","meta":{"profile":["http://hl7.org/fhir/us/qicore/StructureDefinition/qicore-procedure"]},"extension":[{"url":"http://hl7.org/fhir/us/qicore/StructureDefinition/qicore-recorded","valueDateTime":"2012-12-06T09:35:00-04:00"}],"status":"completed","code":{"coding":[{"system":"http://snomed.info/sct","code":"27748003"}]},"subject":{"reference":"Patient/6d493c85-9519-429b-88b2-c4a5db777949"},"performedPeriod":{"start":"2025-12-04T05:00:00+00:00"}},"request":{"method":"PUT","url":"Procedure/b1c14263-2b58-4d1b-a3e7-62e35d105f3d"}},{"fullUrl":"https://madie.cms.gov/Location/Location-1","resource":{"resourceType":"Location","id":"8c409fea-87b1-4704-b3ce-94987c7c8714","meta":{"profile":["http://hl7.org/fhir/us/qicore/StructureDefinition/qicore-location"]},"identifier":[{"use":"usual","system":"http://exampleoflocation.com","value":"B1-S.F2"}],"name":"Medical Surgical East, first floor","type":[{"coding":[{"system":"https://www.cdc.gov/nhsn/cdaportal/terminology/codesystem/hsloc.html","code":"1025-6","display":"Trauma Critical Care","userSelected":true}]}]},"request":{"method":"PUT","url":"Location/8c409fea-87b1-4704-b3ce-94987c7c8714"}},{"fullUrl":"https://madie.cms.gov/Organization/123456","resource":{"resourceType":"Organization","id":"4b5a882f-1f43-485c-85c6-f5ad2337d5b1","meta":{"profile":["http://hl7.org/fhir/us/qicore/StructureDefinition/qicore-organization"]},"identifier":[{"use":"temp","system":"urn:oid:2.16.840.1.113883.4.4","value":"21-3259825"}],"active":true,"type":[{"coding":[{"system":"http://terminology.hl7.org/CodeSystem/organization-type","code":"pay","display":"Payer"}]}],"name":"Blue Cross Blue Shield of Texas","telecom":[{"system":"phone","value":"(+1) 972-766-6900"}],"address":[{"use":"billing","type":"postal","line":["P.O. Box 660044"],"city":"Dallas","state":"TX","postalCode":"75266-0044","country":"USA"}]},"request":{"method":"PUT","url":"Organization/4b5a882f-1f43-485c-85c6-f5ad2337d5b1"}},{"fullUrl":"https://madie.cms.gov/Practitioner/practitioner-123456","resource":{"resourceType":"Practitioner","id":"cd04cc9f-85a2-4bb9-9f5a-793f8f7759c3","identifier":[{"system":"http://hl7.org/fhir/sid/us-npi","value":"123456"}],"name":[{"family":"Evil","prefix":["Dr"]}]},"request":{"method":"PUT","url":"Practitioner/cd04cc9f-85a2-4bb9-9f5a-793f8f7759c3"}},{"fullUrl":"https://madie.cms.gov/MeasureReport/93dfcdec-54bf-4ea1-b9a2-b1ac5437f308","resource":{"resourceType":"MeasureReport","id":"93dfcdec-54bf-4ea1-b9a2-b1ac5437f308","meta":{"profile":["http://hl7.org/fhir/us/cqfmeasures/StructureDefinition/test-case-cqfm"]},"contained":[{"resourceType":"Parameters","id":"a75483d4-57e2-4753-b2e0-b9f649620ec4-parameters","parameter":[{"name":"subject","valueString":"6d493c85-9519-429b-88b2-c4a5db777949"}]}],"extension":[{"url":"http://hl7.org/fhir/us/cqfmeasures/StructureDefinition/cqfm-inputParameters","valueReference":{"reference":"#a75483d4-57e2-4753-b2e0-b9f649620ec4-parameters"}},{"url":"http://hl7.org/fhir/us/cqfmeasures/StructureDefinition/cqfm-testCaseDescription","valueMarkdown":"oral factor Xa administered after neuraxial anesthesia and during ICU stay\n"}],"modifierExtension":[{"url":"http://hl7.org/fhir/us/cqfmeasures/StructureDefinition/cqfm-isTestCase","valueBoolean":true}],"status":"complete","type":"individual","measure":"https://madie.cms.gov/Measure/IntensiveCareUnitVenousThromboembolismProphylaxisFHIR","period":{"start":"2025-01-01","end":"2025-12-31"},"group":[{"population":[{"code":{"coding":[{"system":"http://terminology.hl7.org/CodeSystem/measure-population","code":"initial-population","display":"Initial Population"}]},"count":1},{"code":{"coding":[{"system":"http://terminology.hl7.org/CodeSystem/measure-population","code":"denominator","display":"Denominator"}]},"count":1},{"code":{"coding":[{"system":"http://terminology.hl7.org/CodeSystem/measure-population","code":"denominator-exclusion","display":"Denominator Exclusion"}]},"count":0},{"code":{"coding":[{"system":"http://terminology.hl7.org/CodeSystem/measure-population","code":"numerator","display":"Numerator"}]},"count":0},{"code":{"coding":[{"system":"http://terminology.hl7.org/CodeSystem/measure-population","code":"denominator-exception","display":"Denominator Exception"}]},"count":0}]}]},"request":{"method":"PUT","url":"MeasureReport/93dfcdec-54bf-4ea1-b9a2-b1ac5437f308"}}]}