{"resourceType":"Bundle","id":"tests-62663a2c-27c6-4dbf-8c16-f84700734204-bundle","type":"transaction","entry":[{"fullUrl":"https://madie.cms.gov/Patient/62663a2c-27c6-4dbf-8c16-f84700734204","resource":{"resourceType":"Patient","id":"62663a2c-27c6-4dbf-8c16-f84700734204","meta":{"profile":["http://hl7.org/fhir/us/qicore/StructureDefinition/qicore-patient"]},"text":{"status":"generated","div":"<div xmlns=\"http://www.w3.org/1999/xhtml\"><div class=\"hapiHeaderText\">DxVTEDuringEDGT1hrB4Enc <b>IPPASS </b></div><table class=\"hapiPropertyTable\"><tbody><tr><td>Identifier</td><td>5834e23c307441a4d02e1245a3af3e165ea071f2007213b315046e3ff6ee189f</td></tr><tr><td>Date of birth</td><td><span>03 March 1974</span></td></tr></tbody></table></div>"},"extension":[{"url":"http://hl7.org/fhir/us/core/StructureDefinition/us-core-race","extension":[{"url":"ombCategory","valueCoding":{"system":"urn:oid:2.16.840.1.113883.6.238","code":"1002-5","display":"American Indian or Alaska Native","userSelected":true}},{"url":"text","valueString":"American Indian or Alaska Native"}]},{"url":"http://hl7.org/fhir/us/core/StructureDefinition/us-core-ethnicity","extension":[{"url":"ombCategory","valueCoding":{"system":"urn:oid:2.16.840.1.113883.6.238","code":"2186-5","display":"Not Hispanic or Latino","userSelected":true}},{"url":"text","valueString":"Not Hispanic or Latino"}]}],"identifier":[{"type":{"coding":[{"system":"http://terminology.hl7.org/CodeSystem/v2-0203","code":"MR"}]},"system":"https://bonnie-fhir.healthit.gov/","value":"612e6f6002c62a011f2f1989"}],"active":true,"name":[{"use":"usual","family":"IPPass","given":["DxVTEDuringEDGT1hrB4Enc"]}],"gender":"female","birthDate":"1974-03-03"},"request":{"method":"PUT","url":"Patient/62663a2c-27c6-4dbf-8c16-f84700734204"}},{"fullUrl":"https://madie.cms.gov/Encounter/5ce8096db848467c29eaf08a","resource":{"resourceType":"Encounter","id":"f135ec97-6d6e-43fb-acf9-2732e203e321","meta":{"profile":["http://hl7.org/fhir/us/qicore/StructureDefinition/qicore-encounter"]},"status":"finished","class":{"system":"http://terminology.hl7.org/CodeSystem/v3-ActCode","code":"OBSENC","display":"observation encounter"},"type":[{"coding":[{"system":"http://snomed.info/sct","code":"4525004"}]}],"subject":{"reference":"Patient/62663a2c-27c6-4dbf-8c16-f84700734204"},"period":{"start":"2025-12-04T04:00:00+00:00","end":"2025-12-04T07:50:00+00:00"},"length":{"value":0.0,"unit":"days"}},"request":{"method":"PUT","url":"Encounter/f135ec97-6d6e-43fb-acf9-2732e203e321"}},{"fullUrl":"https://madie.cms.gov/Encounter/5ce8096db848467c29eaf08b","resource":{"resourceType":"Encounter","id":"3a504453-40d9-4ebb-89f0-54a1e3479cc9","meta":{"profile":["http://hl7.org/fhir/us/qicore/StructureDefinition/qicore-encounter"]},"status":"finished","class":{"system":"http://terminology.hl7.org/CodeSystem/v3-ActCode","code":"IMP","display":"inpatient encounter"},"type":[{"coding":[{"system":"http://snomed.info/sct","code":"8715000"}]}],"subject":{"reference":"Patient/62663a2c-27c6-4dbf-8c16-f84700734204"},"period":{"start":"2025-12-04T09:00:00+00:00","end":"2025-12-30T08:15:00+00:00"},"length":{"value":26.0,"unit":"days"}},"request":{"method":"PUT","url":"Encounter/3a504453-40d9-4ebb-89f0-54a1e3479cc9"}},{"fullUrl":"https://madie.cms.gov/Coverage/5fa041061c76ba66d99590de","resource":{"resourceType":"Coverage","id":"2196d607-87e3-4369-a191-04627504f202","status":"active","beneficiary":{"reference":"Patient/62663a2c-27c6-4dbf-8c16-f84700734204"},"period":{"start":"1974-03-03T08:00:00+00:00"},"payor":[{"reference":"Organization/4b5a882f-1f43-485c-85c6-f5ad2337d5b1"}]},"request":{"method":"PUT","url":"Coverage/2196d607-87e3-4369-a191-04627504f202"}},{"fullUrl":"https://madie.cms.gov/Condition/5ce8096db848467c29eaf089","resource":{"resourceType":"Condition","id":"abd2ab23-936c-4ba5-acc4-d4ec769ca391","meta":{"profile":["http://hl7.org/fhir/us/qicore/StructureDefinition/qicore-condition"]},"category":[{"coding":[{"system":"http://terminology.hl7.org/CodeSystem/condition-category","code":"problem-list-item","display":"Problem List Item"}]}],"code":{"coding":[{"system":"http://snomed.info/sct","code":"1001000119102"},{"system":"http://hl7.org/fhir/sid/icd-10-cm","code":"I26.02"}]},"subject":{"reference":"Patient/62663a2c-27c6-4dbf-8c16-f84700734204"},"onsetPeriod":{"start":"2025-12-04T06:00:00+00:00"}},"request":{"method":"PUT","url":"Condition/abd2ab23-936c-4ba5-acc4-d4ec769ca391"}},{"fullUrl":"https://madie.cms.gov/Organization/123456","resource":{"resourceType":"Organization","id":"4b5a882f-1f43-485c-85c6-f5ad2337d5b1","meta":{"profile":["http://hl7.org/fhir/us/qicore/StructureDefinition/qicore-organization"]},"identifier":[{"use":"temp","system":"urn:oid:2.16.840.1.113883.4.4","value":"21-3259825"}],"active":true,"type":[{"coding":[{"system":"http://terminology.hl7.org/CodeSystem/organization-type","code":"pay","display":"Payer"}]}],"name":"Blue Cross Blue Shield of Texas","telecom":[{"system":"phone","value":"(+1) 972-766-6900"}],"address":[{"use":"billing","type":"postal","line":["P.O. Box 660044"],"city":"Dallas","state":"TX","postalCode":"75266-0044","country":"USA"}]},"request":{"method":"PUT","url":"Organization/4b5a882f-1f43-485c-85c6-f5ad2337d5b1"}},{"fullUrl":"https://madie.cms.gov/Practitioner/practitioner-123456","resource":{"resourceType":"Practitioner","id":"804b720a-f4e0-4663-a0e9-03bc9a364fe7","identifier":[{"system":"http://hl7.org/fhir/sid/us-npi","value":"123456"}],"name":[{"family":"Evil","prefix":["Dr"]}]},"request":{"method":"PUT","url":"Practitioner/804b720a-f4e0-4663-a0e9-03bc9a364fe7"}},{"fullUrl":"https://madie.cms.gov/MeasureReport/a31abef1-1629-4bf2-ae83-edc79b9eff68","resource":{"resourceType":"MeasureReport","id":"a31abef1-1629-4bf2-ae83-edc79b9eff68","meta":{"profile":["http://hl7.org/fhir/us/cqfmeasures/StructureDefinition/test-case-cqfm"]},"contained":[{"resourceType":"Parameters","id":"57f788bb-2c5b-46c7-bb0b-0c36b6039ef7-parameters","parameter":[{"name":"subject","valueString":"62663a2c-27c6-4dbf-8c16-f84700734204"}]}],"extension":[{"url":"http://hl7.org/fhir/us/cqfmeasures/StructureDefinition/cqfm-inputParameters","valueReference":{"reference":"#57f788bb-2c5b-46c7-bb0b-0c36b6039ef7-parameters"}},{"url":"http://hl7.org/fhir/us/cqfmeasures/StructureDefinition/cqfm-testCaseDescription","valueMarkdown":"Dx of Obstetrics VTE before Encouter\n"}],"modifierExtension":[{"url":"http://hl7.org/fhir/us/cqfmeasures/StructureDefinition/cqfm-isTestCase","valueBoolean":true}],"status":"complete","type":"individual","measure":"https://madie.cms.gov/Measure/IntensiveCareUnitVenousThromboembolismProphylaxisFHIR","period":{"start":"2025-01-01","end":"2025-12-31"},"group":[{"population":[{"code":{"coding":[{"system":"http://terminology.hl7.org/CodeSystem/measure-population","code":"initial-population","display":"Initial Population"}]},"count":1},{"code":{"coding":[{"system":"http://terminology.hl7.org/CodeSystem/measure-population","code":"denominator","display":"Denominator"}]},"count":0},{"code":{"coding":[{"system":"http://terminology.hl7.org/CodeSystem/measure-population","code":"denominator-exclusion","display":"Denominator Exclusion"}]},"count":0},{"code":{"coding":[{"system":"http://terminology.hl7.org/CodeSystem/measure-population","code":"numerator","display":"Numerator"}]},"count":0},{"code":{"coding":[{"system":"http://terminology.hl7.org/CodeSystem/measure-population","code":"denominator-exception","display":"Denominator Exception"}]},"count":0}]}]},"request":{"method":"PUT","url":"MeasureReport/a31abef1-1629-4bf2-ae83-edc79b9eff68"}}]}