{"resourceType":"Bundle","id":"tests-8101f288-b6f4-4411-a1e4-7193a0a448eb-bundle","type":"transaction","entry":[{"fullUrl":"https://madie.cms.gov/Patient/8101f288-b6f4-4411-a1e4-7193a0a448eb","resource":{"resourceType":"Patient","id":"8101f288-b6f4-4411-a1e4-7193a0a448eb","meta":{"profile":["http://hl7.org/fhir/us/qicore/StructureDefinition/qicore-patient"]},"text":{"status":"generated","div":"<div xmlns=\"http://www.w3.org/1999/xhtml\"><div class=\"hapiHeaderText\">DischargedFirstDayMP <b>IPPASS </b></div><table class=\"hapiPropertyTable\"><tbody><tr><td>Identifier</td><td>e0b4bcae0754b8e8e6e4106bdb1cc7b6</td></tr><tr><td>Date of birth</td><td><span>03 March 1974</span></td></tr></tbody></table></div>"},"extension":[{"url":"http://hl7.org/fhir/us/core/StructureDefinition/us-core-race","extension":[{"url":"ombCategory","valueCoding":{"system":"urn:oid:2.16.840.1.113883.6.238","code":"1002-5","display":"American Indian or Alaska Native","userSelected":true}},{"url":"text","valueString":"American Indian or Alaska Native"}]},{"url":"http://hl7.org/fhir/us/core/StructureDefinition/us-core-ethnicity","extension":[{"url":"ombCategory","valueCoding":{"system":"urn:oid:2.16.840.1.113883.6.238","code":"2186-5","display":"Not Hispanic or Latino","userSelected":true}},{"url":"text","valueString":"Not Hispanic or Latino"}]}],"identifier":[{"type":{"coding":[{"system":"http://terminology.hl7.org/CodeSystem/v2-0203","code":"MR"}]},"system":"https://bonnie-fhir.healthit.gov/","value":"612e6f3c02c62a011f2f11f1"}],"active":true,"name":[{"use":"usual","family":"IPPass","given":["DischargedFirstDayMP"]}],"gender":"female","birthDate":"1974-03-03"},"request":{"method":"PUT","url":"Patient/8101f288-b6f4-4411-a1e4-7193a0a448eb"}},{"fullUrl":"https://madie.cms.gov/Encounter/5ce8096cb848467c29eaf086","resource":{"resourceType":"Encounter","id":"8e6e1285-1260-4925-8d50-4f47b0c99dd6","meta":{"profile":["http://hl7.org/fhir/us/qicore/StructureDefinition/qicore-encounter"]},"status":"finished","class":{"system":"http://terminology.hl7.org/CodeSystem/v3-ActCode","code":"IMP","display":"inpatient encounter"},"type":[{"coding":[{"system":"http://snomed.info/sct","code":"8715000"}]}],"subject":{"reference":"Patient/8101f288-b6f4-4411-a1e4-7193a0a448eb"},"period":{"start":"2023-12-30T08:00:00+00:00","end":"2025-01-01T08:15:00+00:00"},"length":{"value":2.0,"unit":"days"}},"request":{"method":"PUT","url":"Encounter/8e6e1285-1260-4925-8d50-4f47b0c99dd6"}},{"fullUrl":"https://madie.cms.gov/Coverage/5fa041011c76ba66d995908d","resource":{"resourceType":"Coverage","id":"f1960424-d17a-47c2-acae-366fdaec2e5e","status":"active","beneficiary":{"reference":"Patient/8101f288-b6f4-4411-a1e4-7193a0a448eb"},"period":{"start":"1974-03-03T08:00:00+00:00"},"payor":[{"reference":"Organization/4b5a882f-1f43-485c-85c6-f5ad2337d5b1"}]},"request":{"method":"PUT","url":"Coverage/f1960424-d17a-47c2-acae-366fdaec2e5e"}},{"fullUrl":"https://madie.cms.gov/Condition/5ce8096cb848467c29eaf085","resource":{"resourceType":"Condition","id":"24982db7-2d80-4a25-9850-65efcbf4fc6f","meta":{"profile":["http://hl7.org/fhir/us/qicore/StructureDefinition/qicore-condition"]},"category":[{"coding":[{"system":"http://terminology.hl7.org/CodeSystem/condition-category","code":"problem-list-item","display":"Problem List Item"}]}],"code":{"coding":[{"system":"http://hl7.org/fhir/sid/icd-10-cm","code":"I26.09"},{"system":"http://hl7.org/fhir/sid/icd-9-cm","code":"415.11"},{"system":"http://snomed.info/sct","code":"132251000119101"}]},"subject":{"reference":"Patient/8101f288-b6f4-4411-a1e4-7193a0a448eb"},"onsetPeriod":{"start":"2025-10-04T08:00:00+00:00","end":"2025-10-05T08:15:00+00:00"}},"request":{"method":"PUT","url":"Condition/24982db7-2d80-4a25-9850-65efcbf4fc6f"}},{"fullUrl":"https://madie.cms.gov/Organization/123456","resource":{"resourceType":"Organization","id":"4b5a882f-1f43-485c-85c6-f5ad2337d5b1","meta":{"profile":["http://hl7.org/fhir/us/qicore/StructureDefinition/qicore-organization"]},"identifier":[{"use":"temp","system":"urn:oid:2.16.840.1.113883.4.4","value":"21-3259825"}],"active":true,"type":[{"coding":[{"system":"http://terminology.hl7.org/CodeSystem/organization-type","code":"pay","display":"Payer"}]}],"name":"Blue Cross Blue Shield of Texas","telecom":[{"system":"phone","value":"(+1) 972-766-6900"}],"address":[{"use":"billing","type":"postal","line":["P.O. Box 660044"],"city":"Dallas","state":"TX","postalCode":"75266-0044","country":"USA"}]},"request":{"method":"PUT","url":"Organization/4b5a882f-1f43-485c-85c6-f5ad2337d5b1"}},{"fullUrl":"https://madie.cms.gov/Practitioner/practitioner-123456","resource":{"resourceType":"Practitioner","id":"a00861bc-51ad-49a5-b9d3-0f0625a1fa4c","identifier":[{"system":"http://hl7.org/fhir/sid/us-npi","value":"123456"}],"name":[{"family":"Evil","prefix":["Dr"]}]},"request":{"method":"PUT","url":"Practitioner/a00861bc-51ad-49a5-b9d3-0f0625a1fa4c"}},{"fullUrl":"https://madie.cms.gov/MeasureReport/081cfd87-0aa4-42dc-ad57-04526af64d9f","resource":{"resourceType":"MeasureReport","id":"081cfd87-0aa4-42dc-ad57-04526af64d9f","meta":{"profile":["http://hl7.org/fhir/us/cqfmeasures/StructureDefinition/test-case-cqfm"]},"contained":[{"resourceType":"Parameters","id":"20c3de41-0aa2-473c-b4fc-7e0c4ba543c4-parameters","parameter":[{"name":"subject","valueString":"8101f288-b6f4-4411-a1e4-7193a0a448eb"}]}],"extension":[{"url":"http://hl7.org/fhir/us/cqfmeasures/StructureDefinition/cqfm-inputParameters","valueReference":{"reference":"#20c3de41-0aa2-473c-b4fc-7e0c4ba543c4-parameters"}},{"url":"http://hl7.org/fhir/us/cqfmeasures/StructureDefinition/cqfm-testCaseDescription","valueMarkdown":"patient is discharged the first day of the measurement period\n"}],"modifierExtension":[{"url":"http://hl7.org/fhir/us/cqfmeasures/StructureDefinition/cqfm-isTestCase","valueBoolean":true}],"status":"complete","type":"individual","measure":"https://madie.cms.gov/Measure/IntensiveCareUnitVenousThromboembolismProphylaxisFHIR","period":{"start":"2025-01-01","end":"2025-12-31"},"group":[{"population":[{"code":{"coding":[{"system":"http://terminology.hl7.org/CodeSystem/measure-population","code":"initial-population","display":"Initial Population"}]},"count":1},{"code":{"coding":[{"system":"http://terminology.hl7.org/CodeSystem/measure-population","code":"denominator","display":"Denominator"}]},"count":0},{"code":{"coding":[{"system":"http://terminology.hl7.org/CodeSystem/measure-population","code":"denominator-exclusion","display":"Denominator Exclusion"}]},"count":0},{"code":{"coding":[{"system":"http://terminology.hl7.org/CodeSystem/measure-population","code":"numerator","display":"Numerator"}]},"count":0},{"code":{"coding":[{"system":"http://terminology.hl7.org/CodeSystem/measure-population","code":"denominator-exception","display":"Denominator Exception"}]},"count":0}]}]},"request":{"method":"PUT","url":"MeasureReport/081cfd87-0aa4-42dc-ad57-04526af64d9f"}}]}