{"resourceType":"Bundle","id":"tests-f8f09525-80ac-4f58-80ff-74033387f5df-bundle","type":"transaction","entry":[{"fullUrl":"https://madie.cms.gov/Patient/f8f09525-80ac-4f58-80ff-74033387f5df","resource":{"resourceType":"Patient","id":"f8f09525-80ac-4f58-80ff-74033387f5df","meta":{"profile":["http://hl7.org/fhir/us/qicore/StructureDefinition/qicore-patient"]},"text":{"status":"generated","div":"<div xmlns=\"http://www.w3.org/1999/xhtml\"><div class=\"hapiHeaderText\">PtRefMORivDayOfAnesProcRvltDT <b>NUMERPASS </b></div><table class=\"hapiPropertyTable\"><tbody><tr><td>Identifier</td><td>bec2580a47ed4bf7691b191e0654b2de</td></tr><tr><td>Date of birth</td><td><span>02 January 1974</span></td></tr></tbody></table></div>"},"extension":[{"url":"http://hl7.org/fhir/us/core/StructureDefinition/us-core-race","extension":[{"url":"ombCategory","valueCoding":{"system":"urn:oid:2.16.840.1.113883.6.238","code":"1002-5","display":"American Indian or Alaska Native","userSelected":true}},{"url":"text","valueString":"American Indian or Alaska Native"}]},{"url":"http://hl7.org/fhir/us/core/StructureDefinition/us-core-ethnicity","extension":[{"url":"ombCategory","valueCoding":{"system":"urn:oid:2.16.840.1.113883.6.238","code":"2135-2","display":"Hispanic or Latino","userSelected":true}},{"url":"text","valueString":"Hispanic or Latino"}]}],"identifier":[{"type":{"coding":[{"system":"http://terminology.hl7.org/CodeSystem/v2-0203","code":"MR"}]},"system":"https://bonnie-fhir.healthit.gov/","value":"612e6b2e02c62a011f2ecc81"}],"active":true,"name":[{"use":"usual","family":"NUMERPass","given":["PtRefMORivDayOfAnesProcRvltDT"]}],"gender":"male","birthDate":"1974-01-02"},"request":{"method":"PUT","url":"Patient/f8f09525-80ac-4f58-80ff-74033387f5df"}},{"fullUrl":"https://madie.cms.gov/Encounter/5ca62963b8484628b8de1ef9","resource":{"resourceType":"Encounter","id":"2e70821f-3176-4902-a29e-d609775f13fc","meta":{"profile":["http://hl7.org/fhir/us/qicore/StructureDefinition/qicore-encounter"]},"status":"finished","class":{"system":"http://terminology.hl7.org/CodeSystem/v3-ActCode","code":"IMP","display":"inpatient encounter"},"type":[{"coding":[{"system":"http://snomed.info/sct","code":"8715000"}]}],"subject":{"reference":"Patient/f8f09525-80ac-4f58-80ff-74033387f5df"},"period":{"start":"2025-11-01T08:00:00+00:00","end":"2025-11-26T08:15:00+00:00"},"length":{"value":25,"unit":"days"},"location":[{"location":{"reference":"Location/Location-1"},"period":{"start":"2025-11-04T09:00:00+00:00","end":"2025-11-06T08:15:00+00:00"}}]},"request":{"method":"PUT","url":"Encounter/2e70821f-3176-4902-a29e-d609775f13fc"}},{"fullUrl":"https://madie.cms.gov/Coverage/5fa041491c76ba66d9959175","resource":{"resourceType":"Coverage","id":"bd357425-14b7-435f-bf30-329c9220bf67","status":"active","beneficiary":{"reference":"Patient/f8f09525-80ac-4f58-80ff-74033387f5df"},"period":{"start":"1974-01-02T08:00:00+00:00"},"payor":[{"reference":"Organization/4b5a882f-1f43-485c-85c6-f5ad2337d5b1"}]},"request":{"method":"PUT","url":"Coverage/bd357425-14b7-435f-bf30-329c9220bf67"}},{"fullUrl":"https://madie.cms.gov/MedicationRequest/5ca6295fb8484628b8de1dd7","resource":{"resourceType":"MedicationRequest","id":"37ffe10d-855a-4cb1-9795-5ec81aa40450","meta":{"profile":["http://hl7.org/fhir/us/qicore/StructureDefinition/qicore-mednotrequested"]},"status":"completed","intent":"order","category":[{"coding":[{"system":"http://terminology.hl7.org/CodeSystem/medicationrequest-category","code":"community"}]}],"doNotPerform":true,"medicationCodeableConcept":{"coding":[{"system":"http://www.nlm.nih.gov/research/umls/rxnorm","code":"1114198"}]},"subject":{"reference":"Patient/f8f09525-80ac-4f58-80ff-74033387f5df"},"authoredOn":"2025-11-05T07:00:00+00:00","requester":{"reference":"Practitioner/example"},"reasonCode":[{"coding":[{"system":"http://snomed.info/sct","code":"443390004","display":"Refusal of treatment by patient (situation)","userSelected":true}]}]},"request":{"method":"PUT","url":"MedicationRequest/37ffe10d-855a-4cb1-9795-5ec81aa40450"}},{"fullUrl":"https://madie.cms.gov/Procedure/5ca62963b8484628b8de1efb","resource":{"resourceType":"Procedure","id":"d274814a-2c14-4296-817d-bb5e4d9ea554","meta":{"profile":["http://hl7.org/fhir/us/qicore/StructureDefinition/qicore-procedure"]},"extension":[{"url":"http://hl7.org/fhir/us/qicore/StructureDefinition/qicore-recorded","valueDateTime":"2025-11-05T09:35:00+00:00"}],"status":"completed","code":{"coding":[{"system":"http://snomed.info/sct","code":"18946005"}]},"subject":{"reference":"Patient/f8f09525-80ac-4f58-80ff-74033387f5df"},"performedDateTime":"2025-11-05T09:15:00+00:00"},"request":{"method":"PUT","url":"Procedure/d274814a-2c14-4296-817d-bb5e4d9ea554"}},{"fullUrl":"https://madie.cms.gov/Location/Location-1","resource":{"resourceType":"Location","id":"f5fc879a-8fc7-4bcc-954e-d77240b807a4","meta":{"profile":["http://hl7.org/fhir/us/qicore/StructureDefinition/qicore-location"]},"identifier":[{"use":"usual","system":"http://exampleoflocation.com","value":"B1-S.F2"}],"name":"Medical Surgical East, first floor","type":[{"coding":[{"system":"https://www.cdc.gov/nhsn/cdaportal/terminology/codesystem/hsloc.html","code":"1025-6","display":"Trauma Critical Care","userSelected":true}]}]},"request":{"method":"PUT","url":"Location/f5fc879a-8fc7-4bcc-954e-d77240b807a4"}},{"fullUrl":"https://madie.cms.gov/Organization/123456","resource":{"resourceType":"Organization","id":"4b5a882f-1f43-485c-85c6-f5ad2337d5b1","meta":{"profile":["http://hl7.org/fhir/us/qicore/StructureDefinition/qicore-organization"]},"identifier":[{"use":"temp","system":"urn:oid:2.16.840.1.113883.4.4","value":"21-3259825"}],"active":true,"type":[{"coding":[{"system":"http://terminology.hl7.org/CodeSystem/organization-type","code":"pay","display":"Payer"}]}],"name":"Blue Cross Blue Shield of Texas","telecom":[{"system":"phone","value":"(+1) 972-766-6900"}],"address":[{"use":"billing","type":"postal","line":["P.O. Box 660044"],"city":"Dallas","state":"TX","postalCode":"75266-0044","country":"USA"}]},"request":{"method":"PUT","url":"Organization/4b5a882f-1f43-485c-85c6-f5ad2337d5b1"}},{"fullUrl":"https://madie.cms.gov/Practitioner/practitioner-123456","resource":{"resourceType":"Practitioner","id":"fbc40681-114f-42f2-b63d-442ff9a640e0","identifier":[{"system":"http://hl7.org/fhir/sid/us-npi","value":"123456"}],"name":[{"family":"Evil","prefix":["Dr"]}]},"request":{"method":"PUT","url":"Practitioner/fbc40681-114f-42f2-b63d-442ff9a640e0"}},{"fullUrl":"https://madie.cms.gov/MeasureReport/2d10ede6-dc5e-4596-8095-a7dceeb54a40","resource":{"resourceType":"MeasureReport","id":"2d10ede6-dc5e-4596-8095-a7dceeb54a40","meta":{"profile":["http://hl7.org/fhir/us/cqfmeasures/StructureDefinition/test-case-cqfm"]},"contained":[{"resourceType":"Parameters","id":"348c8717-9a5b-4034-b4d3-b665f04f51c4-parameters","parameter":[{"name":"subject","valueString":"f8f09525-80ac-4f58-80ff-74033387f5df"}]}],"extension":[{"url":"http://hl7.org/fhir/us/cqfmeasures/StructureDefinition/cqfm-inputParameters","valueReference":{"reference":"#348c8717-9a5b-4034-b4d3-b665f04f51c4-parameters"}},{"url":"http://hl7.org/fhir/us/cqfmeasures/StructureDefinition/cqfm-testCaseDescription","valueMarkdown":"Injectable factor Xa inhibitor  not ordered due to patient refusal after neuraxial anesthesia, which is 1 day after ICU adm\n"}],"modifierExtension":[{"url":"http://hl7.org/fhir/us/cqfmeasures/StructureDefinition/cqfm-isTestCase","valueBoolean":true}],"status":"complete","type":"individual","measure":"https://madie.cms.gov/Measure/IntensiveCareUnitVenousThromboembolismProphylaxisFHIR","period":{"start":"2025-01-01","end":"2025-12-31"},"group":[{"population":[{"code":{"coding":[{"system":"http://terminology.hl7.org/CodeSystem/measure-population","code":"initial-population","display":"Initial Population"}]},"count":1},{"code":{"coding":[{"system":"http://terminology.hl7.org/CodeSystem/measure-population","code":"denominator","display":"Denominator"}]},"count":1},{"code":{"coding":[{"system":"http://terminology.hl7.org/CodeSystem/measure-population","code":"denominator-exclusion","display":"Denominator Exclusion"}]},"count":0},{"code":{"coding":[{"system":"http://terminology.hl7.org/CodeSystem/measure-population","code":"numerator","display":"Numerator"}]},"count":1},{"code":{"coding":[{"system":"http://terminology.hl7.org/CodeSystem/measure-population","code":"denominator-exception","display":"Denominator Exception"}]},"count":0}]}]},"request":{"method":"PUT","url":"MeasureReport/2d10ede6-dc5e-4596-8095-a7dceeb54a40"}}]}