{"resourceType":"Bundle","id":"tests-2ccdf3cd-9f94-4d9c-ab2a-e78a4dd46876-bundle","type":"transaction","entry":[{"fullUrl":"https://madie.cms.gov/Patient/2ccdf3cd-9f94-4d9c-ab2a-e78a4dd46876","resource":{"resourceType":"Patient","id":"2ccdf3cd-9f94-4d9c-ab2a-e78a4dd46876","meta":{"profile":["http://hl7.org/fhir/us/qicore/StructureDefinition/qicore-patient"]},"text":{"status":"generated","div":"<div xmlns=\"http://www.w3.org/1999/xhtml\"><div class=\"hapiHeaderText\">MedReasonMARix2DaysAfterStartICU <b>NUMERFAIL </b></div><table class=\"hapiPropertyTable\"><tbody><tr><td>Identifier</td><td>9171ed8e3c126b0a718e996cdf49d57a</td></tr><tr><td>Date of birth</td><td><span>03 March 1974</span></td></tr></tbody></table></div>"},"extension":[{"url":"http://hl7.org/fhir/us/core/StructureDefinition/us-core-race","extension":[{"url":"ombCategory","valueCoding":{"system":"urn:oid:2.16.840.1.113883.6.238","code":"1002-5","display":"American Indian or Alaska Native","userSelected":true}},{"url":"text","valueString":"American Indian or Alaska Native"}]},{"url":"http://hl7.org/fhir/us/core/StructureDefinition/us-core-ethnicity","extension":[{"url":"ombCategory","valueCoding":{"system":"urn:oid:2.16.840.1.113883.6.238","code":"2135-2","display":"Hispanic or Latino","userSelected":true}},{"url":"text","valueString":"Hispanic or Latino"}]}],"identifier":[{"type":{"coding":[{"system":"http://terminology.hl7.org/CodeSystem/v2-0203","code":"MR"}]},"system":"https://bonnie-fhir.healthit.gov/","value":"612e6f2202c62a011f2f0cb3"}],"active":true,"name":[{"use":"usual","family":"NUMERFail","given":["MedReasonMARix2DaysAfterStartICU"]}],"gender":"female","birthDate":"1974-03-03"},"request":{"method":"PUT","url":"Patient/2ccdf3cd-9f94-4d9c-ab2a-e78a4dd46876"}},{"fullUrl":"https://madie.cms.gov/Encounter/5ce8096fb848467c29eaf16b","resource":{"resourceType":"Encounter","id":"03b03ca9-462e-4c20-84d2-260c59afaa44","meta":{"profile":["http://hl7.org/fhir/us/qicore/StructureDefinition/qicore-encounter"]},"status":"finished","class":{"system":"http://terminology.hl7.org/CodeSystem/v3-ActCode","code":"IMP","display":"inpatient encounter"},"type":[{"coding":[{"system":"http://snomed.info/sct","code":"8715000"}]}],"subject":{"reference":"Patient/2ccdf3cd-9f94-4d9c-ab2a-e78a4dd46876"},"period":{"start":"2025-12-01T00:00:00+00:00","end":"2025-12-31T23:59:00+00:00"},"length":{"value":30.0,"unit":"days"},"location":[{"location":{"reference":"Location/Location-1"},"period":{"start":"2025-12-01T00:01:00.000+00:00","end":"2025-12-15T23:59:00.000+00:00"}}]},"request":{"method":"PUT","url":"Encounter/03b03ca9-462e-4c20-84d2-260c59afaa44"}},{"fullUrl":"https://madie.cms.gov/Encounter/5ce8096fb848467c29eaf16c","resource":{"resourceType":"Encounter","id":"780e482b-68fa-4ad6-b3e5-6aa6d94ae965","meta":{"profile":["http://hl7.org/fhir/us/qicore/StructureDefinition/qicore-encounter"]},"status":"finished","class":{"system":"http://terminology.hl7.org/CodeSystem/v3-ActCode","code":"IMP","display":"inpatient encounter"},"type":[{"coding":[{"system":"http://snomed.info/sct","code":"183446009"}]}],"subject":{"reference":"Patient/2ccdf3cd-9f94-4d9c-ab2a-e78a4dd46876"},"period":{"start":"2025-12-22T00:00:00+00:00","end":"2025-12-31T23:59:00+00:00"},"length":{"value":9.0,"unit":"days"}},"request":{"method":"PUT","url":"Encounter/780e482b-68fa-4ad6-b3e5-6aa6d94ae965"}},{"fullUrl":"https://madie.cms.gov/Coverage/5fa040fe1c76ba66d9959057","resource":{"resourceType":"Coverage","id":"effef71b-6931-4d95-9a4c-429502bf3f09","status":"active","beneficiary":{"reference":"Patient/2ccdf3cd-9f94-4d9c-ab2a-e78a4dd46876"},"period":{"start":"1974-03-03T08:00:00+00:00"},"payor":[{"reference":"Organization/4b5a882f-1f43-485c-85c6-f5ad2337d5b1"}]},"request":{"method":"PUT","url":"Coverage/effef71b-6931-4d95-9a4c-429502bf3f09"}},{"fullUrl":"https://madie.cms.gov/MedicationAdministration/5ce8096fb848467c29eaf16d","resource":{"resourceType":"MedicationAdministration","id":"1970871b-c28e-4e66-91c4-4b3cee06c400","meta":{"profile":["http://hl7.org/fhir/us/qicore/StructureDefinition/qicore-mednotadministered"]},"extension":[{"url":"http://hl7.org/fhir/us/qicore/StructureDefinition/qicore-recorded","valueDateTime":"2025-12-03T07:00:00+00:00"}],"status":"not-done","statusReason":[{"coding":[{"system":"http://snomed.info/sct","code":"183932001","display":"Procedure contraindicated (situation)","userSelected":true}]}],"medicationCodeableConcept":{"coding":[{"system":"http://www.nlm.nih.gov/research/umls/rxnorm","code":"2588062","display":"rivaroxaban 1 MG/ML Oral Suspension"}]},"subject":{"reference":"Patient/2ccdf3cd-9f94-4d9c-ab2a-e78a4dd46876"},"effectivePeriod":{"start":"2025-12-03T00:00:00+00:00"}},"request":{"method":"PUT","url":"MedicationAdministration/1970871b-c28e-4e66-91c4-4b3cee06c400"}},{"fullUrl":"https://madie.cms.gov/Location/Location-1","resource":{"resourceType":"Location","id":"187508f2-bb14-410e-a5d6-644a12a49437","meta":{"profile":["http://hl7.org/fhir/us/qicore/StructureDefinition/qicore-location"]},"identifier":[{"use":"usual","system":"http://exampleoflocation.com","value":"B1-S.F2"}],"name":"Medical Surgical East, first floor","type":[{"coding":[{"system":"https://www.cdc.gov/nhsn/cdaportal/terminology/codesystem/hsloc.html","code":"1025-6","display":"Trauma Critical Care","userSelected":true}]}]},"request":{"method":"PUT","url":"Location/187508f2-bb14-410e-a5d6-644a12a49437"}},{"fullUrl":"https://madie.cms.gov/Organization/123456","resource":{"resourceType":"Organization","id":"4b5a882f-1f43-485c-85c6-f5ad2337d5b1","meta":{"profile":["http://hl7.org/fhir/us/qicore/StructureDefinition/qicore-organization"]},"identifier":[{"use":"temp","system":"urn:oid:2.16.840.1.113883.4.4","value":"21-3259825"}],"active":true,"type":[{"coding":[{"system":"http://terminology.hl7.org/CodeSystem/organization-type","code":"pay","display":"Payer"}]}],"name":"Blue Cross Blue Shield of Texas","telecom":[{"system":"phone","value":"(+1) 972-766-6900"}],"address":[{"use":"billing","type":"postal","line":["P.O. Box 660044"],"city":"Dallas","state":"TX","postalCode":"75266-0044","country":"USA"}]},"request":{"method":"PUT","url":"Organization/4b5a882f-1f43-485c-85c6-f5ad2337d5b1"}},{"fullUrl":"https://madie.cms.gov/Practitioner/practitioner-123456","resource":{"resourceType":"Practitioner","id":"97efa8c3-f745-4f41-89b6-e536cfdb0294","identifier":[{"system":"http://hl7.org/fhir/sid/us-npi","value":"123456"}],"name":[{"family":"Evil","prefix":["Dr"]}]},"request":{"method":"PUT","url":"Practitioner/97efa8c3-f745-4f41-89b6-e536cfdb0294"}},{"fullUrl":"https://madie.cms.gov/MeasureReport/2ab7b724-167c-4d3b-9ad4-330968626e94","resource":{"resourceType":"MeasureReport","id":"2ab7b724-167c-4d3b-9ad4-330968626e94","meta":{"profile":["http://hl7.org/fhir/us/cqfmeasures/StructureDefinition/test-case-cqfm"]},"contained":[{"resourceType":"Parameters","id":"8e36e49f-78d7-4a6e-a0f8-54200dff262d-parameters","parameter":[{"name":"subject","valueString":"2ccdf3cd-9f94-4d9c-ab2a-e78a4dd46876"}]}],"extension":[{"url":"http://hl7.org/fhir/us/cqfmeasures/StructureDefinition/cqfm-inputParameters","valueReference":{"reference":"#8e36e49f-78d7-4a6e-a0f8-54200dff262d-parameters"}},{"url":"http://hl7.org/fhir/us/cqfmeasures/StructureDefinition/cqfm-testCaseDescription","valueMarkdown":"Rivaroxaban  for VTE Prophylaxis was administered \n 2 days after ICU admission, no anesthesia.\n"}],"modifierExtension":[{"url":"http://hl7.org/fhir/us/cqfmeasures/StructureDefinition/cqfm-isTestCase","valueBoolean":true}],"status":"complete","type":"individual","measure":"https://madie.cms.gov/Measure/IntensiveCareUnitVenousThromboembolismProphylaxisFHIR","period":{"start":"2025-01-01","end":"2025-12-31"},"group":[{"population":[{"code":{"coding":[{"system":"http://terminology.hl7.org/CodeSystem/measure-population","code":"initial-population","display":"Initial Population"}]},"count":1},{"code":{"coding":[{"system":"http://terminology.hl7.org/CodeSystem/measure-population","code":"denominator","display":"Denominator"}]},"count":1},{"code":{"coding":[{"system":"http://terminology.hl7.org/CodeSystem/measure-population","code":"denominator-exclusion","display":"Denominator Exclusion"}]},"count":0},{"code":{"coding":[{"system":"http://terminology.hl7.org/CodeSystem/measure-population","code":"numerator","display":"Numerator"}]},"count":0},{"code":{"coding":[{"system":"http://terminology.hl7.org/CodeSystem/measure-population","code":"denominator-exception","display":"Denominator Exception"}]},"count":0}]}]},"request":{"method":"PUT","url":"MeasureReport/2ab7b724-167c-4d3b-9ad4-330968626e94"}}]}