{"resourceType":"Bundle","id":"tests-bba3244d-62a5-42f1-a67a-c28379e73f10-bundle","type":"transaction","entry":[{"fullUrl":"https://madie.cms.gov/Patient/bba3244d-62a5-42f1-a67a-c28379e73f10","resource":{"resourceType":"Patient","id":"bba3244d-62a5-42f1-a67a-c28379e73f10","meta":{"profile":["http://hl7.org/fhir/us/qicore/StructureDefinition/qicore-patient"]},"text":{"status":"generated","div":"<div xmlns=\"http://www.w3.org/1999/xhtml\"><div class=\"hapiHeaderText\">LOSGT2Days <b>DENEXPASS </b></div><table class=\"hapiPropertyTable\"><tbody><tr><td>Identifier</td><td>89c2e418c9727592f5380d634f63eb21</td></tr><tr><td>Date of birth</td><td><span>03 March 1974</span></td></tr></tbody></table></div>"},"extension":[{"url":"http://hl7.org/fhir/us/core/StructureDefinition/us-core-race","extension":[{"url":"ombCategory","valueCoding":{"system":"urn:oid:2.16.840.1.113883.6.238","code":"1002-5","display":"American Indian or Alaska Native","userSelected":true}},{"url":"text","valueString":"American Indian or Alaska Native"}]},{"url":"http://hl7.org/fhir/us/core/StructureDefinition/us-core-ethnicity","extension":[{"url":"ombCategory","valueCoding":{"system":"urn:oid:2.16.840.1.113883.6.238","code":"2135-2","display":"Hispanic or Latino","userSelected":true}},{"url":"text","valueString":"Hispanic or Latino"}]}],"identifier":[{"type":{"coding":[{"system":"http://terminology.hl7.org/CodeSystem/v2-0203","code":"MR"}]},"system":"https://bonnie-fhir.healthit.gov/","value":"612e6eb102c62a011f2ef420"}],"active":true,"name":[{"use":"usual","family":"DENEXFail","given":["LOSGT2Days"]}],"gender":"female","birthDate":"1974-03-03"},"request":{"method":"PUT","url":"Patient/bba3244d-62a5-42f1-a67a-c28379e73f10"}},{"fullUrl":"https://madie.cms.gov/Encounter/5ce8096db848467c29eaf0b1","resource":{"resourceType":"Encounter","id":"e248c133-a20b-47d5-b014-6ac065cc40d5","meta":{"profile":["http://hl7.org/fhir/us/qicore/StructureDefinition/qicore-encounter"]},"status":"finished","class":{"system":"http://terminology.hl7.org/CodeSystem/v3-ActCode","code":"IMP","display":"inpatient encounter"},"type":[{"coding":[{"system":"http://snomed.info/sct","code":"8715000"}]}],"subject":{"reference":"Patient/bba3244d-62a5-42f1-a67a-c28379e73f10"},"period":{"start":"2025-12-04T08:00:00+00:00","end":"2025-12-07T18:15:00+00:00"},"length":{"value":1.0,"unit":"days"},"location":[{"location":{"reference":"Location/Location-1"},"period":{"start":"2025-12-04T09:15:00.000+00:00","end":"2025-12-05T00:15:00.000+00:00"}}]},"request":{"method":"PUT","url":"Encounter/e248c133-a20b-47d5-b014-6ac065cc40d5"}},{"fullUrl":"https://madie.cms.gov/Coverage/5fa040eb1c76ba66d9958efb","resource":{"resourceType":"Coverage","id":"d6e1b732-ab2d-48bb-bf04-bebad14e4d33","status":"active","beneficiary":{"reference":"Patient/bba3244d-62a5-42f1-a67a-c28379e73f10"},"period":{"start":"1974-03-03T08:00:00+00:00"},"payor":[{"reference":"Organization/4b5a882f-1f43-485c-85c6-f5ad2337d5b1"}]},"request":{"method":"PUT","url":"Coverage/d6e1b732-ab2d-48bb-bf04-bebad14e4d33"}},{"fullUrl":"https://madie.cms.gov/Location/Location-1","resource":{"resourceType":"Location","id":"b1f5a8de-6ede-4e3f-82d2-aeff807cb23b","meta":{"profile":["http://hl7.org/fhir/us/qicore/StructureDefinition/qicore-location"]},"identifier":[{"use":"usual","system":"http://exampleoflocation.com","value":"B1-S.F2"}],"name":"Medical Surgical East, first floor","type":[{"coding":[{"system":"https://www.cdc.gov/nhsn/cdaportal/terminology/codesystem/hsloc.html","code":"1025-6","display":"Trauma Critical Care","userSelected":true}]}]},"request":{"method":"PUT","url":"Location/b1f5a8de-6ede-4e3f-82d2-aeff807cb23b"}},{"fullUrl":"https://madie.cms.gov/Organization/123456","resource":{"resourceType":"Organization","id":"4b5a882f-1f43-485c-85c6-f5ad2337d5b1","meta":{"profile":["http://hl7.org/fhir/us/qicore/StructureDefinition/qicore-organization"]},"identifier":[{"use":"temp","system":"urn:oid:2.16.840.1.113883.4.4","value":"21-3259825"}],"active":true,"type":[{"coding":[{"system":"http://terminology.hl7.org/CodeSystem/organization-type","code":"pay","display":"Payer"}]}],"name":"Blue Cross Blue Shield of Texas","telecom":[{"system":"phone","value":"(+1) 972-766-6900"}],"address":[{"use":"billing","type":"postal","line":["P.O. Box 660044"],"city":"Dallas","state":"TX","postalCode":"75266-0044","country":"USA"}]},"request":{"method":"PUT","url":"Organization/4b5a882f-1f43-485c-85c6-f5ad2337d5b1"}},{"fullUrl":"https://madie.cms.gov/Practitioner/practitioner-123456","resource":{"resourceType":"Practitioner","id":"5ba8c9fa-391c-4725-909b-b58d436c6b82","identifier":[{"system":"http://hl7.org/fhir/sid/us-npi","value":"123456"}],"name":[{"family":"Evil","prefix":["Dr"]}]},"request":{"method":"PUT","url":"Practitioner/5ba8c9fa-391c-4725-909b-b58d436c6b82"}},{"fullUrl":"https://madie.cms.gov/MeasureReport/d622912b-bb1d-4880-ae56-307582002060","resource":{"resourceType":"MeasureReport","id":"d622912b-bb1d-4880-ae56-307582002060","meta":{"profile":["http://hl7.org/fhir/us/cqfmeasures/StructureDefinition/test-case-cqfm"]},"contained":[{"resourceType":"Parameters","id":"7fc2a889-97dd-4b9e-9d1b-f24d1efe21fe-parameters","parameter":[{"name":"subject","valueString":"bba3244d-62a5-42f1-a67a-c28379e73f10"}]}],"extension":[{"url":"http://hl7.org/fhir/us/cqfmeasures/StructureDefinition/cqfm-inputParameters","valueReference":{"reference":"#7fc2a889-97dd-4b9e-9d1b-f24d1efe21fe-parameters"}},{"url":"http://hl7.org/fhir/us/cqfmeasures/StructureDefinition/cqfm-testCaseDescription","valueMarkdown":"Encounter with ICU stay, but the hospital stay is 3 days"}],"modifierExtension":[{"url":"http://hl7.org/fhir/us/cqfmeasures/StructureDefinition/cqfm-isTestCase","valueBoolean":true}],"status":"complete","type":"individual","measure":"https://madie.cms.gov/Measure/IntensiveCareUnitVenousThromboembolismProphylaxisFHIR","period":{"start":"2025-01-01","end":"2025-12-31"},"group":[{"population":[{"code":{"coding":[{"system":"http://terminology.hl7.org/CodeSystem/measure-population","code":"initial-population","display":"Initial Population"}]},"count":1},{"code":{"coding":[{"system":"http://terminology.hl7.org/CodeSystem/measure-population","code":"denominator","display":"Denominator"}]},"count":1},{"code":{"coding":[{"system":"http://terminology.hl7.org/CodeSystem/measure-population","code":"denominator-exclusion","display":"Denominator Exclusion"}]},"count":0},{"code":{"coding":[{"system":"http://terminology.hl7.org/CodeSystem/measure-population","code":"numerator","display":"Numerator"}]},"count":0},{"code":{"coding":[{"system":"http://terminology.hl7.org/CodeSystem/measure-population","code":"denominator-exception","display":"Denominator Exception"}]},"count":0}]}]},"request":{"method":"PUT","url":"MeasureReport/d622912b-bb1d-4880-ae56-307582002060"}}]}