{"resourceType":"Bundle","id":"tests-e35371bf-1c00-4581-b217-4f98f1d779ec-bundle","type":"transaction","entry":[{"fullUrl":"https://madie.cms.gov/Patient/e35371bf-1c00-4581-b217-4f98f1d779ec","resource":{"resourceType":"Patient","id":"e35371bf-1c00-4581-b217-4f98f1d779ec","meta":{"profile":["http://hl7.org/fhir/us/qicore/StructureDefinition/qicore-patient"]},"text":{"status":"generated","div":"<div xmlns=\"http://www.w3.org/1999/xhtml\"><div class=\"hapiHeaderText\">CMODuringObsLT1hrBFAdm <b>DENEXPASS </b></div><table class=\"hapiPropertyTable\"><tbody><tr><td>Identifier</td><td>b76722bfa8b7247c1f4f231ad8af146a5c30960d16e3961ba6c562fdeac74b10</td></tr><tr><td>Date of birth</td><td><span>03 March 1970</span></td></tr></tbody></table></div>"},"extension":[{"url":"http://hl7.org/fhir/us/core/StructureDefinition/us-core-race","extension":[{"url":"ombCategory","valueCoding":{"system":"urn:oid:2.16.840.1.113883.6.238","code":"1002-5","display":"American Indian or Alaska Native","userSelected":true}},{"url":"text","valueString":"American Indian or Alaska Native"}]},{"url":"http://hl7.org/fhir/us/core/StructureDefinition/us-core-ethnicity","extension":[{"url":"ombCategory","valueCoding":{"system":"urn:oid:2.16.840.1.113883.6.238","code":"2135-2","display":"Hispanic or Latino","userSelected":true}},{"url":"text","valueString":"Hispanic or Latino"}]}],"identifier":[{"type":{"coding":[{"system":"http://terminology.hl7.org/CodeSystem/v2-0203","code":"MR"}]},"system":"https://bonnie-fhir.healthit.gov/","value":"612e6f6802c62a011f2f1b7a"}],"active":true,"name":[{"use":"usual","family":"DENEXPass","given":["CMODuringObsLT1hrBFAdm"]}],"gender":"female","birthDate":"1970-03-03"},"request":{"method":"PUT","url":"Patient/e35371bf-1c00-4581-b217-4f98f1d779ec"}},{"fullUrl":"https://madie.cms.gov/Encounter/5ce80970b848467c29eaf299","resource":{"resourceType":"Encounter","id":"84ff8b35-fccb-4153-8222-97bd71df486d","meta":{"profile":["http://hl7.org/fhir/us/qicore/StructureDefinition/qicore-encounter"]},"status":"finished","class":{"system":"http://terminology.hl7.org/CodeSystem/v3-ActCode","code":"EMER","display":"emergency"},"type":[{"coding":[{"system":"http://snomed.info/sct","code":"4525004"}]}],"subject":{"reference":"Patient/e35371bf-1c00-4581-b217-4f98f1d779ec"},"period":{"start":"2025-12-04T04:00:00+00:00","end":"2025-12-04T05:00:00+00:00"},"length":{"value":0.0,"unit":"days"}},"request":{"method":"PUT","url":"Encounter/84ff8b35-fccb-4153-8222-97bd71df486d"}},{"fullUrl":"https://madie.cms.gov/Encounter/6037e8a95e5bfb0000d533ba","resource":{"resourceType":"Encounter","id":"f7f5f093-53a4-473d-97eb-7e3885d5656b","meta":{"profile":["http://hl7.org/fhir/us/qicore/StructureDefinition/qicore-encounter"]},"status":"finished","class":{"system":"http://terminology.hl7.org/CodeSystem/v3-ActCode","code":"OBSENC","display":"observation encounter"},"type":[{"coding":[{"system":"http://snomed.info/sct","code":"448951000124107"}]}],"subject":{"reference":"Patient/e35371bf-1c00-4581-b217-4f98f1d779ec"},"period":{"start":"2025-12-04T05:15:00+00:00","end":"2025-12-04T07:15:00+00:00"}},"request":{"method":"PUT","url":"Encounter/f7f5f093-53a4-473d-97eb-7e3885d5656b"}},{"fullUrl":"https://madie.cms.gov/Encounter/5ce80970b848467c29eaf29b","resource":{"resourceType":"Encounter","id":"430ed27f-411d-46c5-b7a3-7e62630bfd96","meta":{"profile":["http://hl7.org/fhir/us/qicore/StructureDefinition/qicore-encounter"]},"status":"finished","class":{"system":"http://terminology.hl7.org/CodeSystem/v3-ActCode","code":"IMP","display":"inpatient encounter"},"type":[{"coding":[{"system":"http://snomed.info/sct","code":"8715000"}]}],"subject":{"reference":"Patient/e35371bf-1c00-4581-b217-4f98f1d779ec"},"period":{"start":"2025-12-04T08:00:00+00:00","end":"2025-12-30T08:15:00+00:00"},"length":{"value":26.0,"unit":"days"},"location":[{"location":{"reference":"Location/intensive-care-unit-02b4"},"period":{"start":"2025-12-26T08:00:00.000+00:00","end":"2025-12-28T08:15:00.000+00:00"}}]},"request":{"method":"PUT","url":"Encounter/430ed27f-411d-46c5-b7a3-7e62630bfd96"}},{"fullUrl":"https://madie.cms.gov/ServiceRequest/5ce80970b848467c29eaf29c","resource":{"resourceType":"ServiceRequest","id":"8e106601-9784-481e-9a40-c87274fe57d1","meta":{"profile":["http://hl7.org/fhir/us/qicore/StructureDefinition/qicore-servicerequest"]},"status":"completed","intent":"order","code":{"coding":[{"system":"http://snomed.info/sct","code":"133918004"}]},"subject":{"reference":"Patient/e35371bf-1c00-4581-b217-4f98f1d779ec"},"authoredOn":"2025-12-04T06:00:00+00:00"},"request":{"method":"PUT","url":"ServiceRequest/8e106601-9784-481e-9a40-c87274fe57d1"}},{"fullUrl":"https://madie.cms.gov/Coverage/5fa041071c76ba66d99590fc","resource":{"resourceType":"Coverage","id":"f1401804-361f-4194-9471-2c8df5f3cae7","status":"active","beneficiary":{"reference":"Patient/e35371bf-1c00-4581-b217-4f98f1d779ec"},"period":{"start":"1974-03-03T08:00:00+00:00"},"payor":[{"reference":"Organization/4b5a882f-1f43-485c-85c6-f5ad2337d5b1"}]},"request":{"method":"PUT","url":"Coverage/f1401804-361f-4194-9471-2c8df5f3cae7"}},{"fullUrl":"https://madie.cms.gov/Location/intensive-care-unit-02b4","resource":{"resourceType":"Location","id":"2a878bfe-2757-4d4e-82c1-d677396948a8","meta":{"profile":["http://hl7.org/fhir/us/qicore/StructureDefinition/qicore-location"]},"identifier":[{"use":"usual","system":"http://exampleoflocation.com","value":"B1-S.F2"}],"name":"Medical Surgical East, first floor","type":[{"coding":[{"system":"https://www.cdc.gov/nhsn/cdaportal/terminology/codesystem/hsloc.html","code":"1025-6","display":"Trauma Critical Care","userSelected":true}]}]},"request":{"method":"PUT","url":"Location/2a878bfe-2757-4d4e-82c1-d677396948a8"}},{"fullUrl":"https://madie.cms.gov/Organization/123456","resource":{"resourceType":"Organization","id":"4b5a882f-1f43-485c-85c6-f5ad2337d5b1","meta":{"profile":["http://hl7.org/fhir/us/qicore/StructureDefinition/qicore-organization"]},"identifier":[{"use":"temp","system":"urn:oid:2.16.840.1.113883.4.4","value":"21-3259825"}],"active":true,"type":[{"coding":[{"system":"http://terminology.hl7.org/CodeSystem/organization-type","code":"pay","display":"Payer"}]}],"name":"Blue Cross Blue Shield of Texas","telecom":[{"system":"phone","value":"(+1) 972-766-6900"}],"address":[{"use":"billing","type":"postal","line":["P.O. Box 660044"],"city":"Dallas","state":"TX","postalCode":"75266-0044","country":"USA"}]},"request":{"method":"PUT","url":"Organization/4b5a882f-1f43-485c-85c6-f5ad2337d5b1"}},{"fullUrl":"https://madie.cms.gov/Practitioner/practitioner-123456","resource":{"resourceType":"Practitioner","id":"0f68d03b-695e-4892-82a2-16494b6862f5","identifier":[{"system":"http://hl7.org/fhir/sid/us-npi","value":"123456"}],"name":[{"family":"Evil","prefix":["Dr"]}]},"request":{"method":"PUT","url":"Practitioner/0f68d03b-695e-4892-82a2-16494b6862f5"}},{"fullUrl":"https://madie.cms.gov/MeasureReport/88015b92-0609-46ee-a660-92f04a445a3f","resource":{"resourceType":"MeasureReport","id":"88015b92-0609-46ee-a660-92f04a445a3f","meta":{"profile":["http://hl7.org/fhir/us/cqfmeasures/StructureDefinition/test-case-cqfm"]},"contained":[{"resourceType":"Parameters","id":"b41d70e1-e4fc-4d35-b4d2-d4e16a739555-parameters","parameter":[{"name":"subject","valueString":"e35371bf-1c00-4581-b217-4f98f1d779ec"}]}],"extension":[{"url":"http://hl7.org/fhir/us/cqfmeasures/StructureDefinition/cqfm-inputParameters","valueReference":{"reference":"#b41d70e1-e4fc-4d35-b4d2-d4e16a739555-parameters"}},{"url":"http://hl7.org/fhir/us/cqfmeasures/StructureDefinition/cqfm-testCaseDescription","valueMarkdown":"meets IPP and Denominator and DenExcl, inpatient visit starts <=1 hour after the end of Observation AND Comfort Measures are ordered during Obs\n"}],"modifierExtension":[{"url":"http://hl7.org/fhir/us/cqfmeasures/StructureDefinition/cqfm-isTestCase","valueBoolean":true}],"status":"complete","type":"individual","measure":"https://madie.cms.gov/Measure/IntensiveCareUnitVenousThromboembolismProphylaxisFHIR","period":{"start":"2025-01-01","end":"2025-12-31"},"group":[{"population":[{"code":{"coding":[{"system":"http://terminology.hl7.org/CodeSystem/measure-population","code":"initial-population","display":"Initial Population"}]},"count":1},{"code":{"coding":[{"system":"http://terminology.hl7.org/CodeSystem/measure-population","code":"denominator","display":"Denominator"}]},"count":1},{"code":{"coding":[{"system":"http://terminology.hl7.org/CodeSystem/measure-population","code":"denominator-exclusion","display":"Denominator Exclusion"}]},"count":1},{"code":{"coding":[{"system":"http://terminology.hl7.org/CodeSystem/measure-population","code":"numerator","display":"Numerator"}]},"count":0},{"code":{"coding":[{"system":"http://terminology.hl7.org/CodeSystem/measure-population","code":"denominator-exception","display":"Denominator Exception"}]},"count":0}]}]},"request":{"method":"PUT","url":"MeasureReport/88015b92-0609-46ee-a660-92f04a445a3f"}}]}