{"resourceType":"Bundle","id":"tests-f028ed8f-f83b-4c77-bb08-2c4df7694a12-bundle","type":"transaction","entry":[{"fullUrl":"https://madie.cms.gov/Patient/f028ed8f-f83b-4c77-bb08-2c4df7694a12","resource":{"resourceType":"Patient","id":"f028ed8f-f83b-4c77-bb08-2c4df7694a12","meta":{"profile":["http://hl7.org/fhir/us/qicore/StructureDefinition/qicore-patient"]},"text":{"status":"generated","div":"<div xmlns=\"http://www.w3.org/1999/xhtml\"><div class=\"hapiHeaderText\">CMOPerf_DayAfterAnes_ProcRvltDT <b>DENEXPASS </b></div><table class=\"hapiPropertyTable\"><tbody><tr><td>Identifier</td><td>0fe0fbaacaf0868ff4d29642725703ce</td></tr><tr><td>Date of birth</td><td><span>03 March 1974</span></td></tr></tbody></table></div>"},"extension":[{"url":"http://hl7.org/fhir/us/core/StructureDefinition/us-core-race","extension":[{"url":"ombCategory","valueCoding":{"system":"urn:oid:2.16.840.1.113883.6.238","code":"1002-5","display":"American Indian or Alaska Native","userSelected":true}},{"url":"text","valueString":"American Indian or Alaska Native"}]},{"url":"http://hl7.org/fhir/us/core/StructureDefinition/us-core-ethnicity","extension":[{"url":"ombCategory","valueCoding":{"system":"urn:oid:2.16.840.1.113883.6.238","code":"2135-2","display":"Hispanic or Latino","userSelected":true}},{"url":"text","valueString":"Hispanic or Latino"}]}],"identifier":[{"type":{"coding":[{"system":"http://terminology.hl7.org/CodeSystem/v2-0203","code":"MR"}]},"system":"https://bonnie-fhir.healthit.gov/","value":"612e6e8702c62a011f2eebda"}],"active":true,"name":[{"use":"usual","family":"DENEXPass","given":["CMOPerf_DayAfterAnes_ProcRvltDT"]}],"gender":"female","birthDate":"1974-03-03"},"request":{"method":"PUT","url":"Patient/f028ed8f-f83b-4c77-bb08-2c4df7694a12"}},{"fullUrl":"https://madie.cms.gov/Encounter/5ce80970b848467c29eaf281","resource":{"resourceType":"Encounter","id":"1c3852b4-00f0-4eeb-898b-d65a9f3f724d","meta":{"profile":["http://hl7.org/fhir/us/qicore/StructureDefinition/qicore-encounter"]},"status":"finished","class":{"system":"http://terminology.hl7.org/CodeSystem/v3-ActCode","code":"IMP","display":"inpatient encounter"},"type":[{"coding":[{"system":"http://snomed.info/sct","code":"8715000"}]}],"subject":{"reference":"Patient/f028ed8f-f83b-4c77-bb08-2c4df7694a12"},"period":{"start":"2025-12-04T08:00:00+00:00","end":"2025-12-30T08:15:00+00:00"},"length":{"value":26.0,"unit":"days"},"location":[{"location":{"reference":"Location/intensive-care-unit-f84c"},"period":{"start":"2025-12-06T08:00:00.000+00:00","end":"2025-12-12T08:15:00.000+00:00"}}]},"request":{"method":"PUT","url":"Encounter/1c3852b4-00f0-4eeb-898b-d65a9f3f724d"}},{"fullUrl":"https://madie.cms.gov/Procedure/5ce80970b848467c29eaf283","resource":{"resourceType":"Procedure","id":"3509dcb7-f80a-486b-900c-6900921683bc","meta":{"profile":["http://hl7.org/fhir/us/qicore/StructureDefinition/qicore-procedure"]},"extension":[{"url":"http://hl7.org/fhir/us/qicore/StructureDefinition/qicore-recorded","valueDateTime":"2012-12-04T09:35:00-04:00"}],"status":"completed","code":{"coding":[{"system":"http://snomed.info/sct","code":"133918004"}]},"subject":{"reference":"Patient/f028ed8f-f83b-4c77-bb08-2c4df7694a12"},"performedDateTime":"2025-12-08T08:00:00.000+00:00"},"request":{"method":"PUT","url":"Procedure/3509dcb7-f80a-486b-900c-6900921683bc"}},{"fullUrl":"https://madie.cms.gov/Coverage/5fa040ef1c76ba66d9958f3a","resource":{"resourceType":"Coverage","id":"a4af591f-c482-4cae-b2b5-03738155bfc1","status":"active","beneficiary":{"reference":"Patient/f028ed8f-f83b-4c77-bb08-2c4df7694a12"},"period":{"start":"1974-03-03T08:00:00+00:00"},"payor":[{"reference":"Organization/4b5a882f-1f43-485c-85c6-f5ad2337d5b1"}]},"request":{"method":"PUT","url":"Coverage/a4af591f-c482-4cae-b2b5-03738155bfc1"}},{"fullUrl":"https://madie.cms.gov/Procedure/5ce80970b848467c29eaf282","resource":{"resourceType":"Procedure","id":"e3ac5ac5-f9b8-4913-ae5d-2c2981aeec11","meta":{"profile":["http://hl7.org/fhir/us/qicore/StructureDefinition/qicore-procedure"]},"extension":[{"url":"http://hl7.org/fhir/us/qicore/StructureDefinition/qicore-recorded","valueDateTime":"2012-12-09T09:35:00-04:00"}],"status":"completed","code":{"coding":[{"system":"http://snomed.info/sct","code":"18946005"}]},"subject":{"reference":"Patient/f028ed8f-f83b-4c77-bb08-2c4df7694a12"},"performedPeriod":{"end":"2025-12-07T11:15:00+00:00"}},"request":{"method":"PUT","url":"Procedure/e3ac5ac5-f9b8-4913-ae5d-2c2981aeec11"}},{"fullUrl":"https://madie.cms.gov/Location/intensive-care-unit-f84c","resource":{"resourceType":"Location","id":"3852aa16-a327-464a-b086-c72ca2a35c93","meta":{"profile":["http://hl7.org/fhir/us/qicore/StructureDefinition/qicore-location"]},"identifier":[{"use":"usual","system":"http://exampleoflocation.com","value":"B1-S.F2"}],"name":"Medical Surgical East, first floor","type":[{"coding":[{"system":"https://www.cdc.gov/nhsn/cdaportal/terminology/codesystem/hsloc.html","code":"1025-6","display":"Trauma Critical Care","userSelected":true}]}]},"request":{"method":"PUT","url":"Location/3852aa16-a327-464a-b086-c72ca2a35c93"}},{"fullUrl":"https://madie.cms.gov/Organization/123456","resource":{"resourceType":"Organization","id":"4b5a882f-1f43-485c-85c6-f5ad2337d5b1","meta":{"profile":["http://hl7.org/fhir/us/qicore/StructureDefinition/qicore-organization"]},"identifier":[{"use":"temp","system":"urn:oid:2.16.840.1.113883.4.4","value":"21-3259825"}],"active":true,"type":[{"coding":[{"system":"http://terminology.hl7.org/CodeSystem/organization-type","code":"pay","display":"Payer"}]}],"name":"Blue Cross Blue Shield of Texas","telecom":[{"system":"phone","value":"(+1) 972-766-6900"}],"address":[{"use":"billing","type":"postal","line":["P.O. Box 660044"],"city":"Dallas","state":"TX","postalCode":"75266-0044","country":"USA"}]},"request":{"method":"PUT","url":"Organization/4b5a882f-1f43-485c-85c6-f5ad2337d5b1"}},{"fullUrl":"https://madie.cms.gov/Practitioner/practitioner-123456","resource":{"resourceType":"Practitioner","id":"37fbb2e6-90b0-439d-8184-bb51332d925d","identifier":[{"system":"http://hl7.org/fhir/sid/us-npi","value":"123456"}],"name":[{"family":"Evil","prefix":["Dr"]}]},"request":{"method":"PUT","url":"Practitioner/37fbb2e6-90b0-439d-8184-bb51332d925d"}},{"fullUrl":"https://madie.cms.gov/MeasureReport/5a88d04f-8284-487c-afc8-ed3d13292abf","resource":{"resourceType":"MeasureReport","id":"5a88d04f-8284-487c-afc8-ed3d13292abf","meta":{"profile":["http://hl7.org/fhir/us/cqfmeasures/StructureDefinition/test-case-cqfm"]},"contained":[{"resourceType":"Parameters","id":"dba5957e-397f-4c99-8d92-17b966269038-parameters","parameter":[{"name":"subject","valueString":"f028ed8f-f83b-4c77-bb08-2c4df7694a12"}]}],"extension":[{"url":"http://hl7.org/fhir/us/cqfmeasures/StructureDefinition/cqfm-inputParameters","valueReference":{"reference":"#dba5957e-397f-4c99-8d92-17b966269038-parameters"}},{"url":"http://hl7.org/fhir/us/cqfmeasures/StructureDefinition/cqfm-testCaseDescription","valueMarkdown":"comfort measures starts after neuraxial anesthesia by using Procedure relevant datetime. Using RevelantDT for both CMP and anethesia\n"}],"modifierExtension":[{"url":"http://hl7.org/fhir/us/cqfmeasures/StructureDefinition/cqfm-isTestCase","valueBoolean":true}],"status":"complete","type":"individual","measure":"https://madie.cms.gov/Measure/IntensiveCareUnitVenousThromboembolismProphylaxisFHIR","period":{"start":"2025-01-01","end":"2025-12-31"},"group":[{"population":[{"code":{"coding":[{"system":"http://terminology.hl7.org/CodeSystem/measure-population","code":"initial-population","display":"Initial Population"}]},"count":1},{"code":{"coding":[{"system":"http://terminology.hl7.org/CodeSystem/measure-population","code":"denominator","display":"Denominator"}]},"count":1},{"code":{"coding":[{"system":"http://terminology.hl7.org/CodeSystem/measure-population","code":"denominator-exclusion","display":"Denominator Exclusion"}]},"count":1},{"code":{"coding":[{"system":"http://terminology.hl7.org/CodeSystem/measure-population","code":"numerator","display":"Numerator"}]},"count":0},{"code":{"coding":[{"system":"http://terminology.hl7.org/CodeSystem/measure-population","code":"denominator-exception","display":"Denominator Exception"}]},"count":0}]}]},"request":{"method":"PUT","url":"MeasureReport/5a88d04f-8284-487c-afc8-ed3d13292abf"}}]}