{"resourceType":"Bundle","id":"tests-3d5a301e-9a14-41d1-8d09-dda738cc761e-bundle","type":"transaction","entry":[{"fullUrl":"https://madie.cms.gov/Patient/3d5a301e-9a14-41d1-8d09-dda738cc761e","resource":{"resourceType":"Patient","id":"3d5a301e-9a14-41d1-8d09-dda738cc761e","meta":{"profile":["http://hl7.org/fhir/us/qicore/StructureDefinition/qicore-patient"]},"text":{"status":"generated","div":"<div xmlns=\"http://www.w3.org/1999/xhtml\"><div class=\"hapiHeaderText\">EncDxObstetrics <b>IPFAIL </b></div><table class=\"hapiPropertyTable\"><tbody><tr><td>Identifier</td><td>73dfd43c47660281c0a5408728e85897</td></tr><tr><td>Date of birth</td><td><span>03 March 1974</span></td></tr></tbody></table></div>"},"extension":[{"url":"http://hl7.org/fhir/us/core/StructureDefinition/us-core-race","extension":[{"url":"ombCategory","valueCoding":{"system":"urn:oid:2.16.840.1.113883.6.238","code":"1002-5","display":"American Indian or Alaska Native","userSelected":true}},{"url":"text","valueString":"American Indian or Alaska Native"}]},{"url":"http://hl7.org/fhir/us/core/StructureDefinition/us-core-ethnicity","extension":[{"url":"ombCategory","valueCoding":{"system":"urn:oid:2.16.840.1.113883.6.238","code":"2186-5","display":"Not Hispanic or Latino","userSelected":true}},{"url":"text","valueString":"Not Hispanic or Latino"}]}],"identifier":[{"type":{"coding":[{"system":"http://terminology.hl7.org/CodeSystem/v2-0203","code":"MR"}]},"system":"https://bonnie-fhir.healthit.gov/","value":"612e6f1402c62a011f2f0ad8"}],"active":true,"name":[{"use":"usual","family":"IPFail","given":["EncDxObstetrics"]}],"gender":"female","birthDate":"1974-03-03"},"request":{"method":"PUT","url":"Patient/3d5a301e-9a14-41d1-8d09-dda738cc761e"}},{"fullUrl":"https://madie.cms.gov/Encounter/5ce80970b848467c29eaf1f7","resource":{"resourceType":"Encounter","id":"0278117a-b8ad-40ad-a1d9-244a35d141ae","meta":{"profile":["http://hl7.org/fhir/us/qicore/StructureDefinition/qicore-encounter"]},"status":"finished","class":{"system":"http://terminology.hl7.org/CodeSystem/v3-ActCode","code":"IMP","display":"inpatient encounter"},"type":[{"coding":[{"system":"http://snomed.info/sct","code":"8715000"}]}],"subject":{"reference":"Patient/3d5a301e-9a14-41d1-8d09-dda738cc761e"},"period":{"start":"2025-12-04T08:00:00+00:00","end":"2025-12-30T08:15:00+00:00"},"length":{"value":26.0,"unit":"days"},"diagnosis":[{"condition":{"reference":"Condition/vte-24ef"}}],"location":[{"location":{"reference":"Location/Location-1"},"period":{"start":"2025-12-06T08:00:00.000+00:00","end":"2025-12-08T08:15:00.000+00:00"}}]},"request":{"method":"PUT","url":"Encounter/0278117a-b8ad-40ad-a1d9-244a35d141ae"}},{"fullUrl":"https://madie.cms.gov/Coverage/5fa040fc1c76ba66d9959036","resource":{"resourceType":"Coverage","id":"d6802fcb-3350-4ff0-9b8c-4d399da8552a","status":"active","beneficiary":{"reference":"Patient/3d5a301e-9a14-41d1-8d09-dda738cc761e"},"period":{"start":"1974-03-03T08:00:00+00:00"},"payor":[{"reference":"Organization/4b5a882f-1f43-485c-85c6-f5ad2337d5b1"}]},"request":{"method":"PUT","url":"Coverage/d6802fcb-3350-4ff0-9b8c-4d399da8552a"}},{"fullUrl":"https://madie.cms.gov/Condition/vte-24ef","resource":{"resourceType":"Condition","id":"8249a2e7-f954-4108-81f2-8cd67d8aef59","meta":{"profile":["http://hl7.org/fhir/us/qicore/StructureDefinition/qicore-condition"]},"category":[{"coding":[{"system":"http://terminology.hl7.org/CodeSystem/condition-category","code":"encounter-diagnosis","display":"Encounter Diagnosis"}]}],"code":{"coding":[{"system":"http://snomed.info/sct","code":"1001000119102","display":"Pulmonary embolism with pulmonary infarction (disorder)","userSelected":true}]},"subject":{"reference":"Patient/3d5a301e-9a14-41d1-8d09-dda738cc761e"},"recordedDate":"2025-09-09T08:00:00.000+00:00"},"request":{"method":"PUT","url":"Condition/8249a2e7-f954-4108-81f2-8cd67d8aef59"}},{"fullUrl":"https://madie.cms.gov/Location/Location-1","resource":{"resourceType":"Location","id":"66cc90ed-d1b7-43ce-b8a7-011957757df9","meta":{"profile":["http://hl7.org/fhir/us/qicore/StructureDefinition/qicore-location"]},"identifier":[{"use":"usual","system":"http://exampleoflocation.com","value":"B1-S.F2"}],"name":"Medical Surgical East, first floor","type":[{"coding":[{"system":"https://www.cdc.gov/nhsn/cdaportal/terminology/codesystem/hsloc.html","code":"1025-6","display":"Trauma Critical Care","userSelected":true}]}]},"request":{"method":"PUT","url":"Location/66cc90ed-d1b7-43ce-b8a7-011957757df9"}},{"fullUrl":"https://madie.cms.gov/Organization/123456","resource":{"resourceType":"Organization","id":"4b5a882f-1f43-485c-85c6-f5ad2337d5b1","meta":{"profile":["http://hl7.org/fhir/us/qicore/StructureDefinition/qicore-organization"]},"identifier":[{"use":"temp","system":"urn:oid:2.16.840.1.113883.4.4","value":"21-3259825"}],"active":true,"type":[{"coding":[{"system":"http://terminology.hl7.org/CodeSystem/organization-type","code":"pay","display":"Payer"}]}],"name":"Blue Cross Blue Shield of Texas","telecom":[{"system":"phone","value":"(+1) 972-766-6900"}],"address":[{"use":"billing","type":"postal","line":["P.O. Box 660044"],"city":"Dallas","state":"TX","postalCode":"75266-0044","country":"USA"}]},"request":{"method":"PUT","url":"Organization/4b5a882f-1f43-485c-85c6-f5ad2337d5b1"}},{"fullUrl":"https://madie.cms.gov/Practitioner/practitioner-123456","resource":{"resourceType":"Practitioner","id":"c41a3e54-6006-4123-9b9a-251680c88699","identifier":[{"system":"http://hl7.org/fhir/sid/us-npi","value":"123456"}],"name":[{"family":"Evil","prefix":["Dr"]}]},"request":{"method":"PUT","url":"Practitioner/c41a3e54-6006-4123-9b9a-251680c88699"}},{"fullUrl":"https://madie.cms.gov/MeasureReport/95ec36e9-7536-4160-bb8f-4d495b339be9","resource":{"resourceType":"MeasureReport","id":"95ec36e9-7536-4160-bb8f-4d495b339be9","meta":{"profile":["http://hl7.org/fhir/us/cqfmeasures/StructureDefinition/test-case-cqfm"]},"contained":[{"resourceType":"Parameters","id":"1154660b-2108-43c5-8a5b-bd5b4eaa9907-parameters","parameter":[{"name":"subject","valueString":"3d5a301e-9a14-41d1-8d09-dda738cc761e"}]}],"extension":[{"url":"http://hl7.org/fhir/us/cqfmeasures/StructureDefinition/cqfm-inputParameters","valueReference":{"reference":"#1154660b-2108-43c5-8a5b-bd5b4eaa9907-parameters"}},{"url":"http://hl7.org/fhir/us/cqfmeasures/StructureDefinition/cqfm-testCaseDescription","valueMarkdown":"Encounter Dx of VTE\n"}],"modifierExtension":[{"url":"http://hl7.org/fhir/us/cqfmeasures/StructureDefinition/cqfm-isTestCase","valueBoolean":true}],"status":"complete","type":"individual","measure":"https://madie.cms.gov/Measure/IntensiveCareUnitVenousThromboembolismProphylaxisFHIR","period":{"start":"2025-01-01","end":"2025-12-31"},"group":[{"population":[{"code":{"coding":[{"system":"http://terminology.hl7.org/CodeSystem/measure-population","code":"initial-population","display":"Initial Population"}]},"count":0},{"code":{"coding":[{"system":"http://terminology.hl7.org/CodeSystem/measure-population","code":"denominator","display":"Denominator"}]},"count":0},{"code":{"coding":[{"system":"http://terminology.hl7.org/CodeSystem/measure-population","code":"denominator-exclusion","display":"Denominator Exclusion"}]},"count":0},{"code":{"coding":[{"system":"http://terminology.hl7.org/CodeSystem/measure-population","code":"numerator","display":"Numerator"}]},"count":0},{"code":{"coding":[{"system":"http://terminology.hl7.org/CodeSystem/measure-population","code":"denominator-exception","display":"Denominator Exception"}]},"count":0}]}]},"request":{"method":"PUT","url":"MeasureReport/95ec36e9-7536-4160-bb8f-4d495b339be9"}}]}