{
  "resourceType": "Bundle",
  "id": "46313213416131",
  "type": "transaction",
  "entry": [ {
    "fullUrl": "https://madie.cms.gov/Patient/252157d1-0329-4daf-99b1-c66d4a24a6ca",
    "resource": {
      "resourceType": "Patient",
      "id": "252157d1-0329-4daf-99b1-c66d4a24a6ca",
      "meta": {
        "profile": [ "http://hl7.org/fhir/us/qicore/StructureDefinition/qicore-patient" ]
      },
      "extension": [ {
        "url": "http://hl7.org/fhir/us/core/StructureDefinition/us-core-race",
        "extension": [ {
          "url": "ombCategory",
          "valueCoding": {
            "system": "urn:oid:2.16.840.1.113883.6.238",
            "code": "2076-8",
            "display": "Native Hawaiian or Other Pacific Islander"
          }
        }, {
          "url": "text",
          "valueString": "Native Hawaiian or Other Pacific Islander"
        } ]
      }, {
        "url": "http://hl7.org/fhir/us/core/StructureDefinition/us-core-ethnicity",
        "extension": [ {
          "url": "ombCategory",
          "valueCoding": {
            "system": "urn:oid:2.16.840.1.113883.6.238",
            "code": "2186-5",
            "display": "Not Hispanic or Latino"
          }
        }, {
          "url": "text",
          "valueString": "Not Hispanic or Latino"
        } ]
      } ],
      "identifier": [ {
        "type": {
          "coding": [ {
            "system": "http://terminology.hl7.org/CodeSystem/v2-0203",
            "code": "MR"
          } ]
        },
        "system": "https://bonnie-fhir.healthit.gov/",
        "value": "46431231346541"
      } ],
      "active": true,
      "name": [ {
        "use": "usual",
        "family": "DENOMEXCEPFail",
        "given": [ "ArrthymiaDxAfterLastEnc" ]
      } ],
      "gender": "male",
      "birthDate": "1971-12-30"
    },
    "request": {
      "method": "POST",
      "url": "Patient/252157d1-0329-4daf-99b1-c66d4a24a6ca"
    }
  }, {
    "fullUrl": "https://madie.cms.gov/Encounter/5c954de8b848462de0ae7670",
    "resource": {
      "resourceType": "Encounter",
      "id": "5c954de8b848462de0ae7670",
      "meta": {
        "profile": [ "http://hl7.org/fhir/us/qicore/StructureDefinition/qicore-encounter" ]
      },
      "status": "finished",
      "class": {
        "system": "http://terminology.hl7.org/CodeSystem/v3-ActCode",
        "code": "AMB",
        "display": "ambulatory"
      },
      "type": [ {
        "coding": [ {
          "system": "http://www.ama-assn.org/go/cpt",
          "version": "2024",
          "code": "99213"
        } ]
      } ],
      "subject": {
        "reference": "Patient/252157d1-0329-4daf-99b1-c66d4a24a6ca"
      },
      "period": {
        "start": "2025-04-14T14:40:00.000+00:00",
        "end": "2025-04-14T14:50:00.000+00:00"
      },
      "length": {
        "value": 0,
        "unit": "days"
      }
    },
    "request": {
      "method": "POST",
      "url": "Encounter/5c954de8b848462de0ae7670"
    }
  }, {
    "fullUrl": "https://madie.cms.gov/Encounter/5c954de8b848462de0ae7671",
    "resource": {
      "resourceType": "Encounter",
      "id": "5c954de8b848462de0ae7671",
      "meta": {
        "profile": [ "http://hl7.org/fhir/us/qicore/StructureDefinition/qicore-encounter" ]
      },
      "status": "finished",
      "class": {
        "system": "http://terminology.hl7.org/CodeSystem/v3-ActCode",
        "code": "AMB",
        "display": "ambulatory"
      },
      "type": [ {
        "coding": [ {
          "system": "http://www.ama-assn.org/go/cpt",
          "version": "2024",
          "code": "99212"
        } ]
      } ],
      "subject": {
        "reference": "Patient/252157d1-0329-4daf-99b1-c66d4a24a6ca"
      },
      "period": {
        "start": "2025-07-20T11:50:00+00:00",
        "end": "2025-07-20T11:50:00+00:00"
      },
      "length": {
        "value": 0,
        "unit": "days"
      }
    },
    "request": {
      "method": "POST",
      "url": "Encounter/5c954de8b848462de0ae7671"
    }
  }, {
    "fullUrl": "https://madie.cms.gov/Condition/5c954de8b848462de0ae766e",
    "resource": {
      "resourceType": "Condition",
      "id": "5c954de8b848462de0ae766e",
      "meta": {
        "profile": [ "http://hl7.org/fhir/us/qicore/StructureDefinition/qicore-condition" ]
      },
      "clinicalStatus": {
        "coding": [ {
          "system": "http://terminology.hl7.org/CodeSystem/condition-clinical",
          "code": "active",
          "display": "Active"
        } ]
      },
      "verificationStatus": {
        "coding": [ {
          "system": "http://terminology.hl7.org/CodeSystem/condition-ver-status",
          "code": "confirmed",
          "display": "Confirmed"
        } ]
      },
      "category": [ {
        "coding": [ {
          "system": "http://terminology.hl7.org/CodeSystem/condition-category",
          "code": "problem-list-item",
          "display": "Problem List Item"
        } ]
      } ],
      "code": {
        "coding": [ {
          "system": "http://hl7.org/fhir/sid/icd-10-cm",
          "version": "2024",
          "code": "I11.0"
        } ]
      },
      "subject": {
        "reference": "Patient/252157d1-0329-4daf-99b1-c66d4a24a6ca"
      },
      "onsetPeriod": {
        "start": "2025-04-11T10:00:00+00:00"
      }
    },
    "request": {
      "method": "POST",
      "url": "Condition/5c954de8b848462de0ae766e"
    }
  }, {
    "fullUrl": "https://madie.cms.gov/Condition/32000132",
    "resource": {
      "resourceType": "Condition",
      "id": "32000132",
      "meta": {
        "profile": [ "http://hl7.org/fhir/us/qicore/StructureDefinition/qicore-condition" ]
      },
      "clinicalStatus": {
        "coding": [ {
          "system": "http://terminology.hl7.org/CodeSystem/condition-clinical",
          "code": "active",
          "display": "Active"
        } ]
      },
      "verificationStatus": {
        "coding": [ {
          "system": "http://terminology.hl7.org/CodeSystem/condition-ver-status",
          "code": "confirmed",
          "display": "Confirmed"
        } ]
      },
      "category": [ {
        "coding": [ {
          "system": "http://terminology.hl7.org/CodeSystem/condition-category",
          "code": "problem-list-item",
          "display": "Problem List Item"
        } ]
      } ],
      "severity": {
        "coding": [ {
          "system": "http://snomed.info/sct",
          "version": "http://snomed.info/sct/731000124108/version/20240301",
          "code": "24484000",
          "display": "Severe (severity modifier) (qualifier value)"
        } ]
      },
      "code": {
        "coding": [ {
          "system": "http://snomed.info/sct",
          "version": "http://snomed.info/sct/731000124108/version/20240301",
          "code": "134401001",
          "display": "Left ventricular systolic dysfunction (disorder)"
        } ]
      },
      "subject": {
        "reference": "Patient/252157d1-0329-4daf-99b1-c66d4a24a6ca"
      },
      "onsetPeriod": {
        "start": "2025-04-14T14:41:00.000+00:00"
      }
    },
    "request": {
      "method": "POST",
      "url": "Condition/32000132"
    }
  }, {
    "fullUrl": "https://madie.cms.gov/Condition/137500012",
    "resource": {
      "resourceType": "Condition",
      "id": "137500012",
      "meta": {
        "profile": [ "http://hl7.org/fhir/us/qicore/StructureDefinition/qicore-condition" ]
      },
      "clinicalStatus": {
        "coding": [ {
          "system": "http://terminology.hl7.org/CodeSystem/condition-clinical",
          "code": "active",
          "display": "Active"
        } ]
      },
      "verificationStatus": {
        "coding": [ {
          "system": "http://terminology.hl7.org/CodeSystem/condition-ver-status",
          "code": "confirmed",
          "display": "Confirmed"
        } ]
      },
      "category": [ {
        "coding": [ {
          "system": "http://terminology.hl7.org/CodeSystem/condition-category",
          "code": "problem-list-item",
          "display": "Problem List Item"
        } ]
      } ],
      "code": {
        "coding": [ {
          "system": "http://snomed.info/sct",
          "version": "http://snomed.info/sct/731000124108/version/20240301",
          "code": "17366009",
          "display": "Atrial arrhythmia (disorder)"
        } ]
      },
      "subject": {
        "reference": "Patient/252157d1-0329-4daf-99b1-c66d4a24a6ca"
      },
      "onsetPeriod": {
        "start": "2025-10-20T14:32:00.000+00:00"
      }
    },
    "request": {
      "method": "POST",
      "url": "Condition/137500012"
    }
  }, {
    "fullUrl": "https://madie.cms.gov/MeasureReport/5442214f-4c38-4bc1-b8c4-6fcf0391f79e",
    "resource": {
      "resourceType": "MeasureReport",
      "id": "5442214f-4c38-4bc1-b8c4-6fcf0391f79e",
      "meta": {
        "profile": [ "http://hl7.org/fhir/us/cqfmeasures/StructureDefinition/test-case-cqfm" ]
      },
      "contained": [ {
        "resourceType": "Parameters",
        "id": "44721733-a8b5-47d3-99ee-24da494fc876-parameters",
        "parameter": [ {
          "name": "subject",
          "valueString": "252157d1-0329-4daf-99b1-c66d4a24a6ca"
        } ]
      } ],
      "extension": [ {
        "url": "http://hl7.org/fhir/us/cqfmeasures/StructureDefinition/cqfm-inputParameters",
        "valueReference": {
          "reference": "#44721733-a8b5-47d3-99ee-24da494fc876-parameters"
        }
      }, {
        "url": "http://hl7.org/fhir/us/cqfmeasures/StructureDefinition/cqfm-testCaseDescription",
        "valueMarkdown": "Patient does not qualify for denominator exception because diagnosis of arrthymia is after last Encounter"
      } ],
      "modifierExtension": [ {
        "url": "http://hl7.org/fhir/us/cqfmeasures/StructureDefinition/cqfm-isTestCase",
        "valueBoolean": true
      } ],
      "status": "complete",
      "type": "individual",
      "measure": "https://madie.cms.gov/Measure/HFBetaBlockerTherapyforLVSDFHIR",
      "period": {
        "start": "2025-01-01",
        "end": "2025-12-31"
      },
      "group": [ {
        "population": [ {
          "code": {
            "coding": [ {
              "system": "http://terminology.hl7.org/CodeSystem/measure-population",
              "code": "initial-population",
              "display": "Initial Population"
            } ]
          },
          "count": 1
        }, {
          "code": {
            "coding": [ {
              "system": "http://terminology.hl7.org/CodeSystem/measure-population",
              "code": "denominator",
              "display": "Denominator"
            } ]
          },
          "count": 1
        }, {
          "code": {
            "coding": [ {
              "system": "http://terminology.hl7.org/CodeSystem/measure-population",
              "code": "denominator-exclusion",
              "display": "Denominator Exclusion"
            } ]
          },
          "count": 0
        }, {
          "code": {
            "coding": [ {
              "system": "http://terminology.hl7.org/CodeSystem/measure-population",
              "code": "numerator",
              "display": "Numerator"
            } ]
          },
          "count": 0
        }, {
          "code": {
            "coding": [ {
              "system": "http://terminology.hl7.org/CodeSystem/measure-population",
              "code": "denominator-exception",
              "display": "Denominator Exception"
            } ]
          },
          "count": 0
        } ]
      } ],
      "evaluatedResource": [ {
        "reference": "https://madie.cms.gov/Patient/252157d1-0329-4daf-99b1-c66d4a24a6ca"
      }, {
        "reference": "https://madie.cms.gov/Encounter/5c954de8b848462de0ae7670"
      }, {
        "reference": "https://madie.cms.gov/Encounter/5c954de8b848462de0ae7671"
      }, {
        "reference": "https://madie.cms.gov/Condition/5c954de8b848462de0ae766e"
      }, {
        "reference": "https://madie.cms.gov/Condition/32000132"
      }, {
        "reference": "https://madie.cms.gov/Condition/137500012"
      } ]
    },
    "request": {
      "method": "POST",
      "url": "MeasureReport/5442214f-4c38-4bc1-b8c4-6fcf0391f79e"
    }
  } ]
}