{
  "resourceType": "Bundle",
  "id": "617b1065513b5d1ee28b7579",
  "type": "transaction",
  "entry": [ {
    "fullUrl": "https://madie.cms.gov/Patient/c3e9651c-c028-4034-86b7-bbe5a0dd9567",
    "resource": {
      "resourceType": "Patient",
      "id": "c3e9651c-c028-4034-86b7-bbe5a0dd9567",
      "meta": {
        "profile": [ "http://hl7.org/fhir/us/qicore/StructureDefinition/qicore-patient" ]
      },
      "extension": [ {
        "url": "http://hl7.org/fhir/us/core/StructureDefinition/us-core-race",
        "extension": [ {
          "url": "ombCategory",
          "valueCoding": {
            "system": "urn:oid:2.16.840.1.113883.6.238",
            "code": "2076-8",
            "display": "Native Hawaiian or Other Pacific Islander",
            "userSelected": true
          }
        }, {
          "url": "text",
          "valueString": "Native Hawaiian or Other Pacific Islander"
        } ]
      }, {
        "url": "http://hl7.org/fhir/us/core/StructureDefinition/us-core-ethnicity",
        "extension": [ {
          "url": "ombCategory",
          "valueCoding": {
            "system": "urn:oid:2.16.840.1.113883.6.238",
            "code": "2186-5",
            "display": "Not Hispanic or Latino",
            "userSelected": true
          }
        }, {
          "url": "text",
          "valueString": "Not Hispanic or Latino"
        } ]
      } ],
      "identifier": [ {
        "type": {
          "coding": [ {
            "system": "http://terminology.hl7.org/CodeSystem/v2-0203",
            "code": "MR"
          } ]
        },
        "system": "https://bonnie-fhir.healthit.gov/",
        "value": "617b1065513b5d1ee28b7579"
      } ],
      "name": [ {
        "family": "DenExcl4Fail",
        "given": [ "DxStartsDuringEndsDuringED" ]
      } ],
      "gender": "male",
      "birthDate": "1984-12-02"
    },
    "request": {
      "method": "POST",
      "url": "Patient/c3e9651c-c028-4034-86b7-bbe5a0dd9567"
    }
  }, {
    "fullUrl": "https://madie.cms.gov/Encounter/emergency-department-visit-330a",
    "resource": {
      "resourceType": "Encounter",
      "id": "emergency-department-visit-330a",
      "meta": {
        "profile": [ "http://hl7.org/fhir/us/qicore/StructureDefinition/qicore-encounter" ]
      },
      "status": "finished",
      "class": {
        "system": "http://terminology.hl7.org/CodeSystem/v3-ActCode",
        "code": "EMER",
        "display": "emergency",
        "userSelected": true
      },
      "type": [ {
        "coding": [ {
          "system": "http://snomed.info/sct",
          "version": "2020-09",
          "code": "4525004",
          "display": "Emergency department patient visit (procedure)",
          "userSelected": true
        } ]
      } ],
      "subject": {
        "reference": "Patient/c3e9651c-c028-4034-86b7-bbe5a0dd9567"
      },
      "period": {
        "start": "2025-10-09T08:05:00.000+00:00",
        "end": "2025-10-10T07:15:00.000+00:00"
      }
    },
    "request": {
      "method": "POST",
      "url": "Encounter/emergency-department-visit-330a"
    }
  }, {
    "fullUrl": "https://madie.cms.gov/Condition/stemi-330b",
    "resource": {
      "resourceType": "Condition",
      "id": "stemi-330b",
      "meta": {
        "profile": [ "http://hl7.org/fhir/us/qicore/StructureDefinition/qicore-condition" ]
      },
      "clinicalStatus": {
        "coding": [ {
          "system": "http://terminology.hl7.org/CodeSystem/condition-clinical",
          "code": "active",
          "display": "active",
          "userSelected": true
        } ]
      },
      "category": [ {
        "coding": [ {
          "system": "http://terminology.hl7.org/CodeSystem/condition-category",
          "code": "encounter-diagnosis",
          "display": "Encounter Diagnosis",
          "userSelected": true
        } ]
      } ],
      "code": {
        "coding": [ {
          "system": "http://snomed.info/sct",
          "version": "2020-09",
          "code": "401303003",
          "display": "Acute ST segment elevation myocardial infarction (disorder)",
          "userSelected": true
        } ]
      },
      "subject": {
        "reference": "Patient/c3e9651c-c028-4034-86b7-bbe5a0dd9567"
      },
      "onsetDateTime": "2025-10-09T08:30:00.000+00:00"
    },
    "request": {
      "method": "POST",
      "url": "Condition/stemi-330b"
    }
  }, {
    "fullUrl": "https://madie.cms.gov/Condition/cerebral-vascular-lesion-757a",
    "resource": {
      "resourceType": "Condition",
      "id": "cerebral-vascular-lesion-757a",
      "meta": {
        "profile": [ "http://hl7.org/fhir/us/qicore/StructureDefinition/qicore-condition" ]
      },
      "clinicalStatus": {
        "coding": [ {
          "system": "http://terminology.hl7.org/CodeSystem/condition-clinical",
          "version": "4.0.1",
          "code": "inactive",
          "display": "Inactive",
          "userSelected": true
        } ]
      },
      "category": [ {
        "coding": [ {
          "system": "http://terminology.hl7.org/CodeSystem/condition-category",
          "code": "encounter-diagnosis",
          "display": "Encounter Diagnosis",
          "userSelected": true
        } ]
      } ],
      "code": {
        "coding": [ {
          "system": "http://snomed.info/sct",
          "version": "2020-09",
          "code": "204493007",
          "display": "Arteriovenous malformation of precerebral vessels (disorder)",
          "userSelected": true
        } ]
      },
      "subject": {
        "reference": "Patient/c3e9651c-c028-4034-86b7-bbe5a0dd9567"
      },
      "onsetDateTime": "2025-10-09T08:09:00.000+00:00",
      "abatementDateTime": "2025-10-10T01:15:00.000+00:00"
    },
    "request": {
      "method": "POST",
      "url": "Condition/cerebral-vascular-lesion-757a"
    }
  }, {
    "fullUrl": "https://madie.cms.gov/MeasureReport/984a81ff-0416-4bb4-bf72-6fc8016414d3",
    "resource": {
      "resourceType": "MeasureReport",
      "id": "984a81ff-0416-4bb4-bf72-6fc8016414d3",
      "meta": {
        "profile": [ "http://hl7.org/fhir/us/cqfmeasures/StructureDefinition/test-case-cqfm" ]
      },
      "contained": [ {
        "resourceType": "Parameters",
        "id": "471685ce-dab3-4df7-b1bc-dc9f3083c56b-parameters",
        "parameter": [ {
          "name": "subject",
          "valueString": "c3e9651c-c028-4034-86b7-bbe5a0dd9567"
        } ]
      } ],
      "extension": [ {
        "url": "http://hl7.org/fhir/us/cqfmeasures/StructureDefinition/cqfm-inputParameters",
        "valueReference": {
          "reference": "#471685ce-dab3-4df7-b1bc-dc9f3083c56b-parameters"
        }
      }, {
        "url": "http://hl7.org/fhir/us/cqfmeasures/StructureDefinition/cqfm-testCaseDescription",
        "valueMarkdown": "Patient has cerebral vascular lesion (exclusion dx) starts during ED and ends during ED"
      } ],
      "modifierExtension": [ {
        "url": "http://hl7.org/fhir/us/cqfmeasures/StructureDefinition/cqfm-isTestCase",
        "valueBoolean": true
      } ],
      "status": "complete",
      "type": "individual",
      "measure": "https://madie.cms.gov/Measure/AppropriateTreatmentforSTEMIFHIR",
      "period": {
        "start": "2025-01-01",
        "end": "2025-12-31"
      },
      "group": [ {
        "population": [ {
          "code": {
            "coding": [ {
              "system": "http://terminology.hl7.org/CodeSystem/measure-population",
              "code": "initial-population",
              "display": "Initial Population"
            } ]
          },
          "count": 1
        }, {
          "code": {
            "coding": [ {
              "system": "http://terminology.hl7.org/CodeSystem/measure-population",
              "code": "denominator",
              "display": "Denominator"
            } ]
          },
          "count": 1
        }, {
          "code": {
            "coding": [ {
              "system": "http://terminology.hl7.org/CodeSystem/measure-population",
              "code": "denominator-exclusion",
              "display": "Denominator Exclusion"
            } ]
          },
          "count": 0
        }, {
          "code": {
            "coding": [ {
              "system": "http://terminology.hl7.org/CodeSystem/measure-population",
              "code": "numerator",
              "display": "Numerator"
            } ]
          },
          "count": 0
        }, {
          "code": {
            "coding": [ {
              "system": "http://terminology.hl7.org/CodeSystem/measure-population",
              "code": "denominator-exception",
              "display": "Denominator Exception"
            } ]
          },
          "count": 0
        } ]
      } ],
      "evaluatedResource": [ {
        "reference": "Patient/c3e9651c-c028-4034-86b7-bbe5a0dd9567"
      }, {
        "reference": "Encounter/emergency-department-visit-330a"
      }, {
        "reference": "Condition/stemi-330b"
      }, {
        "reference": "Condition/cerebral-vascular-lesion-757a"
      } ]
    },
    "request": {
      "method": "POST",
      "url": "MeasureReport/984a81ff-0416-4bb4-bf72-6fc8016414d3"
    }
  } ]
}