{
  "resourceType": "Bundle",
  "id": "NUMERFail-TwoPROMIS10WithNoResults",
  "type": "transaction",
  "entry": [ {
    "fullUrl": "https://madie.cms.gov/Patient/9f1387b4-a14b-4ac6-b319-3f006e436516",
    "resource": {
      "resourceType": "Patient",
      "id": "9f1387b4-a14b-4ac6-b319-3f006e436516",
      "meta": {
        "profile": [ "http://hl7.org/fhir/us/qicore/StructureDefinition/qicore-patient" ]
      },
      "extension": [ {
        "url": "http://hl7.org/fhir/us/core/StructureDefinition/us-core-race",
        "extension": [ {
          "url": "ombCategory",
          "valueCoding": {
            "system": "urn:oid:2.16.840.1.113883.6.238",
            "code": "2028-9",
            "display": "Asian"
          }
        }, {
          "url": "text",
          "valueString": "Asian"
        } ]
      }, {
        "url": "http://hl7.org/fhir/us/core/StructureDefinition/us-core-ethnicity",
        "extension": [ {
          "url": "ombCategory",
          "valueCoding": {
            "system": "urn:oid:2.16.840.1.113883.6.238",
            "code": "2135-2",
            "display": "Hispanic or Latino"
          }
        }, {
          "url": "text",
          "valueString": "Hispanic or Latino"
        } ]
      } ],
      "identifier": [ {
        "system": "http://hospital.smarthealthit.org",
        "value": "999999995"
      } ],
      "name": [ {
        "family": "Bertha",
        "given": [ "Betty" ]
      } ],
      "gender": "female",
      "birthDate": "2007-01-01"
    },
    "request": {
      "method": "POST",
      "url": "Patient/9f1387b4-a14b-4ac6-b319-3f006e436516"
    }
  }, {
    "fullUrl": "https://madie.cms.gov/Encounter/Encounter-11",
    "resource": {
      "resourceType": "Encounter",
      "id": "Encounter-11",
      "meta": {
        "profile": [ "http://hl7.org/fhir/us/qicore/StructureDefinition/qicore-encounter" ]
      },
      "status": "finished",
      "class": {
        "system": "http://terminology.hl7.org/CodeSystem/v3-ActCode",
        "code": "AMB",
        "display": "ambulatory"
      },
      "type": [ {
        "coding": [ {
          "system": "http://snomed.info/sct",
          "code": "185317003",
          "display": "Telephone encounter (procedure)"
        } ]
      } ],
      "subject": {
        "reference": "Patient/9f1387b4-a14b-4ac6-b319-3f006e436516"
      },
      "period": {
        "start": "2025-01-01T01:00:00.000Z",
        "end": "2025-01-01T01:15:00.000Z"
      }
    },
    "request": {
      "method": "POST",
      "url": "Encounter/Encounter-11"
    }
  }, {
    "fullUrl": "https://madie.cms.gov/Encounter/Encounter-12",
    "resource": {
      "resourceType": "Encounter",
      "id": "Encounter-12",
      "meta": {
        "profile": [ "http://hl7.org/fhir/us/qicore/StructureDefinition/qicore-encounter" ]
      },
      "status": "finished",
      "class": {
        "system": "http://terminology.hl7.org/CodeSystem/v3-ActCode",
        "code": "AMB",
        "display": "ambulatory"
      },
      "type": [ {
        "coding": [ {
          "system": "http://snomed.info/sct",
          "code": "185317003",
          "display": "Telephone encounter (procedure)"
        } ]
      } ],
      "subject": {
        "reference": "Patient/9f1387b4-a14b-4ac6-b319-3f006e436516"
      },
      "period": {
        "start": "2025-01-02T01:00:00.000Z",
        "end": "2025-01-02T01:15:00.000Z"
      }
    },
    "request": {
      "method": "POST",
      "url": "Encounter/Encounter-12"
    }
  }, {
    "fullUrl": "https://madie.cms.gov/Condition/Condition-5",
    "resource": {
      "resourceType": "Condition",
      "id": "Condition-5",
      "meta": {
        "profile": [ "http://hl7.org/fhir/us/qicore/StructureDefinition/qicore-condition" ]
      },
      "clinicalStatus": {
        "coding": [ {
          "system": "http://terminology.hl7.org/CodeSystem/condition-clinical",
          "code": "active"
        } ]
      },
      "category": [ {
        "coding": [ {
          "system": "http://terminology.hl7.org/CodeSystem/condition-category",
          "code": "problem-list-item",
          "display": "Problem List Item"
        } ]
      } ],
      "code": {
        "coding": [ {
          "system": "http://snomed.info/sct",
          "code": "10091002",
          "display": "High output heart failure (disorder)"
        } ]
      },
      "subject": {
        "reference": "Patient/9f1387b4-a14b-4ac6-b319-3f006e436516"
      },
      "onsetDateTime": "2024-12-31T23:59:00.000Z"
    },
    "request": {
      "method": "POST",
      "url": "Condition/Condition-5"
    }
  }, {
    "fullUrl": "https://madie.cms.gov/Observation/Observation-1",
    "resource": {
      "resourceType": "Observation",
      "id": "Observation-1",
      "meta": {
        "profile": [ "http://hl7.org/fhir/us/qicore/StructureDefinition/qicore-observation" ]
      },
      "status": "corrected",
      "category": [ {
        "coding": [ {
          "system": "http://terminology.hl7.org/CodeSystem/observation-category",
          "code": "laboratory"
        } ]
      } ],
      "code": {
        "coding": [ {
          "system": "http://loinc.org",
          "code": "71969-0",
          "display": "PROMIS-10 Global Mental Health (GMH) score T-score"
        } ]
      },
      "subject": {
        "reference": "Patient/9f1387b4-a14b-4ac6-b319-3f006e436516"
      },
      "effectivePeriod": {
        "start": "2020-12-31T23:00:00.000Z",
        "end": "2020-12-31T23:59:00.000Z"
      }
    },
    "request": {
      "method": "POST",
      "url": "Observation/Observation-1"
    }
  }, {
    "fullUrl": "https://madie.cms.gov/Observation/Observation-2",
    "resource": {
      "resourceType": "Observation",
      "id": "Observation-2",
      "meta": {
        "profile": [ "http://hl7.org/fhir/us/qicore/StructureDefinition/qicore-observation" ]
      },
      "status": "corrected",
      "category": [ {
        "coding": [ {
          "system": "http://terminology.hl7.org/CodeSystem/observation-category",
          "code": "laboratory"
        } ]
      } ],
      "code": {
        "coding": [ {
          "system": "http://loinc.org",
          "code": "71971-6",
          "display": "PROMIS-10 Global Physical Health (GPH) score T-score"
        } ]
      },
      "subject": {
        "reference": "Patient/9f1387b4-a14b-4ac6-b319-3f006e436516"
      },
      "effectivePeriod": {
        "start": "2020-12-31T23:00:00.000Z",
        "end": "2020-12-31T23:59:00.000Z"
      }
    },
    "request": {
      "method": "POST",
      "url": "Observation/Observation-2"
    }
  }, {
    "fullUrl": "https://madie.cms.gov/Observation/Observation-3",
    "resource": {
      "resourceType": "Observation",
      "id": "Observation-3",
      "meta": {
        "profile": [ "http://hl7.org/fhir/us/qicore/StructureDefinition/qicore-observation" ]
      },
      "status": "corrected",
      "category": [ {
        "coding": [ {
          "system": "http://terminology.hl7.org/CodeSystem/observation-category",
          "code": "laboratory"
        } ]
      } ],
      "code": {
        "coding": [ {
          "system": "http://loinc.org",
          "code": "71969-0",
          "display": "PROMIS-10 Global Mental Health (GMH) score T-score"
        } ]
      },
      "subject": {
        "reference": "Patient/9f1387b4-a14b-4ac6-b319-3f006e436516"
      },
      "effectivePeriod": {
        "start": "2025-04-05T23:00:00.000Z",
        "end": "2025-04-05T23:59:00.000Z"
      }
    },
    "request": {
      "method": "POST",
      "url": "Observation/Observation-3"
    }
  }, {
    "fullUrl": "https://madie.cms.gov/Observation/Observation-4",
    "resource": {
      "resourceType": "Observation",
      "id": "Observation-4",
      "meta": {
        "profile": [ "http://hl7.org/fhir/us/qicore/StructureDefinition/qicore-observation" ]
      },
      "status": "corrected",
      "category": [ {
        "coding": [ {
          "system": "http://terminology.hl7.org/CodeSystem/observation-category",
          "code": "laboratory"
        } ]
      } ],
      "code": {
        "coding": [ {
          "system": "http://loinc.org",
          "code": "71971-6",
          "display": "PROMIS-10 Global Physical Health (GPH) score T-score"
        } ]
      },
      "subject": {
        "reference": "Patient/9f1387b4-a14b-4ac6-b319-3f006e436516"
      },
      "effectivePeriod": {
        "start": "2020-12-31T23:00:00.000Z",
        "end": "2020-12-31T23:59:00.000Z"
      }
    },
    "request": {
      "method": "POST",
      "url": "Observation/Observation-4"
    }
  }, {
    "fullUrl": "https://madie.cms.gov/MeasureReport/ec5f0a99-fce6-4b47-8398-e4e3a1318184",
    "resource": {
      "resourceType": "MeasureReport",
      "id": "ec5f0a99-fce6-4b47-8398-e4e3a1318184",
      "meta": {
        "profile": [ "http://hl7.org/fhir/us/cqfmeasures/StructureDefinition/test-case-cqfm" ]
      },
      "contained": [ {
        "resourceType": "Parameters",
        "id": "d25f1b95-d5c2-43c3-bc93-e7eb10b67551-parameters",
        "parameter": [ {
          "name": "subject",
          "valueString": "9f1387b4-a14b-4ac6-b319-3f006e436516"
        } ]
      } ],
      "extension": [ {
        "url": "http://hl7.org/fhir/us/cqfmeasures/StructureDefinition/cqfm-inputParameters",
        "valueReference": {
          "reference": "#d25f1b95-d5c2-43c3-bc93-e7eb10b67551-parameters"
        }
      }, {
        "url": "http://hl7.org/fhir/us/cqfmeasures/StructureDefinition/cqfm-testCaseDescription",
        "valueMarkdown": "Patient has all PROMIS10 Assessments during the correct timeframe but all FSA are missing results."
      } ],
      "modifierExtension": [ {
        "url": "http://hl7.org/fhir/us/cqfmeasures/StructureDefinition/cqfm-isTestCase",
        "valueBoolean": true
      } ],
      "status": "complete",
      "type": "individual",
      "measure": "https://madie.cms.gov/Measure/FunctionalStatusAssessmentsforHeartFailureFHIR",
      "period": {
        "start": "2025-01-01",
        "end": "2025-12-31"
      },
      "group": [ {
        "population": [ {
          "code": {
            "coding": [ {
              "system": "http://terminology.hl7.org/CodeSystem/measure-population",
              "code": "initial-population",
              "display": "Initial Population"
            } ]
          },
          "count": 1
        }, {
          "code": {
            "coding": [ {
              "system": "http://terminology.hl7.org/CodeSystem/measure-population",
              "code": "denominator",
              "display": "Denominator"
            } ]
          },
          "count": 1
        }, {
          "code": {
            "coding": [ {
              "system": "http://terminology.hl7.org/CodeSystem/measure-population",
              "code": "denominator-exclusion",
              "display": "Denominator Exclusion"
            } ]
          },
          "count": 0
        }, {
          "code": {
            "coding": [ {
              "system": "http://terminology.hl7.org/CodeSystem/measure-population",
              "code": "numerator",
              "display": "Numerator"
            } ]
          },
          "count": 0
        } ]
      } ],
      "evaluatedResource": [ {
        "reference": "https://madie.cms.gov/Patient/9f1387b4-a14b-4ac6-b319-3f006e436516"
      }, {
        "reference": "https://madie.cms.gov/Encounter/Encounter-11"
      }, {
        "reference": "https://madie.cms.gov/Encounter/Encounter-12"
      }, {
        "reference": "https://madie.cms.gov/Condition/Condition-5"
      }, {
        "reference": "https://madie.cms.gov/Observation/Observation-1"
      }, {
        "reference": "https://madie.cms.gov/Observation/Observation-2"
      }, {
        "reference": "https://madie.cms.gov/Observation/Observation-3"
      }, {
        "reference": "https://madie.cms.gov/Observation/Observation-4"
      } ]
    },
    "request": {
      "method": "POST",
      "url": "MeasureReport/ec5f0a99-fce6-4b47-8398-e4e3a1318184"
    }
  } ]
}