{"resourceType":"Bundle","id":"tests-0d087114-9d01-4e91-8851-cec99839723b-bundle","type":"transaction","entry":[{"fullUrl":"https://madie.cms.gov/Patient/0d087114-9d01-4e91-8851-cec99839723b","resource":{"resourceType":"Patient","id":"0d087114-9d01-4e91-8851-cec99839723b","meta":{"profile":["http://hl7.org/fhir/us/qicore/StructureDefinition/qicore-patient"]},"extension":[{"url":"http://hl7.org/fhir/us/core/StructureDefinition/us-core-race","extension":[{"url":"ombCategory","valueCoding":{"system":"urn:oid:2.16.840.1.113883.6.238","code":"2028-9","display":"Asian"}},{"url":"text","valueString":"Asian"}]},{"url":"http://hl7.org/fhir/us/core/StructureDefinition/us-core-ethnicity","extension":[{"url":"ombCategory","valueCoding":{"system":"urn:oid:2.16.840.1.113883.6.238","code":"2135-2","display":"Hispanic or Latino"}},{"url":"text","valueString":"Hispanic or Latino"}]}],"identifier":[{"system":"http://hospital.smarthealthit.org","value":"999999995"}],"name":[{"family":"Bertha","given":["Betty"]}],"gender":"female","birthDate":"2022-01-01"},"request":{"method":"PUT","url":"Patient/0d087114-9d01-4e91-8851-cec99839723b"}},{"fullUrl":"https://madie.cms.gov/Encounter/Encounter-1","resource":{"resourceType":"Encounter","id":"f8f180d2-6922-4ebe-b27d-8f4b9634d997","meta":{"profile":["http://hl7.org/fhir/us/qicore/StructureDefinition/qicore-encounter"]},"status":"finished","class":{"system":"http://terminology.hl7.org/CodeSystem/v3-ActCode","code":"AMB","display":"ambulatory"},"type":[{"coding":[{"system":"http://snomed.info/sct","code":"185317003","display":"Telephone encounter (procedure)"}]}],"subject":{"reference":"Patient/0d087114-9d01-4e91-8851-cec99839723b"},"period":{"start":"2025-01-02T00:00:00.000Z","end":"2025-01-02T01:15:00.000Z"}},"request":{"method":"PUT","url":"Encounter/f8f180d2-6922-4ebe-b27d-8f4b9634d997"}},{"fullUrl":"https://madie.cms.gov/MedicationRequest/MedicationRequest-1","resource":{"resourceType":"MedicationRequest","id":"b5cb5bc9-f52c-494e-b5d0-2a43e1d4cb6d","meta":{"profile":["http://hl7.org/fhir/us/qicore/StructureDefinition/qicore-medicationrequest"]},"status":"active","intent":"order","category":[{"coding":[{"system":"http://terminology.hl7.org/CodeSystem/medicationrequest-category","code":"discharge","display":"Discharge"}]}],"medicationCodeableConcept":{"coding":[{"system":"http://www.nlm.nih.gov/research/umls/rxnorm","code":"1043022","display":"cefixime 100 MG Chewable Tablet","userSelected":true}]},"subject":{"reference":"Patient/0d087114-9d01-4e91-8851-cec99839723b"},"authoredOn":"2025-01-04T00:00:00.000Z","requester":{"reference":"Practitioner/example"}},"request":{"method":"PUT","url":"MedicationRequest/b5cb5bc9-f52c-494e-b5d0-2a43e1d4cb6d"}},{"fullUrl":"https://madie.cms.gov/Condition/Condition-1","resource":{"resourceType":"Condition","id":"54d9b328-0fcf-4877-a317-aa6665af838d","meta":{"profile":["http://hl7.org/fhir/us/qicore/StructureDefinition/qicore-condition"]},"clinicalStatus":{"coding":[{"system":"http://terminology.hl7.org/CodeSystem/condition-clinical","code":"active"}]},"category":[{"coding":[{"system":"http://terminology.hl7.org/CodeSystem/condition-category","code":"problem-list-item","display":"Problem List Item"}]}],"code":{"coding":[{"system":"http://snomed.info/sct","code":"1532007","display":"Viral pharyngitis (disorder)"}]},"subject":{"reference":"Patient/0d087114-9d01-4e91-8851-cec99839723b"},"onsetDateTime":"2025-01-02T00:00:00.000Z"},"request":{"method":"PUT","url":"Condition/54d9b328-0fcf-4877-a317-aa6665af838d"}},{"fullUrl":"https://madie.cms.gov/MeasureReport/d78aeafa-724e-4acf-b42a-7a2c3c6fdb3b","resource":{"resourceType":"MeasureReport","id":"d78aeafa-724e-4acf-b42a-7a2c3c6fdb3b","meta":{"profile":["http://hl7.org/fhir/us/cqfmeasures/StructureDefinition/test-case-cqfm"]},"contained":[{"resourceType":"Parameters","id":"b53904db-35ba-45aa-8f2a-be1bcdbbcde7-parameters","parameter":[{"name":"subject","valueString":"0d087114-9d01-4e91-8851-cec99839723b"}]}],"extension":[{"url":"http://hl7.org/fhir/us/cqfmeasures/StructureDefinition/cqfm-inputParameters","valueReference":{"reference":"#b53904db-35ba-45aa-8f2a-be1bcdbbcde7-parameters"}},{"url":"http://hl7.org/fhir/us/cqfmeasures/StructureDefinition/cqfm-testCaseDescription","valueMarkdown":"Patient is 3 at the start pf the MP, has a qualifying ED encounter, and has pharyngitis with antibiotics"}],"modifierExtension":[{"url":"http://hl7.org/fhir/us/cqfmeasures/StructureDefinition/cqfm-isTestCase","valueBoolean":true}],"status":"complete","type":"individual","measure":"https://madie.cms.gov/Measure/AppropriateTestingforPharyngitisFHIR","period":{"start":"2025-01-01","end":"2025-12-31"},"group":[{"population":[{"code":{"coding":[{"system":"http://terminology.hl7.org/CodeSystem/measure-population","code":"initial-population","display":"Initial Population"}]},"count":1},{"code":{"coding":[{"system":"http://terminology.hl7.org/CodeSystem/measure-population","code":"denominator","display":"Denominator"}]},"count":1},{"code":{"coding":[{"system":"http://terminology.hl7.org/CodeSystem/measure-population","code":"denominator-exclusion","display":"Denominator Exclusion"}]},"count":0},{"code":{"coding":[{"system":"http://terminology.hl7.org/CodeSystem/measure-population","code":"numerator","display":"Numerator"}]},"count":0}]}]},"request":{"method":"PUT","url":"MeasureReport/d78aeafa-724e-4acf-b42a-7a2c3c6fdb3b"}}]}