{"resourceType":"Bundle","id":"tests-83b0a3c4-e2bc-457a-a536-6efef724e768-bundle","type":"transaction","entry":[{"fullUrl":"https://madie.cms.gov/Patient/83b0a3c4-e2bc-457a-a536-6efef724e768","resource":{"resourceType":"Patient","id":"83b0a3c4-e2bc-457a-a536-6efef724e768","meta":{"profile":["http://hl7.org/fhir/us/qicore/StructureDefinition/qicore-patient"]},"extension":[{"url":"http://hl7.org/fhir/us/core/StructureDefinition/us-core-race","extension":[{"url":"ombCategory","valueCoding":{"system":"urn:oid:2.16.840.1.113883.6.238","code":"2028-9","display":"Asian"}},{"url":"text","valueString":"Asian"}]},{"url":"http://hl7.org/fhir/us/core/StructureDefinition/us-core-ethnicity","extension":[{"url":"ombCategory","valueCoding":{"system":"urn:oid:2.16.840.1.113883.6.238","code":"2135-2","display":"Hispanic or Latino"}},{"url":"text","valueString":"Hispanic or Latino"}]}],"identifier":[{"system":"http://hospital.smarthealthit.org","value":"999999995"}],"name":[{"family":"Bertha","given":["Betty"]}],"gender":"female","birthDate":"2022-01-01"},"request":{"method":"PUT","url":"Patient/83b0a3c4-e2bc-457a-a536-6efef724e768"}},{"fullUrl":"https://madie.cms.gov/Encounter/Encounter-9","resource":{"resourceType":"Encounter","id":"d75e9996-bd2e-4e1a-8310-35d6b29c870b","meta":{"profile":["http://hl7.org/fhir/us/qicore/StructureDefinition/qicore-encounter"]},"status":"finished","class":{"system":"http://terminology.hl7.org/CodeSystem/v3-ActCode","code":"AMB","display":"ambulatory"},"type":[{"coding":[{"system":"http://snomed.info/sct","code":"185317003","display":"Telephone encounter (procedure)"}]}],"subject":{"reference":"Patient/83b0a3c4-e2bc-457a-a536-6efef724e768"},"period":{"start":"2025-01-02T00:00:00.000Z","end":"2025-01-02T01:15:00.000Z"}},"request":{"method":"PUT","url":"Encounter/d75e9996-bd2e-4e1a-8310-35d6b29c870b"}},{"fullUrl":"https://madie.cms.gov/MedicationRequest/MedicationRequest-9","resource":{"resourceType":"MedicationRequest","id":"0fb7534c-de8c-46c2-8fea-7f4a5fa56f8b","meta":{"profile":["http://hl7.org/fhir/us/qicore/StructureDefinition/qicore-medicationrequest"]},"status":"active","intent":"order","category":[{"coding":[{"system":"http://terminology.hl7.org/CodeSystem/medicationrequest-category","code":"discharge","display":"Discharge"}]}],"medicationCodeableConcept":{"coding":[{"system":"http://www.nlm.nih.gov/research/umls/rxnorm","code":"1043022","display":"cefixime 100 MG Chewable Tablet","userSelected":true}]},"subject":{"reference":"Patient/83b0a3c4-e2bc-457a-a536-6efef724e768"},"authoredOn":"2025-01-04T00:00:00.000Z","requester":{"reference":"Practitioner/example"}},"request":{"method":"PUT","url":"MedicationRequest/0fb7534c-de8c-46c2-8fea-7f4a5fa56f8b"}},{"fullUrl":"https://madie.cms.gov/Condition/Condition-9","resource":{"resourceType":"Condition","id":"b4706e6b-7399-4483-ad02-b880056df6ba","meta":{"profile":["http://hl7.org/fhir/us/qicore/StructureDefinition/qicore-condition"]},"clinicalStatus":{"coding":[{"system":"http://terminology.hl7.org/CodeSystem/condition-clinical","code":"active"}]},"category":[{"coding":[{"system":"http://terminology.hl7.org/CodeSystem/condition-category","code":"problem-list-item","display":"Problem List Item"}]}],"code":{"coding":[{"system":"http://snomed.info/sct","code":"1532007","display":"Viral pharyngitis (disorder)"}]},"subject":{"reference":"Patient/83b0a3c4-e2bc-457a-a536-6efef724e768"},"onsetDateTime":"2025-01-02T00:00:00.000Z"},"request":{"method":"PUT","url":"Condition/b4706e6b-7399-4483-ad02-b880056df6ba"}},{"fullUrl":"https://madie.cms.gov/Observation/Observation-9","resource":{"resourceType":"Observation","id":"68c8264f-a324-4cfa-a657-592543e2ac37","meta":{"profile":["http://hl7.org/fhir/us/qicore/StructureDefinition/qicore-observation"]},"status":"final","category":[{"coding":[{"system":"http://terminology.hl7.org/CodeSystem/observation-category","code":"laboratory","display":"Laboratory"}],"text":"Laboratory"}],"code":{"coding":[{"system":"http://loinc.org","code":"17898-8","display":"Bacteria identified in Throat by Aerobe culture"}]},"subject":{"reference":"Patient/83b0a3c4-e2bc-457a-a536-6efef724e768"},"effectiveDateTime":"2025-01-05T00:00:00.000Z","valueString":"Positive"},"request":{"method":"PUT","url":"Observation/68c8264f-a324-4cfa-a657-592543e2ac37"}},{"fullUrl":"https://madie.cms.gov/MeasureReport/1bb8881a-0941-479a-a496-4cd49727bf60","resource":{"resourceType":"MeasureReport","id":"1bb8881a-0941-479a-a496-4cd49727bf60","meta":{"profile":["http://hl7.org/fhir/us/cqfmeasures/StructureDefinition/test-case-cqfm"]},"contained":[{"resourceType":"Parameters","id":"5128942c-accd-4f2f-8e29-c3fcfadba5ed-parameters","parameter":[{"name":"subject","valueString":"83b0a3c4-e2bc-457a-a536-6efef724e768"}]}],"extension":[{"url":"http://hl7.org/fhir/us/cqfmeasures/StructureDefinition/cqfm-inputParameters","valueReference":{"reference":"#5128942c-accd-4f2f-8e29-c3fcfadba5ed-parameters"}},{"url":"http://hl7.org/fhir/us/cqfmeasures/StructureDefinition/cqfm-testCaseDescription","valueMarkdown":"Strep lab result 3 days after qualifying encounter"}],"modifierExtension":[{"url":"http://hl7.org/fhir/us/cqfmeasures/StructureDefinition/cqfm-isTestCase","valueBoolean":true}],"status":"complete","type":"individual","measure":"https://madie.cms.gov/Measure/AppropriateTestingforPharyngitisFHIR","period":{"start":"2025-01-01","end":"2025-12-31"},"group":[{"population":[{"code":{"coding":[{"system":"http://terminology.hl7.org/CodeSystem/measure-population","code":"initial-population","display":"Initial Population"}]},"count":1},{"code":{"coding":[{"system":"http://terminology.hl7.org/CodeSystem/measure-population","code":"denominator","display":"Denominator"}]},"count":1},{"code":{"coding":[{"system":"http://terminology.hl7.org/CodeSystem/measure-population","code":"denominator-exclusion","display":"Denominator Exclusion"}]},"count":0},{"code":{"coding":[{"system":"http://terminology.hl7.org/CodeSystem/measure-population","code":"numerator","display":"Numerator"}]},"count":1}]}]},"request":{"method":"PUT","url":"MeasureReport/1bb8881a-0941-479a-a496-4cd49727bf60"}}]}