{"resourceType":"Bundle","id":"tests-b792f3b9-b8f5-4d5c-ad66-f580b47ebffd-bundle","type":"transaction","entry":[{"fullUrl":"https://madie.cms.gov/Patient/b792f3b9-b8f5-4d5c-ad66-f580b47ebffd","resource":{"resourceType":"Patient","id":"b792f3b9-b8f5-4d5c-ad66-f580b47ebffd","meta":{"profile":["http://hl7.org/fhir/us/qicore/StructureDefinition/qicore-patient"]},"extension":[{"url":"http://hl7.org/fhir/us/core/StructureDefinition/us-core-race","extension":[{"url":"ombCategory","valueCoding":{"system":"urn:oid:2.16.840.1.113883.6.238","code":"1002-5","display":"American Indian or Alaska Native","userSelected":true}},{"url":"text","valueString":"American Indian or Alaska Native"}]},{"url":"http://hl7.org/fhir/us/core/StructureDefinition/us-core-ethnicity","extension":[{"url":"ombCategory","valueCoding":{"system":"urn:oid:2.16.840.1.113883.6.238","code":"2135-2","display":"Hispanic or Latino","userSelected":true}},{"url":"text","valueString":"Hispanic or Latino"}]}],"identifier":[{"type":{"coding":[{"system":"http://terminology.hl7.org/CodeSystem/v2-0203","code":"MR"}]},"system":"https://bonnie-fhir.healthit.gov/","value":"6323489059967e30c06d0774"}],"name":[{"family":"NUMERFail","given":["MedicationIntentPlan"]}],"gender":"male","birthDate":"2005-09-15"},"request":{"method":"PUT","url":"Patient/b792f3b9-b8f5-4d5c-ad66-f580b47ebffd"}},{"fullUrl":"https://madie.cms.gov/Encounter/encounter-inpatient-53ef","resource":{"resourceType":"Encounter","id":"2d003093-1ae1-44f5-80ed-1f2eaa663310","meta":{"profile":["http://hl7.org/fhir/us/qicore/StructureDefinition/qicore-encounter"]},"status":"finished","class":{"system":"http://terminology.hl7.org/CodeSystem/v3-ActCode","code":"IMP","display":"inpatient"},"type":[{"coding":[{"system":"http://snomed.info/sct","version":"2022-03","code":"183452005","display":"Emergency hospital admission (procedure)","userSelected":true}]}],"subject":{"reference":"Patient/b792f3b9-b8f5-4d5c-ad66-f580b47ebffd"},"period":{"start":"2025-01-01T00:00:00.000+00:00","end":"2025-01-03T00:00:00.000+00:00"}},"request":{"method":"PUT","url":"Encounter/2d003093-1ae1-44f5-80ed-1f2eaa663310"}},{"fullUrl":"https://madie.cms.gov/MedicationRequest/schedule-ii-iii-opioid-medications-53f1","resource":{"resourceType":"MedicationRequest","id":"aae74e24-ed47-4c74-a4cc-c539f17b9473","meta":{"profile":["http://hl7.org/fhir/us/qicore/StructureDefinition/qicore-medicationrequest"]},"status":"active","intent":"plan","category":[{"coding":[{"system":"http://terminology.hl7.org/CodeSystem/medicationrequest-category","code":"discharge","display":"Discharge","userSelected":true}]}],"doNotPerform":false,"medicationCodeableConcept":{"coding":[{"system":"http://www.nlm.nih.gov/research/umls/rxnorm","version":"2022-08","code":"1014632","display":"acetaminophen 300 MG / oxycodone hydrochloride 7.5 MG Oral Tablet","userSelected":true}]},"subject":{"reference":"Patient/b792f3b9-b8f5-4d5c-ad66-f580b47ebffd"},"authoredOn":"2025-01-03T00:15:00.000+00:00","requester":{"reference":"Practitioner/example","display":"Patrick Pump"}},"request":{"method":"PUT","url":"MedicationRequest/aae74e24-ed47-4c74-a4cc-c539f17b9473"}},{"fullUrl":"https://madie.cms.gov/MedicationRequest/schedule-ii-iii-opioid-medications-0775","resource":{"resourceType":"MedicationRequest","id":"2d7c60b4-7ef4-4cdc-a7e4-cb127012d44b","meta":{"profile":["http://hl7.org/fhir/us/qicore/StructureDefinition/qicore-medicationrequest"]},"status":"active","intent":"order","category":[{"coding":[{"system":"http://terminology.hl7.org/CodeSystem/medicationrequest-category","code":"discharge","display":"Discharge","userSelected":true}]}],"doNotPerform":false,"medicationCodeableConcept":{"coding":[{"system":"http://www.nlm.nih.gov/research/umls/rxnorm","version":"2022-08","code":"863845","display":"Abuse-Deterrent morphine sulfate 100 MG / naltrexone hydrochloride 4 MG Extended Release Oral Capsule","userSelected":true}]},"subject":{"reference":"Patient/b792f3b9-b8f5-4d5c-ad66-f580b47ebffd"},"authoredOn":"2025-01-03T00:10:00.000+00:00","requester":{"reference":"Practitioner/example","display":"Patrick Pump"}},"request":{"method":"PUT","url":"MedicationRequest/2d7c60b4-7ef4-4cdc-a7e4-cb127012d44b"}},{"fullUrl":"https://madie.cms.gov/Coverage/1","resource":{"resourceType":"Coverage","id":"1e54212a-09ab-4677-a362-bcf04365cd43","meta":{"profile":["http://hl7.org/fhir/us/qicore/StructureDefinition/qicore-coverage"]},"status":"active","beneficiary":{"reference":"Patient/b792f3b9-b8f5-4d5c-ad66-f580b47ebffd"},"payor":[{"reference":"Organization/26111c91-b0e2-476c-a20b-e3f39799f8f5"}]},"request":{"method":"PUT","url":"Coverage/1e54212a-09ab-4677-a362-bcf04365cd43"}},{"fullUrl":"https://madie.cms.gov/Organization/123456","resource":{"resourceType":"Organization","id":"26111c91-b0e2-476c-a20b-e3f39799f8f5","meta":{"profile":["http://hl7.org/fhir/us/qicore/StructureDefinition/qicore-organization"]},"identifier":[{"use":"temp","system":"urn:oid:2.16.840.1.113883.4.4","value":"21-3259825"}],"active":true,"type":[{"coding":[{"system":"http://terminology.hl7.org/CodeSystem/organization-type","code":"pay","display":"Payer"}]}],"name":"Blue Cross Blue Shield of Texas","telecom":[{"system":"phone","value":"(+1) 972-766-6900"}],"address":[{"use":"billing","type":"postal","line":["P.O. Box 660044"],"city":"Dallas","state":"TX","postalCode":"75266-0044","country":"USA"}]},"request":{"method":"PUT","url":"Organization/26111c91-b0e2-476c-a20b-e3f39799f8f5"}},{"fullUrl":"https://madie.cms.gov/MeasureReport/a578ca63-dc7c-4236-989f-49a19efd7e89","resource":{"resourceType":"MeasureReport","id":"a578ca63-dc7c-4236-989f-49a19efd7e89","meta":{"profile":["http://hl7.org/fhir/us/cqfmeasures/StructureDefinition/test-case-cqfm"]},"contained":[{"resourceType":"Parameters","id":"f15e3a5a-45ad-4732-9a0d-5fdbc8e96e8e-parameters","parameter":[{"name":"subject","valueString":"b792f3b9-b8f5-4d5c-ad66-f580b47ebffd"}]}],"extension":[{"url":"http://hl7.org/fhir/us/cqfmeasures/StructureDefinition/cqfm-inputParameters","valueReference":{"reference":"#f15e3a5a-45ad-4732-9a0d-5fdbc8e96e8e-parameters"}},{"url":"http://hl7.org/fhir/us/cqfmeasures/StructureDefinition/cqfm-testCaseDescription","valueMarkdown":"Encounter during MP, 2 opioids but on has an intent of 'plan' instead of order"}],"modifierExtension":[{"url":"http://hl7.org/fhir/us/cqfmeasures/StructureDefinition/cqfm-isTestCase","valueBoolean":true}],"status":"complete","type":"individual","measure":"https://madie.cms.gov/Measure/SafeUseofOpioidsConcurrentPrescribingFHIR","period":{"start":"2025-01-01","end":"2025-12-31"},"group":[{"population":[{"code":{"coding":[{"system":"http://terminology.hl7.org/CodeSystem/measure-population","code":"initial-population","display":"Initial Population"}]},"count":1},{"code":{"coding":[{"system":"http://terminology.hl7.org/CodeSystem/measure-population","code":"denominator","display":"Denominator"}]},"count":1},{"code":{"coding":[{"system":"http://terminology.hl7.org/CodeSystem/measure-population","code":"denominator-exclusion","display":"Denominator Exclusion"}]},"count":0},{"code":{"coding":[{"system":"http://terminology.hl7.org/CodeSystem/measure-population","code":"numerator","display":"Numerator"}]},"count":0}]}]},"request":{"method":"PUT","url":"MeasureReport/a578ca63-dc7c-4236-989f-49a19efd7e89"}}]}