{
  "resourceType": "Bundle",
  "id": "41643131",
  "type": "transaction",
  "entry": [ {
    "fullUrl": "https://madie.cms.gov/Patient/9be591a0-517b-4be2-b652-a29be0c75c15",
    "resource": {
      "resourceType": "Patient",
      "id": "9be591a0-517b-4be2-b652-a29be0c75c15",
      "meta": {
        "profile": [ "http://hl7.org/fhir/us/qicore/StructureDefinition/qicore-patient" ]
      },
      "extension": [ {
        "url": "http://hl7.org/fhir/us/core/StructureDefinition/us-core-race",
        "extension": [ {
          "url": "ombCategory",
          "valueCoding": {
            "system": "urn:oid:2.16.840.1.113883.6.238",
            "code": "2106-3",
            "display": "White"
          }
        }, {
          "url": "text",
          "valueString": "White"
        } ]
      }, {
        "url": "http://hl7.org/fhir/us/core/StructureDefinition/us-core-ethnicity",
        "extension": [ {
          "url": "ombCategory",
          "valueCoding": {
            "system": "urn:oid:2.16.840.1.113883.6.238",
            "code": "2186-5",
            "display": "Non-Hispanic or Latino"
          }
        }, {
          "url": "text",
          "valueString": "Non-Hispanic or Latino"
        } ]
      } ],
      "identifier": [ {
        "type": {
          "coding": [ {
            "system": "http://terminology.hl7.org/CodeSystem/v2-0203",
            "code": "MR"
          } ]
        },
        "system": "https://bonnie-fhir.healthit.gov/",
        "value": "3153213131"
      } ],
      "active": true,
      "name": [ {
        "use": "usual",
        "family": "NUMERPass",
        "given": [ "1stUSS1moAfterBPHDx" ]
      } ],
      "gender": "male",
      "birthDate": "1949-12-25"
    },
    "request": {
      "method": "POST",
      "url": "Patient/9be591a0-517b-4be2-b652-a29be0c75c15"
    }
  }, {
    "fullUrl": "https://madie.cms.gov/Observation/464313213214",
    "resource": {
      "resourceType": "Observation",
      "id": "464313213214",
      "meta": {
        "profile": [ "http://hl7.org/fhir/us/qicore/StructureDefinition/qicore-observation" ]
      },
      "status": "final",
      "category": [ {
        "coding": [ {
          "system": "http://terminology.hl7.org/CodeSystem/observation-category",
          "code": "survey",
          "display": "Survey"
        } ]
      } ],
      "code": {
        "coding": [ {
          "system": "http://loinc.org",
          "version": "2.76",
          "code": "80976-4"
        } ]
      },
      "subject": {
        "reference": "Patient/9be591a0-517b-4be2-b652-a29be0c75c15"
      },
      "effectivePeriod": {
        "start": "2025-07-01T08:00:00.000+00:00"
      },
      "valueInteger": 3
    },
    "request": {
      "method": "POST",
      "url": "Observation/464313213214"
    }
  }, {
    "fullUrl": "https://madie.cms.gov/Observation/46541654",
    "resource": {
      "resourceType": "Observation",
      "id": "46541654",
      "meta": {
        "profile": [ "http://hl7.org/fhir/us/qicore/StructureDefinition/qicore-observation" ]
      },
      "status": "final",
      "category": [ {
        "coding": [ {
          "system": "http://terminology.hl7.org/CodeSystem/observation-category",
          "code": "survey",
          "display": "Survey"
        } ]
      } ],
      "code": {
        "coding": [ {
          "system": "http://loinc.org",
          "version": "2.76",
          "code": "80976-4"
        } ]
      },
      "subject": {
        "reference": "Patient/9be591a0-517b-4be2-b652-a29be0c75c15"
      },
      "effectivePeriod": {
        "start": "2025-01-31T08:00:00.000+00:00"
      },
      "valueInteger": 6
    },
    "request": {
      "method": "POST",
      "url": "Observation/46541654"
    }
  }, {
    "fullUrl": "https://madie.cms.gov/Condition/31341311313",
    "resource": {
      "resourceType": "Condition",
      "id": "31341311313",
      "meta": {
        "profile": [ "http://hl7.org/fhir/us/qicore/StructureDefinition/qicore-condition" ]
      },
      "clinicalStatus": {
        "coding": [ {
          "system": "http://terminology.hl7.org/CodeSystem/condition-clinical",
          "code": "active",
          "display": "active"
        } ]
      },
      "verificationStatus": {
        "coding": [ {
          "system": "http://terminology.hl7.org/CodeSystem/condition-ver-status",
          "code": "confirmed",
          "display": "Confirmed"
        } ]
      },
      "category": [ {
        "coding": [ {
          "system": "http://terminology.hl7.org/CodeSystem/condition-category",
          "code": "problem-list-item",
          "display": "Problem List Item"
        } ]
      } ],
      "code": {
        "coding": [ {
          "system": "http://hl7.org/fhir/sid/icd-10-cm",
          "version": "2024",
          "code": "N40.1"
        } ]
      },
      "subject": {
        "reference": "Patient/9be591a0-517b-4be2-b652-a29be0c75c15"
      },
      "onsetPeriod": {
        "start": "2024-12-31T08:00:00.000+00:00"
      }
    },
    "request": {
      "method": "POST",
      "url": "Condition/31341311313"
    }
  }, {
    "fullUrl": "https://madie.cms.gov/Encounter/416345631321354",
    "resource": {
      "resourceType": "Encounter",
      "id": "416345631321354",
      "meta": {
        "profile": [ "http://hl7.org/fhir/us/qicore/StructureDefinition/qicore-encounter" ]
      },
      "status": "finished",
      "class": {
        "system": "http://terminology.hl7.org/CodeSystem/v3-ActCode",
        "code": "AMB",
        "display": "ambulatory"
      },
      "type": [ {
        "coding": [ {
          "system": "http://www.ama-assn.org/go/cpt",
          "version": "2024",
          "code": "99203"
        } ]
      } ],
      "subject": {
        "reference": "Patient/9be591a0-517b-4be2-b652-a29be0c75c15"
      },
      "period": {
        "start": "2025-01-01T08:00:00+00:00",
        "end": "2025-01-01T08:15:00+00:00"
      }
    },
    "request": {
      "method": "POST",
      "url": "Encounter/416345631321354"
    }
  }, {
    "fullUrl": "https://madie.cms.gov/MeasureReport/4f1cbf63-e114-42f8-ae04-79bb26f52aa7",
    "resource": {
      "resourceType": "MeasureReport",
      "id": "4f1cbf63-e114-42f8-ae04-79bb26f52aa7",
      "meta": {
        "profile": [ "http://hl7.org/fhir/us/cqfmeasures/StructureDefinition/test-case-cqfm" ]
      },
      "contained": [ {
        "resourceType": "Parameters",
        "id": "09d435ad-8627-4c25-869c-0dbbbd4fd2d0-parameters",
        "parameter": [ {
          "name": "subject",
          "valueString": "9be591a0-517b-4be2-b652-a29be0c75c15"
        } ]
      } ],
      "extension": [ {
        "url": "http://hl7.org/fhir/us/cqfmeasures/StructureDefinition/cqfm-inputParameters",
        "valueReference": {
          "reference": "#09d435ad-8627-4c25-869c-0dbbbd4fd2d0-parameters"
        }
      }, {
        "url": "http://hl7.org/fhir/us/cqfmeasures/StructureDefinition/cqfm-testCaseDescription",
        "valueMarkdown": "Male Patient with OV and BPH Dx and first USS occuring 1 month after BPH Diagnosis"
      } ],
      "modifierExtension": [ {
        "url": "http://hl7.org/fhir/us/cqfmeasures/StructureDefinition/cqfm-isTestCase",
        "valueBoolean": true
      } ],
      "status": "complete",
      "type": "individual",
      "measure": "https://madie.cms.gov/Measure/UrinarySymptomScoreChangeAfterBenignProstaticHyperplasiaFHIR",
      "period": {
        "start": "2025-01-01",
        "end": "2025-12-31"
      },
      "group": [ {
        "population": [ {
          "code": {
            "coding": [ {
              "system": "http://terminology.hl7.org/CodeSystem/measure-population",
              "code": "initial-population",
              "display": "Initial Population"
            } ]
          },
          "count": 1
        }, {
          "code": {
            "coding": [ {
              "system": "http://terminology.hl7.org/CodeSystem/measure-population",
              "code": "denominator",
              "display": "Denominator"
            } ]
          },
          "count": 1
        }, {
          "code": {
            "coding": [ {
              "system": "http://terminology.hl7.org/CodeSystem/measure-population",
              "code": "denominator-exclusion",
              "display": "Denominator Exclusion"
            } ]
          },
          "count": 0
        }, {
          "code": {
            "coding": [ {
              "system": "http://terminology.hl7.org/CodeSystem/measure-population",
              "code": "numerator",
              "display": "Numerator"
            } ]
          },
          "count": 1
        } ]
      } ],
      "evaluatedResource": [ {
        "reference": "https://madie.cms.gov/Patient/9be591a0-517b-4be2-b652-a29be0c75c15"
      }, {
        "reference": "https://madie.cms.gov/Observation/464313213214"
      }, {
        "reference": "https://madie.cms.gov/Observation/46541654"
      }, {
        "reference": "https://madie.cms.gov/Condition/31341311313"
      }, {
        "reference": "https://madie.cms.gov/Encounter/416345631321354"
      } ]
    },
    "request": {
      "method": "POST",
      "url": "MeasureReport/4f1cbf63-e114-42f8-ae04-79bb26f52aa7"
    }
  } ]
}