{"resourceType":"Bundle","id":"tests-7921acb6-7c9a-4c78-bdf1-a8e1ec2c7023-bundle","type":"transaction","entry":[{"fullUrl":"https://madie.cms.gov/Patient/7921acb6-7c9a-4c78-bdf1-a8e1ec2c7023","resource":{"resourceType":"Patient","id":"7921acb6-7c9a-4c78-bdf1-a8e1ec2c7023","meta":{"profile":["http://hl7.org/fhir/us/qicore/StructureDefinition/qicore-patient"]},"extension":[{"url":"http://hl7.org/fhir/us/core/StructureDefinition/us-core-race","extension":[{"url":"ombCategory","valueCoding":{"system":"urn:oid:2.16.840.1.113883.6.238","code":"2076-8","display":"Native Hawaiian or Other Pacific Islander","userSelected":true}},{"url":"text","valueString":"Native Hawaiian or Other Pacific Islander"}]},{"url":"http://hl7.org/fhir/us/core/StructureDefinition/us-core-ethnicity","extension":[{"url":"ombCategory","valueCoding":{"system":"urn:oid:2.16.840.1.113883.6.238","code":"2186-5","display":"Not Hispanic or Latino","userSelected":true}},{"url":"text","valueString":"Not Hispanic or Latino"}]}],"identifier":[{"type":{"coding":[{"system":"http://terminology.hl7.org/CodeSystem/v2-0203","code":"MR"}]},"system":"https://bonnie-fhir.healthit.gov/","value":"641367794b11b147841ab8a1"}],"name":[{"family":"DENEXPass","given":["ESRDDxFirstDayOfMP"]}],"gender":"male","birthDate":"1953-10-19"},"request":{"method":"PUT","url":"Patient/7921acb6-7c9a-4c78-bdf1-a8e1ec2c7023"}},{"fullUrl":"https://madie.cms.gov/Condition/diabetes-b8a2","resource":{"resourceType":"Condition","id":"dcf61510-0300-4199-b58f-796731ce9d5c","meta":{"profile":["http://hl7.org/fhir/us/qicore/StructureDefinition/qicore-condition"]},"clinicalStatus":{"coding":[{"system":"http://terminology.hl7.org/CodeSystem/condition-clinical","code":"active","display":"active","userSelected":true}]},"category":[{"coding":[{"system":"http://terminology.hl7.org/CodeSystem/condition-category","code":"encounter-diagnosis","display":"Encounter Diagnosis","userSelected":true}]}],"code":{"coding":[{"system":"http://snomed.info/sct","version":"2021-09","code":"102781000119107","display":"Sensory neuropathy due to type 1 diabetes mellitus (disorder)","userSelected":true}]},"subject":{"reference":"Patient/7921acb6-7c9a-4c78-bdf1-a8e1ec2c7023"},"onsetDateTime":"2025-03-01T08:00:00.000+00:00"},"request":{"method":"PUT","url":"Condition/dcf61510-0300-4199-b58f-796731ce9d5c"}},{"fullUrl":"https://madie.cms.gov/Condition/end-stage-renal-disease-b8a3","resource":{"resourceType":"Condition","id":"45afbaed-7a79-4022-8067-8b9da4ef3fb7","meta":{"profile":["http://hl7.org/fhir/us/qicore/StructureDefinition/qicore-condition"]},"clinicalStatus":{"coding":[{"system":"http://terminology.hl7.org/CodeSystem/condition-clinical","code":"active","display":"active","userSelected":true}]},"category":[{"coding":[{"system":"http://terminology.hl7.org/CodeSystem/condition-category","code":"encounter-diagnosis","display":"Encounter Diagnosis","userSelected":true}]}],"code":{"coding":[{"system":"http://snomed.info/sct","version":"2021-09","code":"236434000","display":"End stage renal failure untreated by renal replacement therapy (disorder)","userSelected":true}]},"subject":{"reference":"Patient/7921acb6-7c9a-4c78-bdf1-a8e1ec2c7023"},"onsetDateTime":"2025-02-15T08:00:00.000+00:00"},"request":{"method":"PUT","url":"Condition/45afbaed-7a79-4022-8067-8b9da4ef3fb7"}},{"fullUrl":"https://madie.cms.gov/Encounter/preventive-care-services-established-office-visit-18-and-up-b8a4","resource":{"resourceType":"Encounter","id":"fd561416-1fd5-4842-8049-66a634fb6395","meta":{"profile":["http://hl7.org/fhir/us/qicore/StructureDefinition/qicore-encounter"]},"status":"finished","class":{"system":"http://terminology.hl7.org/CodeSystem/v3-ActCode","code":"AMB","display":"ambulatory","userSelected":true},"type":[{"coding":[{"system":"http://www.ama-assn.org/go/cpt","version":"2021","code":"99395","display":"Periodic comprehensive preventive medicine reevaluation and management of an individual including an age and gender appropriate history, examination, counseling/anticipatory guidance/risk factor reduction interventions, and the ordering of laboratory/diagnostic procedures, established patient; 18-39 years","userSelected":true}]}],"subject":{"reference":"Patient/7921acb6-7c9a-4c78-bdf1-a8e1ec2c7023"},"period":{"start":"2025-03-14T08:00:00.000+00:00","end":"2025-03-14T08:15:00.000+00:00"}},"request":{"method":"PUT","url":"Encounter/fd561416-1fd5-4842-8049-66a634fb6395"}},{"fullUrl":"https://madie.cms.gov/MeasureReport/e511190a-e1a9-4c5b-97c3-f863aad68aaa","resource":{"resourceType":"MeasureReport","id":"e511190a-e1a9-4c5b-97c3-f863aad68aaa","meta":{"profile":["http://hl7.org/fhir/us/cqfmeasures/StructureDefinition/test-case-cqfm"]},"contained":[{"resourceType":"Parameters","id":"611fb1ac-5c7c-4e71-8e59-10c237c1b470-parameters","parameter":[{"name":"subject","valueString":"7921acb6-7c9a-4c78-bdf1-a8e1ec2c7023"}]}],"extension":[{"url":"http://hl7.org/fhir/us/cqfmeasures/StructureDefinition/cqfm-inputParameters","valueReference":{"reference":"#611fb1ac-5c7c-4e71-8e59-10c237c1b470-parameters"}},{"url":"http://hl7.org/fhir/us/cqfmeasures/StructureDefinition/cqfm-testCaseDescription","valueMarkdown":"This patient is 70 years old with a qualifying encounter and active diabetes diagnosis, with a diagnosis of chronic kidney disease, stage 5 as well. This case test the denominator exclusion criteria."}],"modifierExtension":[{"url":"http://hl7.org/fhir/us/cqfmeasures/StructureDefinition/cqfm-isTestCase","valueBoolean":true}],"status":"complete","type":"individual","measure":"https://madie.cms.gov/Measure/KidneyHealthEvaluationFHIR","period":{"start":"2025-01-01","end":"2025-12-31"},"group":[{"population":[{"code":{"coding":[{"system":"http://terminology.hl7.org/CodeSystem/measure-population","code":"initial-population","display":"Initial Population"}]},"count":1},{"code":{"coding":[{"system":"http://terminology.hl7.org/CodeSystem/measure-population","code":"denominator","display":"Denominator"}]},"count":1},{"code":{"coding":[{"system":"http://terminology.hl7.org/CodeSystem/measure-population","code":"denominator-exclusion","display":"Denominator Exclusion"}]},"count":1},{"code":{"coding":[{"system":"http://terminology.hl7.org/CodeSystem/measure-population","code":"numerator","display":"Numerator"}]},"count":0}]}]},"request":{"method":"PUT","url":"MeasureReport/e511190a-e1a9-4c5b-97c3-f863aad68aaa"}}]}