{"resourceType":"Bundle","id":"tests-fa02a22e-e0c5-49ef-8955-2e581ca12ca5-bundle","type":"transaction","entry":[{"fullUrl":"https://madie.cms.gov/Patient/fa02a22e-e0c5-49ef-8955-2e581ca12ca5","resource":{"resourceType":"Patient","id":"fa02a22e-e0c5-49ef-8955-2e581ca12ca5","meta":{"profile":["http://hl7.org/fhir/us/qicore/StructureDefinition/qicore-patient"]},"extension":[{"url":"http://hl7.org/fhir/us/core/StructureDefinition/us-core-race","extension":[{"url":"ombCategory","valueCoding":{"system":"urn:oid:2.16.840.1.113883.6.238","code":"2106-3","display":"White","userSelected":true}},{"url":"text","valueString":"White"}]},{"url":"http://hl7.org/fhir/us/core/StructureDefinition/us-core-ethnicity","extension":[{"url":"ombCategory","valueCoding":{"system":"urn:oid:2.16.840.1.113883.6.238","code":"2186-5","display":"Not Hispanic or Latino","userSelected":true}},{"url":"text","valueString":"Not Hispanic or Latino"}]}],"identifier":[{"type":{"coding":[{"system":"http://terminology.hl7.org/CodeSystem/v2-0203","code":"MR"}]},"system":"https://bonnie-fhir.healthit.gov/","value":"62fa569ef4a8c3cd9f45539b"}],"name":[{"family":"DenExPass","given":["EndStageRenal"]}],"gender":"male","birthDate":"2004-12-01"},"request":{"method":"PUT","url":"Patient/fa02a22e-e0c5-49ef-8955-2e581ca12ca5"}},{"fullUrl":"https://madie.cms.gov/Condition/diabetes-e2ba","resource":{"resourceType":"Condition","id":"0a87f9e8-42aa-4565-bf10-f09ab29e0bb1","meta":{"profile":["http://hl7.org/fhir/us/qicore/StructureDefinition/qicore-condition"]},"clinicalStatus":{"coding":[{"system":"http://terminology.hl7.org/CodeSystem/condition-clinical","code":"active","display":"Active","userSelected":true}]},"category":[{"coding":[{"system":"http://terminology.hl7.org/CodeSystem/condition-category","code":"encounter-diagnosis","display":"Encounter Diagnosis","userSelected":true}]}],"code":{"coding":[{"system":"http://snomed.info/sct","version":"2021-09","code":"102781000119107","display":"Sensory neuropathy due to type 1 diabetes mellitus (disorder)","userSelected":true}]},"subject":{"reference":"Patient/fa02a22e-e0c5-49ef-8955-2e581ca12ca5"},"onsetDateTime":"2025-08-15T08:00:00.000+00:00"},"request":{"method":"PUT","url":"Condition/0a87f9e8-42aa-4565-bf10-f09ab29e0bb1"}},{"fullUrl":"https://madie.cms.gov/Encounter/office-visit-e2bb","resource":{"resourceType":"Encounter","id":"3c55ee8c-12a8-4f5f-b79f-724dd0802c5f","meta":{"profile":["http://hl7.org/fhir/us/qicore/StructureDefinition/qicore-encounter"]},"status":"finished","class":{"system":"http://terminology.hl7.org/CodeSystem/v3-ActCode","code":"AMB","display":"ambulatory","userSelected":true},"type":[{"coding":[{"system":"http://snomed.info/sct","version":"2021-09","code":"185463005","display":"Visit out of hours (procedure)","userSelected":true}]}],"subject":{"reference":"Patient/fa02a22e-e0c5-49ef-8955-2e581ca12ca5"},"period":{"start":"2025-08-15T08:00:00.000+00:00","end":"2025-08-15T08:15:00.000+00:00"}},"request":{"method":"PUT","url":"Encounter/3c55ee8c-12a8-4f5f-b79f-724dd0802c5f"}},{"fullUrl":"https://madie.cms.gov/Observation/estimated-glomerular-filtration-rate-5397","resource":{"resourceType":"Observation","id":"06376e78-c566-48b2-b49b-16a243e2eb23","meta":{"profile":["http://hl7.org/fhir/us/qicore/StructureDefinition/qicore-observation"]},"status":"amended","category":[{"coding":[{"system":"http://terminology.hl7.org/CodeSystem/observation-category","code":"laboratory","display":"Laboratory","userSelected":true}]}],"code":{"coding":[{"system":"http://loinc.org","version":"2.71","code":"48642-3","display":"Glomerular filtration rate/1.73 sq M.predicted among non-blacks [Volume Rate/Area] in Serum, Plasma or Blood by Creatinine-based formula (MDRD)","userSelected":true}]},"subject":{"reference":"Patient/fa02a22e-e0c5-49ef-8955-2e581ca12ca5"},"effectiveDateTime":"2025-08-15T08:00:00.000+00:00","valueBoolean":true},"request":{"method":"PUT","url":"Observation/06376e78-c566-48b2-b49b-16a243e2eb23"}},{"fullUrl":"https://madie.cms.gov/Observation/urine-albumin-creatinine-ratio-5398","resource":{"resourceType":"Observation","id":"38bfbc33-97dd-4213-a357-b85765d2bfb0","meta":{"profile":["http://hl7.org/fhir/us/qicore/StructureDefinition/qicore-observation"]},"status":"amended","category":[{"coding":[{"system":"http://terminology.hl7.org/CodeSystem/observation-category","code":"laboratory","display":"Laboratory","userSelected":true}]}],"code":{"coding":[{"system":"http://loinc.org","version":"2.71","code":"13705-9","display":"Albumin/Creatinine [Mass Ratio] in 24 hour Urine","userSelected":true}]},"subject":{"reference":"Patient/fa02a22e-e0c5-49ef-8955-2e581ca12ca5"},"effectiveDateTime":"2025-08-15T08:00:00.000+00:00","valueBoolean":true},"request":{"method":"PUT","url":"Observation/38bfbc33-97dd-4213-a357-b85765d2bfb0"}},{"fullUrl":"https://madie.cms.gov/Condition/end-stage-renal-disease-539d","resource":{"resourceType":"Condition","id":"343bb1e2-7c7b-4105-89a6-382b62ccc529","meta":{"profile":["http://hl7.org/fhir/us/qicore/StructureDefinition/qicore-condition"]},"clinicalStatus":{"coding":[{"system":"http://terminology.hl7.org/CodeSystem/condition-clinical","code":"active","display":"Active","userSelected":true}]},"category":[{"coding":[{"system":"http://terminology.hl7.org/CodeSystem/condition-category","code":"problem-list-item","display":"Problem List Item","userSelected":true}]}],"code":{"coding":[{"system":"http://snomed.info/sct","version":"2021-09","code":"236434000","display":"End stage renal failure untreated by renal replacement therapy (disorder)","userSelected":true}]},"subject":{"reference":"Patient/fa02a22e-e0c5-49ef-8955-2e581ca12ca5"},"onsetDateTime":"2025-08-15T08:00:00.000+00:00","recordedDate":"2025-08-15T08:00:00.000+00:00"},"request":{"method":"PUT","url":"Condition/343bb1e2-7c7b-4105-89a6-382b62ccc529"}},{"fullUrl":"https://madie.cms.gov/MeasureReport/d9a65ca7-4b04-489a-bae1-2094d633fc3a","resource":{"resourceType":"MeasureReport","id":"d9a65ca7-4b04-489a-bae1-2094d633fc3a","meta":{"profile":["http://hl7.org/fhir/us/cqfmeasures/StructureDefinition/test-case-cqfm"]},"contained":[{"resourceType":"Parameters","id":"54d4673a-5127-433f-b888-e9e660e041ce-parameters","parameter":[{"name":"subject","valueString":"fa02a22e-e0c5-49ef-8955-2e581ca12ca5"}]}],"extension":[{"url":"http://hl7.org/fhir/us/cqfmeasures/StructureDefinition/cqfm-inputParameters","valueReference":{"reference":"#54d4673a-5127-433f-b888-e9e660e041ce-parameters"}},{"url":"http://hl7.org/fhir/us/cqfmeasures/StructureDefinition/cqfm-testCaseDescription","valueMarkdown":"This patient has diabetes and both labs, plus end stage renal disease. This case tests the denominator exclusions."}],"modifierExtension":[{"url":"http://hl7.org/fhir/us/cqfmeasures/StructureDefinition/cqfm-isTestCase","valueBoolean":true}],"status":"complete","type":"individual","measure":"https://madie.cms.gov/Measure/KidneyHealthEvaluationFHIR","period":{"start":"2025-01-01","end":"2025-12-31"},"group":[{"population":[{"code":{"coding":[{"system":"http://terminology.hl7.org/CodeSystem/measure-population","code":"initial-population","display":"Initial Population"}]},"count":1},{"code":{"coding":[{"system":"http://terminology.hl7.org/CodeSystem/measure-population","code":"denominator","display":"Denominator"}]},"count":1},{"code":{"coding":[{"system":"http://terminology.hl7.org/CodeSystem/measure-population","code":"denominator-exclusion","display":"Denominator Exclusion"}]},"count":1},{"code":{"coding":[{"system":"http://terminology.hl7.org/CodeSystem/measure-population","code":"numerator","display":"Numerator"}]},"count":0}]}]},"request":{"method":"PUT","url":"MeasureReport/d9a65ca7-4b04-489a-bae1-2094d633fc3a"}}]}