{"resourceType":"Bundle","id":"tests-1127bc95-bf52-4921-b02a-de0902780191-bundle","type":"transaction","entry":[{"fullUrl":"https://madie.cms.gov/Patient/1127bc95-bf52-4921-b02a-de0902780191","resource":{"resourceType":"Patient","id":"1127bc95-bf52-4921-b02a-de0902780191","meta":{"profile":["http://hl7.org/fhir/us/qicore/StructureDefinition/qicore-patient"]},"extension":[{"url":"http://hl7.org/fhir/us/core/StructureDefinition/us-core-race","extension":[{"url":"ombCategory","valueCoding":{"system":"urn:oid:2.16.840.1.113883.6.238","code":"2054-5","display":"Black or African American","userSelected":true}},{"url":"text","valueString":"Black or African American"}]},{"url":"http://hl7.org/fhir/us/core/StructureDefinition/us-core-ethnicity","extension":[{"url":"ombCategory","valueCoding":{"system":"urn:oid:2.16.840.1.113883.6.238","code":"2135-2","display":"Hispanic or Latino","userSelected":true}},{"url":"text","valueString":"Hispanic or Latino"}]}],"identifier":[{"type":{"coding":[{"system":"http://terminology.hl7.org/CodeSystem/v2-0203","code":"MR"}]},"system":"https://bonnie-fhir.healthit.gov/","value":"6413713d4b11b147841ab8cd"}],"name":[{"family":"DENEXPass","given":["PerformHospAmb"]}],"gender":"male","birthDate":"1989-05-08"},"request":{"method":"PUT","url":"Patient/1127bc95-bf52-4921-b02a-de0902780191"}},{"fullUrl":"https://madie.cms.gov/Condition/diabetes-b8ce","resource":{"resourceType":"Condition","id":"de481ee3-3a55-4fe4-be01-f3a83bb86001","meta":{"profile":["http://hl7.org/fhir/us/qicore/StructureDefinition/qicore-condition"]},"clinicalStatus":{"coding":[{"system":"http://terminology.hl7.org/CodeSystem/condition-clinical","code":"active","display":"active","userSelected":true}]},"category":[{"coding":[{"system":"http://terminology.hl7.org/CodeSystem/condition-category","code":"encounter-diagnosis","display":"Encounter Diagnosis","userSelected":true}]}],"code":{"coding":[{"system":"http://snomed.info/sct","version":"2021-09","code":"102781000119107","display":"Sensory neuropathy due to type 1 diabetes mellitus (disorder)","userSelected":true}]},"subject":{"reference":"Patient/1127bc95-bf52-4921-b02a-de0902780191"},"onsetDateTime":"2025-03-01T08:00:00.000+00:00"},"request":{"method":"PUT","url":"Condition/de481ee3-3a55-4fe4-be01-f3a83bb86001"}},{"fullUrl":"https://madie.cms.gov/Encounter/outpatient-consultation-b8cf","resource":{"resourceType":"Encounter","id":"e7f83436-b621-42f2-a5dc-3c7cad3b0ea7","meta":{"profile":["http://hl7.org/fhir/us/qicore/StructureDefinition/qicore-encounter"]},"status":"finished","class":{"system":"http://terminology.hl7.org/CodeSystem/v3-ActCode","code":"AMB","display":"ambulatory","userSelected":true},"type":[{"coding":[{"system":"http://snomed.info/sct","version":"2021-09","code":"281036007","display":"Follow-up consultation (procedure)","userSelected":true}]}],"subject":{"reference":"Patient/1127bc95-bf52-4921-b02a-de0902780191"},"period":{"start":"2025-03-06T08:00:00.000+00:00","end":"2025-03-06T08:15:00.000+00:00"}},"request":{"method":"PUT","url":"Encounter/e7f83436-b621-42f2-a5dc-3c7cad3b0ea7"}},{"fullUrl":"https://madie.cms.gov/Procedure/hospice-care-ambulatory-b8d0","resource":{"resourceType":"Procedure","id":"79923e55-8602-47b9-a56c-bd89907f6461","meta":{"profile":["http://hl7.org/fhir/us/qicore/StructureDefinition/qicore-procedure"]},"extension":[{"url":"http://hl7.org/fhir/us/qicore/StructureDefinition/qicore-recorded","valueDateTime":"2025-03-14T08:00:00.000+00:00"}],"status":"completed","category":{"coding":[{"system":"http://snomed.info/sct","code":"103693007","display":"Diagnostic procedure","userSelected":true}]},"code":{"coding":[{"system":"http://snomed.info/sct","version":"2021-09","code":"170935008","display":"Full care by hospice (finding)","userSelected":true},{"system":"http://snomed.info/sct","code":"385765002","userSelected":true}]},"subject":{"reference":"Patient/1127bc95-bf52-4921-b02a-de0902780191"},"performedDateTime":"2025-03-14T08:00:00.000+00:00"},"request":{"method":"PUT","url":"Procedure/79923e55-8602-47b9-a56c-bd89907f6461"}},{"fullUrl":"https://madie.cms.gov/MeasureReport/76632b83-97aa-4993-bcc1-e54f8874427d","resource":{"resourceType":"MeasureReport","id":"76632b83-97aa-4993-bcc1-e54f8874427d","meta":{"profile":["http://hl7.org/fhir/us/cqfmeasures/StructureDefinition/test-case-cqfm"]},"contained":[{"resourceType":"Parameters","id":"61ae9fcb-f25d-40a6-a478-2132b86204f0-parameters","parameter":[{"name":"subject","valueString":"1127bc95-bf52-4921-b02a-de0902780191"}]}],"extension":[{"url":"http://hl7.org/fhir/us/cqfmeasures/StructureDefinition/cqfm-inputParameters","valueReference":{"reference":"#61ae9fcb-f25d-40a6-a478-2132b86204f0-parameters"}},{"url":"http://hl7.org/fhir/us/cqfmeasures/StructureDefinition/cqfm-testCaseDescription","valueMarkdown":"This patient is 34 years old with a qualifying encounter and active diabetes diagnosis, with hospice care ambulatory performed during the measurement period. This case tests the denominator exclusion criteria."}],"modifierExtension":[{"url":"http://hl7.org/fhir/us/cqfmeasures/StructureDefinition/cqfm-isTestCase","valueBoolean":true}],"status":"complete","type":"individual","measure":"https://madie.cms.gov/Measure/KidneyHealthEvaluationFHIR","period":{"start":"2025-01-01","end":"2025-12-31"},"group":[{"population":[{"code":{"coding":[{"system":"http://terminology.hl7.org/CodeSystem/measure-population","code":"initial-population","display":"Initial Population"}]},"count":1},{"code":{"coding":[{"system":"http://terminology.hl7.org/CodeSystem/measure-population","code":"denominator","display":"Denominator"}]},"count":1},{"code":{"coding":[{"system":"http://terminology.hl7.org/CodeSystem/measure-population","code":"denominator-exclusion","display":"Denominator Exclusion"}]},"count":1},{"code":{"coding":[{"system":"http://terminology.hl7.org/CodeSystem/measure-population","code":"numerator","display":"Numerator"}]},"count":0}]}]},"request":{"method":"PUT","url":"MeasureReport/76632b83-97aa-4993-bcc1-e54f8874427d"}}]}