{
  "resourceType": "Bundle",
  "id": "610965b998086b538055c159",
  "type": "transaction",
  "entry": [ {
    "fullUrl": "https://madie.cms.gov/Patient/7d3d8242-5606-473b-924c-91b72518809e",
    "resource": {
      "resourceType": "Patient",
      "id": "7d3d8242-5606-473b-924c-91b72518809e",
      "meta": {
        "profile": [ "http://hl7.org/fhir/us/qicore/StructureDefinition/qicore-patient" ]
      },
      "text": {
        "status": "generated",
        "div": "<div xmlns=\"http://www.w3.org/1999/xhtml\"><div class=\"hapiHeaderText\">TwoLabBothInvalidTiming <b>NUMERFAIL </b></div><table class=\"hapiPropertyTable\"><tbody><tr><td>Date of birth</td><td><span>31 July 1992</span></td></tr></tbody></table></div>"
      },
      "extension": [ {
        "url": "http://hl7.org/fhir/us/core/StructureDefinition/us-core-race",
        "extension": [ {
          "url": "ombCategory",
          "valueCoding": {
            "system": "urn:oid:2.16.840.1.113883.6.238",
            "code": "2054-5",
            "display": "Black or African American",
            "userSelected": true
          }
        }, {
          "url": "text",
          "valueString": "Black or African American"
        } ]
      }, {
        "url": "http://hl7.org/fhir/us/core/StructureDefinition/us-core-ethnicity",
        "extension": [ {
          "url": "ombCategory",
          "valueCoding": {
            "system": "urn:oid:2.16.840.1.113883.6.238",
            "code": "2135-2",
            "display": "Hispanic or Latino",
            "userSelected": true
          }
        }, {
          "url": "text",
          "valueString": "Hispanic or Latino"
        } ]
      } ],
      "identifier": [ {
        "type": {
          "coding": [ {
            "system": "http://terminology.hl7.org/CodeSystem/v2-0203",
            "code": "MR"
          } ]
        },
        "system": "https://bonnie-fhir.healthit.gov/",
        "value": "610965b998086b538055c159"
      } ],
      "active": true,
      "name": [ {
        "use": "usual",
        "family": "NUMERFail",
        "given": [ "TwoLabBothInvalidTiming" ]
      } ],
      "gender": "female",
      "birthDate": "2004-07-31"
    },
    "request": {
      "method": "POST",
      "url": "Patient/7d3d8242-5606-473b-924c-91b72518809e"
    }
  }, {
    "fullUrl": "https://madie.cms.gov/Encounter/5e5973529ec84a00005dc486",
    "resource": {
      "resourceType": "Encounter",
      "id": "5e5973529ec84a00005dc486",
      "meta": {
        "profile": [ "http://hl7.org/fhir/us/qicore/StructureDefinition/qicore-encounter" ]
      },
      "status": "finished",
      "class": {
        "system": "http://terminology.hl7.org/CodeSystem/v3-ActCode",
        "code": "AMB",
        "display": "ambulatory",
        "userSelected": true
      },
      "type": [ {
        "coding": [ {
          "system": "http://snomed.info/sct",
          "code": "185463005"
        } ]
      } ],
      "subject": {
        "reference": "Patient/7d3d8242-5606-473b-924c-91b72518809e"
      },
      "period": {
        "start": "2025-10-24T08:00:00.000+00:00",
        "end": "2025-10-24T08:15:00.000+00:00"
      }
    },
    "request": {
      "method": "POST",
      "url": "Encounter/5e5973529ec84a00005dc486"
    }
  }, {
    "fullUrl": "https://madie.cms.gov/Observation/5e5973ad9ec84a00005dc4d9",
    "resource": {
      "resourceType": "Observation",
      "id": "5e5973ad9ec84a00005dc4d9",
      "meta": {
        "profile": [ "http://hl7.org/fhir/us/qicore/StructureDefinition/qicore-observation" ]
      },
      "status": "final",
      "category": [ {
        "coding": [ {
          "system": "http://terminology.hl7.org/CodeSystem/observation-category",
          "code": "laboratory",
          "display": "Laboratory",
          "userSelected": true
        } ]
      } ],
      "code": {
        "coding": [ {
          "system": "http://loinc.org",
          "code": "10901-7"
        } ]
      },
      "subject": {
        "reference": "Patient/7d3d8242-5606-473b-924c-91b72518809e"
      },
      "effectiveDateTime": "2017-07-20T08:00:00.000+00:00",
      "valueBoolean": true
    },
    "request": {
      "method": "POST",
      "url": "Observation/5e5973ad9ec84a00005dc4d9"
    }
  }, {
    "fullUrl": "https://madie.cms.gov/Observation/5e59753b9ec84a00005dc580",
    "resource": {
      "resourceType": "Observation",
      "id": "5e59753b9ec84a00005dc580",
      "meta": {
        "profile": [ "http://hl7.org/fhir/us/qicore/StructureDefinition/qicore-observation" ]
      },
      "status": "final",
      "category": [ {
        "coding": [ {
          "system": "http://terminology.hl7.org/CodeSystem/observation-category",
          "code": "laboratory",
          "display": "Laboratory",
          "userSelected": true
        } ]
      } ],
      "code": {
        "coding": [ {
          "system": "http://loinc.org",
          "code": "75622-1"
        } ]
      },
      "subject": {
        "reference": "Patient/7d3d8242-5606-473b-924c-91b72518809e"
      },
      "issued": "2025-10-24T08:00:00.000+00:00",
      "valueBoolean": true
    },
    "request": {
      "method": "POST",
      "url": "Observation/5e59753b9ec84a00005dc580"
    }
  }, {
    "fullUrl": "https://madie.cms.gov/MeasureReport/a64a0db6-2429-4c6a-9ffd-b12a1738ecb3",
    "resource": {
      "resourceType": "MeasureReport",
      "id": "a64a0db6-2429-4c6a-9ffd-b12a1738ecb3",
      "meta": {
        "profile": [ "http://hl7.org/fhir/us/cqfmeasures/StructureDefinition/test-case-cqfm" ]
      },
      "contained": [ {
        "resourceType": "Parameters",
        "id": "9d0ebb29-0c0a-4637-b4e8-edecf9620d2c-parameters",
        "parameter": [ {
          "name": "subject",
          "valueString": "7d3d8242-5606-473b-924c-91b72518809e"
        } ]
      } ],
      "extension": [ {
        "url": "http://hl7.org/fhir/us/cqfmeasures/StructureDefinition/cqfm-inputParameters",
        "valueReference": {
          "reference": "#9d0ebb29-0c0a-4637-b4e8-edecf9620d2c-parameters"
        }
      }, {
        "url": "http://hl7.org/fhir/us/cqfmeasures/StructureDefinition/cqfm-testCaseDescription",
        "valueMarkdown": "Patient 20 at start of MP, qual encounter during MP, two lab test, one under 15 before MP, one at 20 during MP with authorDatetime."
      } ],
      "modifierExtension": [ {
        "url": "http://hl7.org/fhir/us/cqfmeasures/StructureDefinition/cqfm-isTestCase",
        "valueBoolean": true
      } ],
      "status": "complete",
      "type": "individual",
      "measure": "https://madie.cms.gov/Measure/HIVScreeningFHIR",
      "period": {
        "start": "2025-01-01",
        "end": "2025-12-31"
      },
      "group": [ {
        "population": [ {
          "code": {
            "coding": [ {
              "system": "http://terminology.hl7.org/CodeSystem/measure-population",
              "code": "initial-population",
              "display": "Initial Population"
            } ]
          },
          "count": 1
        }, {
          "code": {
            "coding": [ {
              "system": "http://terminology.hl7.org/CodeSystem/measure-population",
              "code": "denominator",
              "display": "Denominator"
            } ]
          },
          "count": 1
        }, {
          "code": {
            "coding": [ {
              "system": "http://terminology.hl7.org/CodeSystem/measure-population",
              "code": "denominator-exclusion",
              "display": "Denominator Exclusion"
            } ]
          },
          "count": 0
        }, {
          "code": {
            "coding": [ {
              "system": "http://terminology.hl7.org/CodeSystem/measure-population",
              "code": "numerator",
              "display": "Numerator"
            } ]
          },
          "count": 0
        } ]
      } ],
      "evaluatedResource": [ {
        "reference": "Patient/7d3d8242-5606-473b-924c-91b72518809e"
      }, {
        "reference": "Encounter/5e5973529ec84a00005dc486"
      }, {
        "reference": "Observation/5e5973ad9ec84a00005dc4d9"
      }, {
        "reference": "Observation/5e59753b9ec84a00005dc580"
      } ]
    },
    "request": {
      "method": "POST",
      "url": "MeasureReport/a64a0db6-2429-4c6a-9ffd-b12a1738ecb3"
    }
  } ]
}