{
  "resourceType": "Bundle",
  "id": "64d121e71252352a0771c3c4",
  "type": "transaction",
  "entry": [ {
    "fullUrl": "https://madie.cms.gov/Patient/305b7ed0-25c0-4fdf-96aa-a872a74f17e3",
    "resource": {
      "resourceType": "Patient",
      "id": "305b7ed0-25c0-4fdf-96aa-a872a74f17e3",
      "meta": {
        "profile": [ "http://hl7.org/fhir/us/qicore/StructureDefinition/qicore-patient" ]
      },
      "extension": [ {
        "url": "http://hl7.org/fhir/us/core/StructureDefinition/us-core-race",
        "extension": [ {
          "url": "ombCategory",
          "valueCoding": {
            "system": "urn:oid:2.16.840.1.113883.6.238",
            "code": "1002-5",
            "display": "American Indian or Alaska Native",
            "userSelected": true
          }
        }, {
          "url": "text",
          "valueString": "American Indian or Alaska Native"
        } ]
      }, {
        "url": "http://hl7.org/fhir/us/core/StructureDefinition/us-core-ethnicity",
        "extension": [ {
          "url": "ombCategory",
          "valueCoding": {
            "system": "urn:oid:2.16.840.1.113883.6.238",
            "code": "2186-5",
            "display": "Not Hispanic or Latino",
            "userSelected": true
          }
        }, {
          "url": "text",
          "valueString": "Not Hispanic or Latino"
        } ]
      } ],
      "identifier": [ {
        "type": {
          "coding": [ {
            "system": "http://terminology.hl7.org/CodeSystem/v2-0203",
            "code": "MR"
          } ]
        },
        "system": "https://bonnie-fhir.healthit.gov/",
        "value": "64d121e71252352a0771c3c4"
      } ],
      "name": [ {
        "family": "IPFail",
        "given": [ "Age5Yr11MoOnJan2Edge" ]
      } ],
      "gender": "male",
      "birthDate": "2019-01-02"
    },
    "request": {
      "method": "POST",
      "url": "Patient/305b7ed0-25c0-4fdf-96aa-a872a74f17e3"
    }
  }, {
    "fullUrl": "https://madie.cms.gov/Encounter/psych-visit-psychotherapy-c3c5",
    "resource": {
      "resourceType": "Encounter",
      "id": "psych-visit-psychotherapy-c3c5",
      "meta": {
        "profile": [ "http://hl7.org/fhir/us/qicore/StructureDefinition/qicore-encounter" ]
      },
      "status": "finished",
      "class": {
        "system": "http://terminology.hl7.org/CodeSystem/v3-ActCode",
        "code": "AMB",
        "display": "ambulatory",
        "userSelected": true
      },
      "type": [ {
        "coding": [ {
          "system": "http://www.ama-assn.org/go/cpt",
          "code": "90832",
          "userSelected": true
        } ]
      } ],
      "subject": {
        "reference": "Patient/305b7ed0-25c0-4fdf-96aa-a872a74f17e3"
      },
      "period": {
        "start": "2025-07-12T11:45:00.000+00:00",
        "end": "2025-07-12T11:45:00.000+00:00"
      },
      "diagnosis": [ {
        "condition": {
          "reference": "Condition/major-depressive-disorder-active-c3c6"
        },
        "use": {
          "coding": [ {
            "system": "http://snomed.info/sct",
            "version": "2023-09",
            "code": "10811161000119107",
            "display": "Major depressive disorder in mother complicating pregnancy (disorder)",
            "userSelected": true
          } ]
        }
      } ]
    },
    "request": {
      "method": "POST",
      "url": "Encounter/psych-visit-psychotherapy-c3c5"
    }
  }, {
    "fullUrl": "https://madie.cms.gov/Condition/major-depressive-disorder-active-c3c6",
    "resource": {
      "resourceType": "Condition",
      "id": "major-depressive-disorder-active-c3c6",
      "meta": {
        "profile": [ "http://hl7.org/fhir/us/qicore/StructureDefinition/qicore-condition" ]
      },
      "category": [ {
        "coding": [ {
          "system": "http://terminology.hl7.org/CodeSystem/condition-category",
          "code": "encounter-diagnosis",
          "display": "Encounter Diagnosis"
        } ]
      } ],
      "code": {
        "coding": [ {
          "system": "http://snomed.info/sct",
          "version": "2023-09",
          "code": "10811121000119102",
          "display": "Major depressive disorder in mother complicating childbirth (disorder)",
          "userSelected": true
        } ]
      },
      "subject": {
        "reference": "Patient/305b7ed0-25c0-4fdf-96aa-a872a74f17e3"
      },
      "recordedDate": "2025-07-12T11:45:00.000+00:00"
    },
    "request": {
      "method": "POST",
      "url": "Condition/major-depressive-disorder-active-c3c6"
    }
  }, {
    "fullUrl": "https://madie.cms.gov/Procedure/suicide-risk-assessment-procedure-c3c7",
    "resource": {
      "resourceType": "Procedure",
      "id": "suicide-risk-assessment-procedure-c3c7",
      "meta": {
        "profile": [ "http://hl7.org/fhir/us/qicore/StructureDefinition/qicore-procedure" ]
      },
      "extension": [ {
        "url": "http://hl7.org/fhir/us/qicore/StructureDefinition/qicore-recorded",
        "valueDateTime": "2025-07-12T11:45:00.000Z"
      } ],
      "status": "completed",
      "code": {
        "coding": [ {
          "system": "http://snomed.info/sct",
          "code": "225337009",
          "display": "Suicide risk assessment (procedure)",
          "userSelected": true
        } ]
      },
      "subject": {
        "reference": "Patient/305b7ed0-25c0-4fdf-96aa-a872a74f17e3"
      },
      "performedPeriod": {
        "start": "2025-07-12T11:45:00.000+00:00",
        "end": "2025-07-12T11:45:00.000+00:00"
      }
    },
    "request": {
      "method": "POST",
      "url": "Procedure/suicide-risk-assessment-procedure-c3c7"
    }
  }, {
    "fullUrl": "https://madie.cms.gov/Coverage/Coverage-1",
    "resource": {
      "resourceType": "Coverage",
      "id": "Coverage-1",
      "meta": {
        "profile": [ "http://hl7.org/fhir/us/qicore/StructureDefinition/qicore-coverage" ]
      },
      "identifier": [ {
        "system": "http://benefitsinc.com/certificate",
        "value": "12345"
      } ],
      "status": "active",
      "type": {
        "coding": [ {
          "system": "https://nahdo.org/sopt",
          "version": "9.2",
          "code": "1",
          "display": "MEDICARE",
          "userSelected": true
        } ]
      },
      "beneficiary": {
        "reference": "Patient/305b7ed0-25c0-4fdf-96aa-a872a74f17e3"
      },
      "period": {
        "start": "2025-01-28T08:00:00.000+00:00",
        "end": "2025-08-28T00:15:00.000+00:00"
      },
      "payor": [ {
        "reference": "Organization/Organization-2"
      } ]
    },
    "request": {
      "method": "POST",
      "url": "Coverage/Coverage-1"
    }
  }, {
    "fullUrl": "https://madie.cms.gov/MeasureReport/4752eecd-662e-4d51-8671-0e3839a94d61",
    "resource": {
      "resourceType": "MeasureReport",
      "id": "4752eecd-662e-4d51-8671-0e3839a94d61",
      "meta": {
        "profile": [ "http://hl7.org/fhir/us/cqfmeasures/StructureDefinition/test-case-cqfm" ]
      },
      "contained": [ {
        "resourceType": "Parameters",
        "id": "36c22fa0-9659-48fa-9ea1-998c537363aa-parameters",
        "parameter": [ {
          "name": "subject",
          "valueString": "305b7ed0-25c0-4fdf-96aa-a872a74f17e3"
        } ]
      } ],
      "extension": [ {
        "url": "http://hl7.org/fhir/us/cqfmeasures/StructureDefinition/cqfm-inputParameters",
        "valueReference": {
          "reference": "#36c22fa0-9659-48fa-9ea1-998c537363aa-parameters"
        }
      }, {
        "url": "http://hl7.org/fhir/us/cqfmeasures/StructureDefinition/cqfm-testCaseDescription",
        "valueMarkdown": "Patient is 5 years 11 months 30 days at the start of the MP with depression and suicide risk assessment during psychotherapy encounter. "
      } ],
      "modifierExtension": [ {
        "url": "http://hl7.org/fhir/us/cqfmeasures/StructureDefinition/cqfm-isTestCase",
        "valueBoolean": true
      } ],
      "status": "complete",
      "type": "individual",
      "measure": "https://madie.cms.gov/Measure/ChildandAdolescentMajorDepressiveDisorderMDDSuicideRiskAssessmentFHIR",
      "period": {
        "start": "2025-01-01",
        "end": "2025-12-31"
      },
      "group": [ {
        "population": [ {
          "code": {
            "coding": [ {
              "system": "http://terminology.hl7.org/CodeSystem/measure-population",
              "code": "initial-population",
              "display": "Initial Population"
            } ]
          },
          "count": 0
        }, {
          "code": {
            "coding": [ {
              "system": "http://terminology.hl7.org/CodeSystem/measure-population",
              "code": "denominator",
              "display": "Denominator"
            } ]
          },
          "count": 0
        }, {
          "code": {
            "coding": [ {
              "system": "http://terminology.hl7.org/CodeSystem/measure-population",
              "code": "numerator",
              "display": "Numerator"
            } ]
          },
          "count": 0
        } ]
      } ],
      "evaluatedResource": [ {
        "reference": "Patient/305b7ed0-25c0-4fdf-96aa-a872a74f17e3"
      }, {
        "reference": "Encounter/psych-visit-psychotherapy-c3c5"
      }, {
        "reference": "Condition/major-depressive-disorder-active-c3c6"
      }, {
        "reference": "Procedure/suicide-risk-assessment-procedure-c3c7"
      }, {
        "reference": "Coverage/Coverage-1"
      } ]
    },
    "request": {
      "method": "POST",
      "url": "MeasureReport/4752eecd-662e-4d51-8671-0e3839a94d61"
    }
  } ]
}