{
  "resourceType": "Bundle",
  "id": "ScreNotatriNorefAsseModNodxCp4",
  "type": "transaction",
  "entry": [ {
    "fullUrl": "https://madie.cms.gov/Patient/997a0126-0a02-4157-a081-53ee4013a412",
    "resource": {
      "resourceType": "Patient",
      "id": "997a0126-0a02-4157-a081-53ee4013a412",
      "meta": {
        "profile": [ "http://hl7.org/fhir/us/qicore/StructureDefinition/qicore-patient" ]
      },
      "text": {
        "status": "generated",
        "div": "<div xmlns=\"http://www.w3.org/1999/xhtml\"><div class=\"hapiHeaderText\">ScreNotatriNorefAsseModNodxCp4, , <b> </b></div><table class=\"hapiPropertyTable\"><tbody><tr><td>Identifier</td><td>ScreNotatriNorefAsseModNodxCp4</td></tr><tr><td>Date of birth</td><td><span>14 May 1950</span></td></tr></tbody></table></div>"
      },
      "extension": [ {
        "url": "http://hl7.org/fhir/us/core/StructureDefinition/us-core-race",
        "extension": [ {
          "url": "ombCategory",
          "valueCoding": {
            "system": "urn:oid:2.16.840.1.113883.6.238",
            "code": "2106-3",
            "display": "White",
            "userSelected": true
          }
        }, {
          "url": "text",
          "valueString": "White"
        } ]
      }, {
        "url": "http://hl7.org/fhir/us/core/StructureDefinition/us-core-ethnicity",
        "extension": [ {
          "url": "ombCategory",
          "valueCoding": {
            "system": "urn:oid:2.16.840.1.113883.6.238",
            "code": "2186-5",
            "display": "Not Hispanic or Latino",
            "userSelected": true
          }
        }, {
          "url": "text",
          "valueString": "Not Hispanic or Latino"
        } ]
      } ],
      "identifier": [ {
        "type": {
          "coding": [ {
            "system": "http://terminology.hl7.org/CodeSystem/v2-0203",
            "code": "MR"
          } ]
        },
        "system": "https://madie.cms.gov/",
        "value": "ScreNotatriNorefAsseModNodxCp4"
      } ],
      "active": true,
      "name": [ {
        "use": "usual",
        "text": "ScreNotatriNorefAsseModNodxCp4",
        "family": "DENOMPass1",
        "given": [ "ScreNotatriNorefAsseModNodxCp4DENOMPass1" ]
      } ],
      "gender": "male",
      "birthDate": "1950-05-14",
      "address": [ {
        "text": "ScreNotatriNorefAsseModNodxCp4, Screened Not at risk Assessed Severely Malnourished Diagnosed Care Plan, ID=ScreNotatriNorefAsseModNodxCp4, DOB: 14 May 1950"
      } ]
    },
    "request": {
      "method": "POST",
      "url": "Patient/997a0126-0a02-4157-a081-53ee4013a412"
    }
  }, {
    "fullUrl": "https://madie.cms.gov/Encounter/ScreNotatriNorefAsseModNodxCp4-01",
    "resource": {
      "resourceType": "Encounter",
      "id": "ScreNotatriNorefAsseModNodxCp4-01",
      "meta": {
        "profile": [ "http://hl7.org/fhir/us/qicore/StructureDefinition/qicore-encounter" ]
      },
      "status": "finished",
      "class": {
        "system": "http://terminology.hl7.org/CodeSystem/v3-ActCode",
        "code": "IMP",
        "display": "inpatient encounter"
      },
      "type": [ {
        "coding": [ {
          "system": "http://snomed.info/sct",
          "code": "183452005"
        } ]
      } ],
      "subject": {
        "reference": "Patient/997a0126-0a02-4157-a081-53ee4013a412"
      },
      "period": {
        "start": "2026-02-01T08:00:00.000Z",
        "end": "2026-02-07T08:15:00.000Z"
      }
    },
    "request": {
      "method": "POST",
      "url": "Encounter/ScreNotatriNorefAsseModNodxCp4-01"
    }
  }, {
    "fullUrl": "https://madie.cms.gov/Observation/ScreNotatriNorefAsseModNodxCp4-18",
    "resource": {
      "resourceType": "Observation",
      "id": "ScreNotatriNorefAsseModNodxCp4-18",
      "meta": {
        "profile": [ "http://hl7.org/fhir/us/qicore/StructureDefinition/qicore-observation" ]
      },
      "status": "final",
      "category": [ {
        "coding": [ {
          "system": "http://terminology.hl7.org/CodeSystem/observation-category",
          "code": "survey",
          "display": "Survey"
        } ]
      } ],
      "code": {
        "coding": [ {
          "system": "http://loinc.org",
          "code": "98967-3",
          "display": "Nutritional Risk Screening 2002 panel",
          "userSelected": true
        } ]
      },
      "subject": {
        "reference": "Patient/997a0126-0a02-4157-a081-53ee4013a412"
      },
      "effectiveDateTime": "2026-02-01T09:00:00.000+00:00",
      "valueCodeableConcept": {
        "coding": [ {
          "system": "http://loinc.org",
          "code": "LA33699-2",
          "display": "Not at risk for malnutrition",
          "userSelected": true
        } ]
      }
    },
    "request": {
      "method": "POST",
      "url": "Observation/ScreNotatriNorefAsseModNodxCp4-18"
    }
  }, {
    "fullUrl": "https://madie.cms.gov/Observation/ScreNotatriNorefAsseModNodxCp4-19",
    "resource": {
      "resourceType": "Observation",
      "id": "ScreNotatriNorefAsseModNodxCp4-19",
      "meta": {
        "profile": [ "http://hl7.org/fhir/us/qicore/StructureDefinition/qicore-observation" ]
      },
      "status": "final",
      "category": [ {
        "coding": [ {
          "system": "http://terminology.hl7.org/CodeSystem/observation-category",
          "code": "survey",
          "display": "Survey"
        } ]
      } ],
      "code": {
        "coding": [ {
          "system": "http://loinc.org",
          "code": "75303-8",
          "display": "Nutrition assessment narrative",
          "userSelected": true
        } ]
      },
      "subject": {
        "reference": "Patient/997a0126-0a02-4157-a081-53ee4013a412"
      },
      "effectiveDateTime": "2026-02-01T10:00:00.000+00:00",
      "valueCodeableConcept": {
        "coding": [ {
          "system": "http://snomed.info/sct",
          "code": "698859001",
          "display": "Impaired nutrient utilization (finding)",
          "userSelected": true
        } ]
      }
    },
    "request": {
      "method": "POST",
      "url": "Observation/ScreNotatriNorefAsseModNodxCp4-19"
    }
  }, {
    "fullUrl": "https://madie.cms.gov/Procedure/ScreNotatriNorefAsseModNodxCp4-08",
    "resource": {
      "resourceType": "Procedure",
      "id": "ScreNotatriNorefAsseModNodxCp4-08",
      "meta": {
        "profile": [ "http://hl7.org/fhir/us/qicore/StructureDefinition/qicore-procedure" ]
      },
      "extension": [ {
        "url": "http://hl7.org/fhir/us/qicore/StructureDefinition/qicore-recorded",
        "valueDateTime": "2025-02-02T11:30:00.000Z"
      } ],
      "status": "completed",
      "code": {
        "coding": [ {
          "system": "http://snomed.info/sct",
          "code": "418995006",
          "display": "Feeding regime (regime/therapy)"
        } ],
        "text": "Feeding regime (regime/therapy)"
      },
      "subject": {
        "reference": "Patient/997a0126-0a02-4157-a081-53ee4013a412"
      },
      "encounter": {
        "reference": "Encounter/ScreNotatriNorefAsseModNodxCp4DENOMPass1"
      },
      "performedPeriod": {
        "start": "2026-02-01T11:30:00.000Z",
        "end": "2026-02-07T08:15:00.000Z"
      }
    },
    "request": {
      "method": "POST",
      "url": "Procedure/ScreNotatriNorefAsseModNodxCp4-08"
    }
  }, {
    "fullUrl": "https://madie.cms.gov/Coverage/ScreNotatriNorefAsseModNodxCp4-61",
    "resource": {
      "resourceType": "Coverage",
      "id": "ScreNotatriNorefAsseModNodxCp4-61",
      "meta": {
        "profile": [ "http://hl7.org/fhir/us/qicore/StructureDefinition/qicore-coverage" ]
      },
      "status": "active",
      "type": {
        "coding": [ {
          "system": "https://nahdo.org/sopt",
          "version": "9.2",
          "code": "11",
          "display": "Medicare Managed Care (Includes Medicare Advantage Plans)"
        } ]
      },
      "beneficiary": {
        "reference": "Patient/997a0126-0a02-4157-a081-53ee4013a412"
      },
      "period": {
        "start": "2024-10-01T00:00:00+00:00"
      },
      "payor": [ {
        "reference": "Organization/ScreNotatriNorefAsseModNodxCp4-98"
      } ]
    },
    "request": {
      "method": "POST",
      "url": "Coverage/ScreNotatriNorefAsseModNodxCp4-61"
    }
  }, {
    "fullUrl": "https://madie.cms.gov/Organization/ScreNotatriNorefAsseModNodxCp4-98",
    "resource": {
      "resourceType": "Organization",
      "id": "ScreNotatriNorefAsseModNodxCp4-98",
      "meta": {
        "profile": [ "http://hl7.org/fhir/us/qicore/StructureDefinition/qicore-organization" ]
      },
      "identifier": [ {
        "use": "temp",
        "system": "urn:oid:2.16.840.1.113883.4.4",
        "value": "21-3259825"
      } ],
      "active": true,
      "type": [ {
        "coding": [ {
          "system": "http://terminology.hl7.org/CodeSystem/organization-type",
          "code": "pay",
          "display": "Payer"
        } ]
      } ],
      "name": "Blue Cross Blue Shield of Texas",
      "telecom": [ {
        "system": "phone",
        "value": "(+1) 972-766-6900"
      } ],
      "address": [ {
        "use": "billing",
        "type": "postal",
        "line": [ "P.O. Box 660044" ],
        "city": "Dallas",
        "state": "TX",
        "postalCode": "75266-0044",
        "country": "USA"
      } ]
    },
    "request": {
      "method": "POST",
      "url": "Organization/ScreNotatriNorefAsseModNodxCp4-98"
    }
  }, {
    "fullUrl": "https://madie.cms.gov/MeasureReport/24f038e0-ee54-42d1-9de2-ef522e28d55d",
    "resource": {
      "resourceType": "MeasureReport",
      "id": "24f038e0-ee54-42d1-9de2-ef522e28d55d",
      "meta": {
        "profile": [ "http://hl7.org/fhir/us/cqfmeasures/StructureDefinition/test-case-cqfm" ]
      },
      "contained": [ {
        "resourceType": "Parameters",
        "id": "5eccd856-2a96-4dca-9912-89bd07601d52-parameters",
        "parameter": [ {
          "name": "subject",
          "valueString": "997a0126-0a02-4157-a081-53ee4013a412"
        } ]
      } ],
      "extension": [ {
        "url": "http://hl7.org/fhir/us/cqfmeasures/StructureDefinition/cqfm-inputParameters",
        "valueReference": {
          "reference": "#5eccd856-2a96-4dca-9912-89bd07601d52-parameters"
        }
      }, {
        "url": "http://hl7.org/fhir/us/cqfmeasures/StructureDefinition/cqfm-testCaseDescription",
        "valueMarkdown": "Screened, Not at Risk, No Referral, Assessed, Moderate Malnutrition, No Diagnosis, Nutrition Care Plan"
      } ],
      "modifierExtension": [ {
        "url": "http://hl7.org/fhir/us/cqfmeasures/StructureDefinition/cqfm-isTestCase",
        "valueBoolean": true
      } ],
      "status": "complete",
      "type": "individual",
      "measure": "https://madie.cms.gov/Measure/GlobalMalnutritionCompositeFHIR",
      "period": {
        "start": "2026-01-01",
        "end": "2026-12-31"
      },
      "group": [ {
        "population": [ {
          "code": {
            "coding": [ {
              "system": "http://terminology.hl7.org/CodeSystem/measure-population",
              "code": "initial-population",
              "display": "Initial Population"
            } ]
          },
          "count": 1
        }, {
          "code": {
            "coding": [ {
              "system": "http://terminology.hl7.org/CodeSystem/measure-population",
              "code": "measure-population",
              "display": "Measure Population"
            } ]
          },
          "count": 1
        }, {
          "code": {
            "coding": [ {
              "system": "http://terminology.hl7.org/CodeSystem/measure-population",
              "code": "measure-population-observation",
              "display": "Measure Population Observation"
            } ]
          },
          "count": 1
        } ]
      }, {
        "population": [ {
          "code": {
            "coding": [ {
              "system": "http://terminology.hl7.org/CodeSystem/measure-population",
              "code": "initial-population",
              "display": "Initial Population"
            } ]
          },
          "count": 1
        }, {
          "code": {
            "coding": [ {
              "system": "http://terminology.hl7.org/CodeSystem/measure-population",
              "code": "measure-population",
              "display": "Measure Population"
            } ]
          },
          "count": 1
        }, {
          "code": {
            "coding": [ {
              "system": "http://terminology.hl7.org/CodeSystem/measure-population",
              "code": "measure-population-observation",
              "display": "Measure Population Observation"
            } ]
          },
          "count": 0
        } ]
      }, {
        "population": [ {
          "code": {
            "coding": [ {
              "system": "http://terminology.hl7.org/CodeSystem/measure-population",
              "code": "initial-population",
              "display": "Initial Population"
            } ]
          },
          "count": 1
        }, {
          "code": {
            "coding": [ {
              "system": "http://terminology.hl7.org/CodeSystem/measure-population",
              "code": "measure-population",
              "display": "Measure Population"
            } ]
          },
          "count": 1
        }, {
          "code": {
            "coding": [ {
              "system": "http://terminology.hl7.org/CodeSystem/measure-population",
              "code": "measure-population-observation",
              "display": "Measure Population Observation"
            } ]
          },
          "count": 0
        } ]
      }, {
        "population": [ {
          "code": {
            "coding": [ {
              "system": "http://terminology.hl7.org/CodeSystem/measure-population",
              "code": "initial-population",
              "display": "Initial Population"
            } ]
          },
          "count": 1
        }, {
          "code": {
            "coding": [ {
              "system": "http://terminology.hl7.org/CodeSystem/measure-population",
              "code": "measure-population",
              "display": "Measure Population"
            } ]
          },
          "count": 1
        }, {
          "code": {
            "coding": [ {
              "system": "http://terminology.hl7.org/CodeSystem/measure-population",
              "code": "measure-population-observation",
              "display": "Measure Population Observation"
            } ]
          },
          "count": 0
        } ]
      }, {
        "population": [ {
          "code": {
            "coding": [ {
              "system": "http://terminology.hl7.org/CodeSystem/measure-population",
              "code": "initial-population",
              "display": "Initial Population"
            } ]
          },
          "count": 1
        }, {
          "code": {
            "coding": [ {
              "system": "http://terminology.hl7.org/CodeSystem/measure-population",
              "code": "measure-population",
              "display": "Measure Population"
            } ]
          },
          "count": 1
        }, {
          "code": {
            "coding": [ {
              "system": "http://terminology.hl7.org/CodeSystem/measure-population",
              "code": "measure-population-observation",
              "display": "Measure Population Observation"
            } ]
          },
          "count": 1
        } ]
      }, {
        "population": [ {
          "code": {
            "coding": [ {
              "system": "http://terminology.hl7.org/CodeSystem/measure-population",
              "code": "initial-population",
              "display": "Initial Population"
            } ]
          },
          "count": 1
        }, {
          "code": {
            "coding": [ {
              "system": "http://terminology.hl7.org/CodeSystem/measure-population",
              "code": "measure-population",
              "display": "Measure Population"
            } ]
          },
          "count": 1
        }, {
          "code": {
            "coding": [ {
              "system": "http://terminology.hl7.org/CodeSystem/measure-population",
              "code": "measure-population-observation",
              "display": "Measure Population Observation"
            } ]
          },
          "count": 100
        } ]
      } ],
      "evaluatedResource": [ {
        "reference": "https://madie.cms.gov/Patient/997a0126-0a02-4157-a081-53ee4013a412"
      }, {
        "reference": "https://madie.cms.gov/Encounter/ScreNotatriNorefAsseModNodxCp4-01"
      }, {
        "reference": "https://madie.cms.gov/Observation/ScreNotatriNorefAsseModNodxCp4-18"
      }, {
        "reference": "https://madie.cms.gov/Observation/ScreNotatriNorefAsseModNodxCp4-19"
      }, {
        "reference": "https://madie.cms.gov/Procedure/ScreNotatriNorefAsseModNodxCp4-08"
      }, {
        "reference": "https://madie.cms.gov/Coverage/ScreNotatriNorefAsseModNodxCp4-61"
      }, {
        "reference": "https://madie.cms.gov/Organization/ScreNotatriNorefAsseModNodxCp4-98"
      } ]
    },
    "request": {
      "method": "POST",
      "url": "MeasureReport/24f038e0-ee54-42d1-9de2-ef522e28d55d"
    }
  } ]
}