{
  "resourceType": "Bundle",
  "id": "6077319098086b6fb8f00ab2",
  "type": "transaction",
  "entry": [ {
    "fullUrl": "https://madie.cms.gov/Patient/92e567b3-9d68-4c50-9be6-36e0ca7b96f5",
    "resource": {
      "resourceType": "Patient",
      "id": "92e567b3-9d68-4c50-9be6-36e0ca7b96f5",
      "meta": {
        "profile": [ "http://hl7.org/fhir/us/qicore/StructureDefinition/qicore-patient" ]
      },
      "extension": [ {
        "url": "http://hl7.org/fhir/us/core/StructureDefinition/us-core-race",
        "extension": [ {
          "url": "ombCategory",
          "valueCoding": {
            "system": "urn:oid:2.16.840.1.113883.6.238",
            "code": "2054-5",
            "display": "Black or African American",
            "userSelected": true
          }
        }, {
          "url": "text",
          "valueString": "Black or African American"
        } ]
      }, {
        "url": "http://hl7.org/fhir/us/core/StructureDefinition/us-core-ethnicity",
        "extension": [ {
          "url": "ombCategory",
          "valueCoding": {
            "system": "urn:oid:2.16.840.1.113883.6.238",
            "code": "2135-2",
            "display": "Hispanic or Latino",
            "userSelected": true
          }
        }, {
          "url": "text",
          "valueString": "Hispanic or Latino"
        } ]
      } ],
      "identifier": [ {
        "type": {
          "coding": [ {
            "system": "http://terminology.hl7.org/CodeSystem/v2-0203",
            "code": "MR"
          } ]
        },
        "system": "https://bonnie-fhir.healthit.gov/",
        "value": "6077319098086b6fb8f00ab2"
      } ],
      "active": true,
      "name": [ {
        "use": "usual",
        "family": "NUMERPass",
        "given": [ "PtDeceasedInMP" ]
      } ],
      "gender": "male",
      "birthDate": "1941-07-04",
      "deceasedDateTime": "2013-09-01T08:00:00.000Z"
    },
    "request": {
      "method": "POST",
      "url": "Patient/92e567b3-9d68-4c50-9be6-36e0ca7b96f5"
    }
  }, {
    "fullUrl": "https://madie.cms.gov/Encounter/5c9c655db84846632d66dd44",
    "resource": {
      "resourceType": "Encounter",
      "id": "5c9c655db84846632d66dd44",
      "meta": {
        "profile": [ "http://hl7.org/fhir/us/qicore/StructureDefinition/qicore-encounter" ]
      },
      "status": "finished",
      "class": {
        "system": "http://terminology.hl7.org/CodeSystem/v3-ActCode",
        "code": "AMB",
        "display": "ambulatory"
      },
      "type": [ {
        "coding": [ {
          "system": "http://www.ama-assn.org/go/cpt",
          "code": "99203"
        } ]
      } ],
      "subject": {
        "reference": "Patient/92e567b3-9d68-4c50-9be6-36e0ca7b96f5"
      },
      "period": {
        "start": "2025-02-01T08:00:00+00:00",
        "end": "2025-02-01T08:15:00+00:00"
      }
    },
    "request": {
      "method": "POST",
      "url": "Encounter/5c9c655db84846632d66dd44"
    }
  }, {
    "fullUrl": "https://madie.cms.gov/Condition/5c9c655db84846632d66dd43",
    "resource": {
      "resourceType": "Condition",
      "id": "5c9c655db84846632d66dd43",
      "meta": {
        "profile": [ "http://hl7.org/fhir/us/qicore/StructureDefinition/qicore-condition" ]
      },
      "clinicalStatus": {
        "coding": [ {
          "system": "http://terminology.hl7.org/CodeSystem/condition-clinical",
          "code": "active"
        } ]
      },
      "verificationStatus": {
        "coding": [ {
          "system": "http://terminology.hl7.org/CodeSystem/condition-ver-status",
          "code": "confirmed"
        } ]
      },
      "category": [ {
        "coding": [ {
          "system": "http://terminology.hl7.org/CodeSystem/condition-category",
          "code": "problem-list-item",
          "display": "Problem List Item"
        } ]
      } ],
      "code": {
        "coding": [ {
          "system": "http://hl7.org/fhir/sid/icd-10-cm",
          "code": "C61"
        } ]
      },
      "subject": {
        "reference": "Patient/92e567b3-9d68-4c50-9be6-36e0ca7b96f5"
      },
      "onsetPeriod": {
        "start": "2025-02-01T08:00:00+00:00"
      }
    },
    "request": {
      "method": "POST",
      "url": "Condition/5c9c655db84846632d66dd43"
    }
  }, {
    "fullUrl": "https://madie.cms.gov/MedicationRequest/5c9c655db84846632d66dd45",
    "resource": {
      "resourceType": "MedicationRequest",
      "id": "5c9c655db84846632d66dd45",
      "meta": {
        "profile": [ "http://hl7.org/fhir/us/qicore/StructureDefinition/qicore-medicationrequest" ]
      },
      "status": "active",
      "intent": "order",
      "doNotPerform": false,
      "medicationCodeableConcept": {
        "coding": [ {
          "system": "http://www.nlm.nih.gov/research/umls/rxnorm",
          "code": "1946519"
        } ]
      },
      "subject": {
        "reference": "Patient/92e567b3-9d68-4c50-9be6-36e0ca7b96f5"
      },
      "authoredOn": "2025-02-01T08:00:00.000+00:00",
      "requester": {
        "reference": "http://myGoodHealthcare.com/fhir/Practitioner/646346"
      },
      "dosageInstruction": [ {
        "timing": {
          "repeat": {
            "boundsPeriod": {
              "start": "2025-02-01T08:00:00.000+00:00",
              "end": "2025-03-01T08:15:00.000+00:00"
            }
          }
        }
      } ]
    },
    "request": {
      "method": "POST",
      "url": "MedicationRequest/5c9c655db84846632d66dd45"
    }
  }, {
    "fullUrl": "https://madie.cms.gov/Practitioner/646346",
    "resource": {
      "resourceType": "Practitioner",
      "id": "646346",
      "meta": {
        "profile": [ "http://hl7.org/fhir/us/qicore/StructureDefinition/qicore-practitioner" ]
      },
      "identifier": [ {
        "use": "temp",
        "system": "urn:oid:2.16.840.1.113883.4.336",
        "value": "Practitioner-23"
      } ],
      "active": true,
      "name": [ {
        "family": "Careful",
        "given": [ "Adam" ],
        "prefix": [ "Dr" ]
      } ],
      "address": [ {
        "use": "home",
        "line": [ "534 Erewhon St" ],
        "city": "PleasantVille",
        "state": "UT",
        "postalCode": "84414"
      } ],
      "qualification": [ {
        "identifier": [ {
          "system": "http://example.org/UniversityIdentifier",
          "value": "12345"
        } ],
        "code": {
          "coding": [ {
            "system": "http://terminology.hl7.org/CodeSystem/v2-0360|2.7",
            "code": "BS",
            "display": "Bachelor of Science"
          } ],
          "text": "Bachelor of Science"
        },
        "period": {
          "start": "1995"
        },
        "issuer": {
          "display": "Example University"
        }
      } ]
    },
    "request": {
      "method": "POST",
      "url": "Practitioner/646346"
    }
  }, {
    "fullUrl": "https://madie.cms.gov/ServiceRequest/1321321321",
    "resource": {
      "resourceType": "ServiceRequest",
      "id": "1321321321",
      "meta": {
        "profile": [ "http://hl7.org/fhir/us/qicore/StructureDefinition/qicore-servicerequest" ]
      },
      "status": "active",
      "intent": "order",
      "code": {
        "coding": [ {
          "system": "http://loinc.org",
          "version": "2.71",
          "code": "38265-5",
          "display": "DXA Radius and Ulna [T-score] Bone density",
          "userSelected": true
        } ]
      },
      "subject": {
        "reference": "Patient/92e567b3-9d68-4c50-9be6-36e0ca7b96f5"
      },
      "authoredOn": "2025-03-03T08:00:00.000+00:00"
    },
    "request": {
      "method": "POST",
      "url": "ServiceRequest/1321321321"
    }
  }, {
    "fullUrl": "https://madie.cms.gov/Observation/63546516",
    "resource": {
      "resourceType": "Observation",
      "id": "63546516",
      "meta": {
        "profile": [ "http://hl7.org/fhir/us/qicore/StructureDefinition/qicore-observation" ]
      },
      "status": "final",
      "category": [ {
        "coding": [ {
          "system": "http://terminology.hl7.org/CodeSystem/observation-category",
          "code": "imaging",
          "display": "Imaging"
        } ]
      } ],
      "code": {
        "coding": [ {
          "system": "http://loinc.org",
          "version": "2.71",
          "code": "38265-5",
          "display": "DXA Radius and Ulna [T-score] Bone density",
          "userSelected": true
        } ]
      },
      "subject": {
        "reference": "Patient/92e567b3-9d68-4c50-9be6-36e0ca7b96f5"
      },
      "effectivePeriod": {
        "start": "2025-05-03T08:00:00.000+00:00",
        "end": "2025-05-03T08:15:00.000+00:00"
      }
    },
    "request": {
      "method": "POST",
      "url": "Observation/63546516"
    }
  }, {
    "fullUrl": "https://madie.cms.gov/ServiceRequest/134435131345",
    "resource": {
      "resourceType": "ServiceRequest",
      "id": "134435131345",
      "meta": {
        "profile": [ "http://hl7.org/fhir/us/qicore/StructureDefinition/qicore-servicerequest" ]
      },
      "status": "active",
      "intent": "order",
      "code": {
        "coding": [ {
          "system": "http://snomed.info/sct",
          "code": "456381000124102",
          "display": "Injection of leuprolide acetate for twelve month period (regime/therapy)",
          "userSelected": true
        } ]
      },
      "subject": {
        "reference": "Patient/92e567b3-9d68-4c50-9be6-36e0ca7b96f5"
      },
      "authoredOn": "2025-02-01T08:00:00.000+00:00"
    },
    "request": {
      "method": "POST",
      "url": "ServiceRequest/134435131345"
    }
  }, {
    "fullUrl": "https://madie.cms.gov/MeasureReport/fa3e45a8-356d-4a91-a6b4-4b6539d50ef6",
    "resource": {
      "resourceType": "MeasureReport",
      "id": "fa3e45a8-356d-4a91-a6b4-4b6539d50ef6",
      "meta": {
        "profile": [ "http://hl7.org/fhir/us/cqfmeasures/StructureDefinition/test-case-cqfm" ]
      },
      "contained": [ {
        "resourceType": "Parameters",
        "id": "95d2296b-ef9d-44a3-9184-9919cdf29b88-parameters",
        "parameter": [ {
          "name": "subject",
          "valueString": "92e567b3-9d68-4c50-9be6-36e0ca7b96f5"
        } ]
      } ],
      "extension": [ {
        "url": "http://hl7.org/fhir/us/cqfmeasures/StructureDefinition/cqfm-inputParameters",
        "valueReference": {
          "reference": "#95d2296b-ef9d-44a3-9184-9919cdf29b88-parameters"
        }
      }, {
        "url": "http://hl7.org/fhir/us/cqfmeasures/StructureDefinition/cqfm-testCaseDescription",
        "valueMarkdown": "Patient has dx of Prostate Cancer, and Androgen deprivation therapy for Urology Care is not null with qualifying encounter(s) in MP.  Passes NUMER criteria.  Pt Deceased during MP.  "
      } ],
      "modifierExtension": [ {
        "url": "http://hl7.org/fhir/us/cqfmeasures/StructureDefinition/cqfm-isTestCase",
        "valueBoolean": true
      } ],
      "status": "complete",
      "type": "individual",
      "measure": "https://madie.cms.gov/Measure/BoneDensityProstateCancerAndrogenDeprivationTherapyFHIR",
      "period": {
        "start": "2025-01-01",
        "end": "2025-12-31"
      },
      "group": [ {
        "population": [ {
          "code": {
            "coding": [ {
              "system": "http://terminology.hl7.org/CodeSystem/measure-population",
              "code": "initial-population",
              "display": "Initial Population"
            } ]
          },
          "count": 1
        }, {
          "code": {
            "coding": [ {
              "system": "http://terminology.hl7.org/CodeSystem/measure-population",
              "code": "denominator",
              "display": "Denominator"
            } ]
          },
          "count": 1
        }, {
          "code": {
            "coding": [ {
              "system": "http://terminology.hl7.org/CodeSystem/measure-population",
              "code": "numerator",
              "display": "Numerator"
            } ]
          },
          "count": 1
        }, {
          "code": {
            "coding": [ {
              "system": "http://terminology.hl7.org/CodeSystem/measure-population",
              "code": "denominator-exception",
              "display": "Denominator Exception"
            } ]
          },
          "count": 0
        } ]
      } ],
      "evaluatedResource": [ {
        "reference": "https://madie.cms.gov/Patient/92e567b3-9d68-4c50-9be6-36e0ca7b96f5"
      }, {
        "reference": "https://madie.cms.gov/Encounter/5c9c655db84846632d66dd44"
      }, {
        "reference": "https://madie.cms.gov/Condition/5c9c655db84846632d66dd43"
      }, {
        "reference": "https://madie.cms.gov/MedicationRequest/5c9c655db84846632d66dd45"
      }, {
        "reference": "https://madie.cms.gov/Practitioner/646346"
      }, {
        "reference": "https://madie.cms.gov/ServiceRequest/1321321321"
      }, {
        "reference": "https://madie.cms.gov/Observation/63546516"
      }, {
        "reference": "https://madie.cms.gov/ServiceRequest/134435131345"
      } ]
    },
    "request": {
      "method": "POST",
      "url": "MeasureReport/fa3e45a8-356d-4a91-a6b4-4b6539d50ef6"
    }
  } ]
}