{"resourceType":"Bundle","id":"tests-26408298-880b-468a-9b05-938cee6d8def-bundle","type":"transaction","entry":[{"fullUrl":"https://madie.cms.gov/Patient/26408298-880b-468a-9b05-938cee6d8def","resource":{"resourceType":"Patient","id":"26408298-880b-468a-9b05-938cee6d8def","meta":{"profile":["http://hl7.org/fhir/us/qicore/StructureDefinition/qicore-patient"]},"extension":[{"url":"http://hl7.org/fhir/us/core/StructureDefinition/us-core-race","extension":[{"url":"ombCategory","valueCoding":{"system":"urn:oid:2.16.840.1.113883.6.238","code":"1002-5","display":"American Indian or Alaska Native","userSelected":true}},{"url":"text","valueString":"American Indian or Alaska Native"}]},{"url":"http://hl7.org/fhir/us/core/StructureDefinition/us-core-ethnicity","extension":[{"url":"ombCategory","valueCoding":{"system":"urn:oid:2.16.840.1.113883.6.238","code":"2135-2","display":"Hispanic or Latino","userSelected":true}},{"url":"text","valueString":"Hispanic or Latino"}]}],"identifier":[{"type":{"coding":[{"system":"http://terminology.hl7.org/CodeSystem/v2-0203","code":"MR"}]},"system":"https://bonnie-fhir.healthit.gov/","value":"65554884323df77f00c093e6"}],"name":[{"family":"DENEXPASS","given":["PTHospServices"]}],"gender":"female","birthDate":"1991-10-21"},"request":{"method":"PUT","url":"Patient/26408298-880b-468a-9b05-938cee6d8def"}},{"fullUrl":"https://madie.cms.gov/Condition/hospice-care-minimum-data-set-93e7","resource":{"resourceType":"Condition","id":"10895137-c66c-4941-984f-8806bce0bdfd","meta":{"profile":["http://hl7.org/fhir/us/qicore/StructureDefinition/qicore-condition"]},"clinicalStatus":{"coding":[{"system":"http://terminology.hl7.org/CodeSystem/condition-clinical","code":"active"}]},"category":[{"coding":[{"system":"http://terminology.hl7.org/CodeSystem/condition-category","code":"problem-list-item","display":"problem-list-item","userSelected":true}]}],"code":{"coding":[{"system":"http://snomed.info/sct","code":"170935008","display":"Hospice care procedure","userSelected":true}]},"subject":{"reference":"Patient/26408298-880b-468a-9b05-938cee6d8def"},"onsetDateTime":"2025-01-15T08:00:00.000+00:00","recordedDate":"2025-01-15T08:00:00.000+00:00"},"request":{"method":"PUT","url":"Condition/10895137-c66c-4941-984f-8806bce0bdfd"}},{"fullUrl":"https://madie.cms.gov/Condition/diabetes-93e8","resource":{"resourceType":"Condition","id":"f7969738-3f16-403b-a4da-8c91b6ad1b07","meta":{"profile":["http://hl7.org/fhir/us/qicore/StructureDefinition/qicore-condition"]},"clinicalStatus":{"coding":[{"system":"http://terminology.hl7.org/CodeSystem/condition-clinical","code":"active"}]},"category":[{"coding":[{"system":"http://terminology.hl7.org/CodeSystem/condition-category","code":"encounter-diagnosis","display":"Encounter Diagnosis"}]}],"code":{"coding":[{"system":"http://snomed.info/sct","version":"2021-09","code":"102781000119107","display":"Sensory neuropathy due to type 1 diabetes mellitus (disorder)","userSelected":true}]},"subject":{"reference":"Patient/26408298-880b-468a-9b05-938cee6d8def"},"onsetDateTime":"2020-11-15T08:00:00.000+00:00","recordedDate":"2020-11-15T08:00:00.000+00:00"},"request":{"method":"PUT","url":"Condition/f7969738-3f16-403b-a4da-8c91b6ad1b07"}},{"fullUrl":"https://madie.cms.gov/Encounter/outpatient-consultation-93e9","resource":{"resourceType":"Encounter","id":"cce36535-da1f-4b01-8895-e944669a6f8c","meta":{"profile":["http://hl7.org/fhir/us/qicore/StructureDefinition/qicore-encounter"]},"status":"finished","class":{"system":"http://terminology.hl7.org/CodeSystem/v3-ActCode","code":"AMB","display":"ambulatory"},"type":[{"coding":[{"system":"http://snomed.info/sct","version":"2021-09","code":"281036007","display":"Follow-up consultation (procedure)","userSelected":true}]}],"subject":{"reference":"Patient/26408298-880b-468a-9b05-938cee6d8def"},"period":{"start":"2025-11-15T08:00:00.000+00:00","end":"2025-11-15T08:15:00.000+00:00"}},"request":{"method":"PUT","url":"Encounter/cce36535-da1f-4b01-8895-e944669a6f8c"}},{"fullUrl":"https://madie.cms.gov/Procedure/hospice-care-ambulatory-93eb","resource":{"resourceType":"Procedure","id":"da4e8387-5a05-4335-b0c5-85550ce75fed","meta":{"profile":["http://hl7.org/fhir/us/qicore/StructureDefinition/qicore-procedure"]},"extension":[{"url":"http://hl7.org/fhir/us/qicore/StructureDefinition/qicore-recorded","valueDateTime":"2025-01-02T12:35:00.000Z"}],"status":"completed","code":{"coding":[{"system":"http://snomed.info/sct","version":"2021-09","code":"170935008","display":"Full care by hospice (finding)","userSelected":true}]},"subject":{"reference":"Patient/26408298-880b-468a-9b05-938cee6d8def"},"performedDateTime":"2025-01-15T08:00:00.000+00:00"},"request":{"method":"PUT","url":"Procedure/da4e8387-5a05-4335-b0c5-85550ce75fed"}},{"fullUrl":"https://madie.cms.gov/MeasureReport/7161b53b-de28-4271-8937-b055491c10eb","resource":{"resourceType":"MeasureReport","id":"7161b53b-de28-4271-8937-b055491c10eb","meta":{"profile":["http://hl7.org/fhir/us/cqfmeasures/StructureDefinition/test-case-cqfm"]},"contained":[{"resourceType":"Parameters","id":"bb8324b9-97b5-4df1-968b-0e5f841789b3-parameters","parameter":[{"name":"subject","valueString":"26408298-880b-468a-9b05-938cee6d8def"}]}],"extension":[{"url":"http://hl7.org/fhir/us/cqfmeasures/StructureDefinition/cqfm-inputParameters","valueReference":{"reference":"#bb8324b9-97b5-4df1-968b-0e5f841789b3-parameters"}},{"url":"http://hl7.org/fhir/us/cqfmeasures/StructureDefinition/cqfm-testCaseDescription","valueMarkdown":"Patient has received hospice services and is excluded from the denominator"}],"modifierExtension":[{"url":"http://hl7.org/fhir/us/cqfmeasures/StructureDefinition/cqfm-isTestCase","valueBoolean":true}],"status":"complete","type":"individual","measure":"https://madie.cms.gov/Measure/KidneyHealthEvaluationFHIR","period":{"start":"2025-01-01","end":"2025-12-31"},"group":[{"population":[{"code":{"coding":[{"system":"http://terminology.hl7.org/CodeSystem/measure-population","code":"initial-population","display":"Initial Population"}]},"count":1},{"code":{"coding":[{"system":"http://terminology.hl7.org/CodeSystem/measure-population","code":"denominator","display":"Denominator"}]},"count":1},{"code":{"coding":[{"system":"http://terminology.hl7.org/CodeSystem/measure-population","code":"denominator-exclusion","display":"Denominator Exclusion"}]},"count":1},{"code":{"coding":[{"system":"http://terminology.hl7.org/CodeSystem/measure-population","code":"numerator","display":"Numerator"}]},"count":0}]}]},"request":{"method":"PUT","url":"MeasureReport/7161b53b-de28-4271-8937-b055491c10eb"}}]}