{"resourceType":"Bundle","id":"tests-95ee3081-b973-4bd2-8b86-5b46bd664905-bundle","type":"transaction","entry":[{"fullUrl":"https://madie.cms.gov/Patient/95ee3081-b973-4bd2-8b86-5b46bd664905","resource":{"resourceType":"Patient","id":"95ee3081-b973-4bd2-8b86-5b46bd664905","meta":{"profile":["http://hl7.org/fhir/us/qicore/StructureDefinition/qicore-patient"]},"extension":[{"url":"http://hl7.org/fhir/us/core/StructureDefinition/us-core-race","extension":[{"url":"ombCategory","valueCoding":{"system":"urn:oid:2.16.840.1.113883.6.238","code":"2076-8","display":"Native Hawaiian or Other Pacific Islander","userSelected":true}},{"url":"text","valueString":"Native Hawaiian or Other Pacific Islander"}]},{"url":"http://hl7.org/fhir/us/core/StructureDefinition/us-core-ethnicity","extension":[{"url":"ombCategory","valueCoding":{"system":"urn:oid:2.16.840.1.113883.6.238","code":"2186-5","display":"Not Hispanic or Latino","userSelected":true}},{"url":"text","valueString":"Not Hispanic or Latino"}]}],"identifier":[{"type":{"coding":[{"system":"http://terminology.hl7.org/CodeSystem/v2-0203","code":"MR"}]},"system":"https://bonnie-fhir.healthit.gov/","value":"641382ea4b11b147841ab91d"}],"name":[{"family":"NUMERPass","given":["OutpatientEGFRAndUACR"]}],"gender":"female","birthDate":"1956-12-01"},"request":{"method":"PUT","url":"Patient/95ee3081-b973-4bd2-8b86-5b46bd664905"}},{"fullUrl":"https://madie.cms.gov/Condition/diabetes-b917","resource":{"resourceType":"Condition","id":"2e262998-f220-4e08-a567-c7a9527e90ae","meta":{"profile":["http://hl7.org/fhir/us/qicore/StructureDefinition/qicore-condition"]},"clinicalStatus":{"coding":[{"system":"http://terminology.hl7.org/CodeSystem/condition-clinical","code":"active","display":"active","userSelected":true}]},"category":[{"coding":[{"system":"http://terminology.hl7.org/CodeSystem/condition-category","code":"encounter-diagnosis","display":"Encounter Diagnosis","userSelected":true}]}],"code":{"coding":[{"system":"http://snomed.info/sct","version":"2021-09","code":"102781000119107","display":"Sensory neuropathy due to type 1 diabetes mellitus (disorder)","userSelected":true}]},"subject":{"reference":"Patient/95ee3081-b973-4bd2-8b86-5b46bd664905"},"onsetDateTime":"2023-12-14T08:00:00.000+00:00"},"request":{"method":"PUT","url":"Condition/2e262998-f220-4e08-a567-c7a9527e90ae"}},{"fullUrl":"https://madie.cms.gov/Observation/estimated-glomerular-filtration-rate-b919","resource":{"resourceType":"Observation","id":"f8b347dc-7756-486a-ab78-84b8a6fc3221","meta":{"profile":["http://hl7.org/fhir/us/qicore/StructureDefinition/qicore-observation"]},"status":"amended","category":[{"coding":[{"system":"http://terminology.hl7.org/CodeSystem/observation-category","code":"laboratory","display":"Laboratory","userSelected":true}]}],"code":{"coding":[{"system":"http://loinc.org","version":"2.71","code":"48642-3","display":"Glomerular filtration rate/1.73 sq M.predicted among non-blacks [Volume Rate/Area] in Serum, Plasma or Blood by Creatinine-based formula (MDRD)","userSelected":true}]},"subject":{"reference":"Patient/95ee3081-b973-4bd2-8b86-5b46bd664905"},"effectiveDateTime":"2025-03-16T08:00:00.000+00:00","valueBoolean":true},"request":{"method":"PUT","url":"Observation/f8b347dc-7756-486a-ab78-84b8a6fc3221"}},{"fullUrl":"https://madie.cms.gov/Observation/urine-albumin-creatinine-ratio-b91a","resource":{"resourceType":"Observation","id":"ec8c68dc-cda7-40fc-8926-7711b8ad8c1b","meta":{"profile":["http://hl7.org/fhir/us/qicore/StructureDefinition/qicore-observation"]},"status":"corrected","category":[{"coding":[{"system":"http://terminology.hl7.org/CodeSystem/observation-category","code":"laboratory","display":"Laboratory","userSelected":true}]}],"code":{"coding":[{"system":"http://loinc.org","version":"2.71","code":"13705-9","display":"Albumin/Creatinine [Mass Ratio] in 24 hour Urine","userSelected":true}]},"subject":{"reference":"Patient/95ee3081-b973-4bd2-8b86-5b46bd664905"},"effectiveDateTime":"2025-03-16T08:00:00.000+00:00","valueBoolean":true},"request":{"method":"PUT","url":"Observation/ec8c68dc-cda7-40fc-8926-7711b8ad8c1b"}},{"fullUrl":"https://madie.cms.gov/Encounter/outpatient-consultation-b91e","resource":{"resourceType":"Encounter","id":"abc0dc20-1427-4ab4-9a0c-cbe07cfee7f5","meta":{"profile":["http://hl7.org/fhir/us/qicore/StructureDefinition/qicore-encounter"]},"status":"finished","class":{"system":"http://terminology.hl7.org/CodeSystem/v3-ActCode","code":"AMB","display":"ambulatory","userSelected":true},"type":[{"coding":[{"system":"http://snomed.info/sct","version":"2021-09","code":"281036007","display":"Follow-up consultation (procedure)","userSelected":true}]}],"subject":{"reference":"Patient/95ee3081-b973-4bd2-8b86-5b46bd664905"},"period":{"start":"2025-03-16T08:00:00.000+00:00","end":"2025-03-16T08:15:00.000+00:00"}},"request":{"method":"PUT","url":"Encounter/abc0dc20-1427-4ab4-9a0c-cbe07cfee7f5"}},{"fullUrl":"https://madie.cms.gov/MeasureReport/f109fb86-e3b0-459b-a2fe-d2a97c65c5a8","resource":{"resourceType":"MeasureReport","id":"f109fb86-e3b0-459b-a2fe-d2a97c65c5a8","meta":{"profile":["http://hl7.org/fhir/us/cqfmeasures/StructureDefinition/test-case-cqfm"]},"contained":[{"resourceType":"Parameters","id":"768069d1-465a-4606-9c18-8e8fb6e9e309-parameters","parameter":[{"name":"subject","valueString":"95ee3081-b973-4bd2-8b86-5b46bd664905"}]}],"extension":[{"url":"http://hl7.org/fhir/us/cqfmeasures/StructureDefinition/cqfm-inputParameters","valueReference":{"reference":"#768069d1-465a-4606-9c18-8e8fb6e9e309-parameters"}},{"url":"http://hl7.org/fhir/us/cqfmeasures/StructureDefinition/cqfm-testCaseDescription","valueMarkdown":"This patient is 67 years old with a qualifying outpatient encounter and active  diabetes, with both qualifying lab tests. This case tests the numerator criteria."}],"modifierExtension":[{"url":"http://hl7.org/fhir/us/cqfmeasures/StructureDefinition/cqfm-isTestCase","valueBoolean":true}],"status":"complete","type":"individual","measure":"https://madie.cms.gov/Measure/KidneyHealthEvaluationFHIR","period":{"start":"2025-01-01","end":"2025-12-31"},"group":[{"population":[{"code":{"coding":[{"system":"http://terminology.hl7.org/CodeSystem/measure-population","code":"initial-population","display":"Initial Population"}]},"count":1},{"code":{"coding":[{"system":"http://terminology.hl7.org/CodeSystem/measure-population","code":"denominator","display":"Denominator"}]},"count":1},{"code":{"coding":[{"system":"http://terminology.hl7.org/CodeSystem/measure-population","code":"denominator-exclusion","display":"Denominator Exclusion"}]},"count":0},{"code":{"coding":[{"system":"http://terminology.hl7.org/CodeSystem/measure-population","code":"numerator","display":"Numerator"}]},"count":1}]}]},"request":{"method":"PUT","url":"MeasureReport/f109fb86-e3b0-459b-a2fe-d2a97c65c5a8"}}]}