{"resourceType":"Bundle","id":"tests-b1e68658-d64f-4ca4-a4ee-89c64e4536fa-bundle","type":"transaction","entry":[{"fullUrl":"https://madie.cms.gov/Patient/b1e68658-d64f-4ca4-a4ee-89c64e4536fa","resource":{"resourceType":"Patient","id":"b1e68658-d64f-4ca4-a4ee-89c64e4536fa","meta":{"profile":["http://hl7.org/fhir/us/qicore/StructureDefinition/qicore-patient"]},"extension":[{"url":"http://hl7.org/fhir/us/core/StructureDefinition/us-core-race","extension":[{"url":"ombCategory","valueCoding":{"system":"urn:oid:2.16.840.1.113883.6.238","code":"2054-5","display":"Black or African American","userSelected":true}},{"url":"text","valueString":"Black or African American"}]},{"url":"http://hl7.org/fhir/us/core/StructureDefinition/us-core-ethnicity","extension":[{"url":"ombCategory","valueCoding":{"system":"urn:oid:2.16.840.1.113883.6.238","code":"2186-5","display":"Not Hispanic or Latino","userSelected":true}},{"url":"text","valueString":"Not Hispanic or Latino"}]}],"identifier":[{"type":{"coding":[{"system":"http://terminology.hl7.org/CodeSystem/v2-0203","code":"MR"}]},"system":"https://bonnie-fhir.healthit.gov/","value":"64136a994b11b147841ab8b2"}],"name":[{"family":"DENEXPass","given":["HospiceCareDiagnosis"]}],"gender":"male","birthDate":"1969-08-22"},"request":{"method":"PUT","url":"Patient/b1e68658-d64f-4ca4-a4ee-89c64e4536fa"}},{"fullUrl":"https://madie.cms.gov/Condition/diabetes-b8b3","resource":{"resourceType":"Condition","id":"5dcacec0-b5a3-4758-849b-fd296e836ba7","meta":{"profile":["http://hl7.org/fhir/us/qicore/StructureDefinition/qicore-condition"]},"clinicalStatus":{"coding":[{"system":"http://terminology.hl7.org/CodeSystem/condition-clinical","code":"active","display":"active","userSelected":true}]},"category":[{"coding":[{"system":"http://terminology.hl7.org/CodeSystem/condition-category","code":"encounter-diagnosis","display":"Encounter Diagnosis","userSelected":true}]}],"code":{"coding":[{"system":"http://snomed.info/sct","version":"2021-09","code":"102781000119107","display":"Sensory neuropathy due to type 1 diabetes mellitus (disorder)","userSelected":true}]},"subject":{"reference":"Patient/b1e68658-d64f-4ca4-a4ee-89c64e4536fa"},"onsetDateTime":"2025-03-01T08:00:00.000+00:00"},"request":{"method":"PUT","url":"Condition/5dcacec0-b5a3-4758-849b-fd296e836ba7"}},{"fullUrl":"https://madie.cms.gov/Encounter/annual-wellness-visit-b8b4","resource":{"resourceType":"Encounter","id":"bcfdf72e-7fcf-4e24-9b41-2b2804b1bbcf","meta":{"profile":["http://hl7.org/fhir/us/qicore/StructureDefinition/qicore-encounter"]},"status":"finished","class":{"system":"http://terminology.hl7.org/CodeSystem/v3-ActCode","code":"AMB","display":"ambulatory","userSelected":true},"type":[{"coding":[{"system":"http://snomed.info/sct","version":"2021-09","code":"444971000124105","display":"Annual wellness visit (procedure)","userSelected":true}]}],"subject":{"reference":"Patient/b1e68658-d64f-4ca4-a4ee-89c64e4536fa"},"period":{"start":"2025-03-07T08:00:00.000+00:00","end":"2025-03-07T08:15:00.000+00:00"}},"request":{"method":"PUT","url":"Encounter/bcfdf72e-7fcf-4e24-9b41-2b2804b1bbcf"}},{"fullUrl":"https://madie.cms.gov/Procedure/hospice-care-ambulatory-b8b7","resource":{"resourceType":"Procedure","id":"e265ec4d-2ae8-43b6-9066-ae5eeeb14e79","meta":{"profile":["http://hl7.org/fhir/us/qicore/StructureDefinition/qicore-procedure"]},"extension":[{"url":"http://hl7.org/fhir/us/qicore/StructureDefinition/qicore-recorded","valueDateTime":"2025-03-16T08:00:00.000+00:00"}],"status":"completed","category":{"coding":[{"system":"http://snomed.info/sct","code":"103693007","display":"Diagnostic procedure","userSelected":true}]},"code":{"coding":[{"system":"http://snomed.info/sct","version":"2021-09","code":"170935008","display":"Full care by hospice (finding)","userSelected":true},{"system":"http://snomed.info/sct","code":"385765002","userSelected":true}]},"subject":{"reference":"Patient/b1e68658-d64f-4ca4-a4ee-89c64e4536fa"},"performedDateTime":"2025-03-16T08:00:00.000+00:00"},"request":{"method":"PUT","url":"Procedure/e265ec4d-2ae8-43b6-9066-ae5eeeb14e79"}},{"fullUrl":"https://madie.cms.gov/MeasureReport/5927edd3-5662-4cb3-a431-e07301bfce46","resource":{"resourceType":"MeasureReport","id":"5927edd3-5662-4cb3-a431-e07301bfce46","meta":{"profile":["http://hl7.org/fhir/us/cqfmeasures/StructureDefinition/test-case-cqfm"]},"contained":[{"resourceType":"Parameters","id":"095a7ebc-298e-4f0b-b8eb-60d20726a54f-parameters","parameter":[{"name":"subject","valueString":"b1e68658-d64f-4ca4-a4ee-89c64e4536fa"}]}],"extension":[{"url":"http://hl7.org/fhir/us/cqfmeasures/StructureDefinition/cqfm-inputParameters","valueReference":{"reference":"#095a7ebc-298e-4f0b-b8eb-60d20726a54f-parameters"}},{"url":"http://hl7.org/fhir/us/cqfmeasures/StructureDefinition/cqfm-testCaseDescription","valueMarkdown":"This patient is 65 years old with a qualifying encounter and active diabetes diagnosis, with a Hospice Care Diagnosis. This case tests the denominator exclusion criteria."}],"modifierExtension":[{"url":"http://hl7.org/fhir/us/cqfmeasures/StructureDefinition/cqfm-isTestCase","valueBoolean":true}],"status":"complete","type":"individual","measure":"https://madie.cms.gov/Measure/KidneyHealthEvaluationFHIR","period":{"start":"2025-01-01","end":"2025-12-31"},"group":[{"population":[{"code":{"coding":[{"system":"http://terminology.hl7.org/CodeSystem/measure-population","code":"initial-population","display":"Initial Population"}]},"count":1},{"code":{"coding":[{"system":"http://terminology.hl7.org/CodeSystem/measure-population","code":"denominator","display":"Denominator"}]},"count":1},{"code":{"coding":[{"system":"http://terminology.hl7.org/CodeSystem/measure-population","code":"denominator-exclusion","display":"Denominator Exclusion"}]},"count":1},{"code":{"coding":[{"system":"http://terminology.hl7.org/CodeSystem/measure-population","code":"numerator","display":"Numerator"}]},"count":0}]}]},"request":{"method":"PUT","url":"MeasureReport/5927edd3-5662-4cb3-a431-e07301bfce46"}}]}