{"resourceType":"Bundle","id":"tests-80cbaf27-f12e-47b7-a875-59b068294036-bundle","type":"transaction","entry":[{"fullUrl":"https://madie.cms.gov/Patient/80cbaf27-f12e-47b7-a875-59b068294036","resource":{"resourceType":"Patient","id":"80cbaf27-f12e-47b7-a875-59b068294036","meta":{"profile":["http://hl7.org/fhir/us/qicore/StructureDefinition/qicore-patient"]},"extension":[{"url":"http://hl7.org/fhir/us/core/StructureDefinition/us-core-race","extension":[{"url":"ombCategory","valueCoding":{"system":"urn:oid:2.16.840.1.113883.6.238","code":"1002-5","display":"American Indian or Alaska Native","userSelected":true}},{"url":"text","valueString":"American Indian or Alaska Native"}]},{"url":"http://hl7.org/fhir/us/core/StructureDefinition/us-core-ethnicity","extension":[{"url":"ombCategory","valueCoding":{"system":"urn:oid:2.16.840.1.113883.6.238","code":"2135-2","display":"Hispanic or Latino","userSelected":true}},{"url":"text","valueString":"Hispanic or Latino"}]}],"identifier":[{"type":{"coding":[{"system":"http://terminology.hl7.org/CodeSystem/v2-0203","code":"MR"}]},"system":"https://bonnie-fhir.healthit.gov/","value":"6413749d4b11b147841ab8df"}],"name":[{"family":"DENOMPass","given":["DiabetesDxFirstDayOfMP"]}],"gender":"female","birthDate":"1996-06-13"},"request":{"method":"PUT","url":"Patient/80cbaf27-f12e-47b7-a875-59b068294036"}},{"fullUrl":"https://madie.cms.gov/Condition/diabetes-b8e0","resource":{"resourceType":"Condition","id":"2ef6c26d-22ea-4662-bd85-7f11165a284a","meta":{"profile":["http://hl7.org/fhir/us/qicore/StructureDefinition/qicore-condition"]},"clinicalStatus":{"coding":[{"system":"http://terminology.hl7.org/CodeSystem/condition-clinical","code":"active","display":"active","userSelected":true}]},"category":[{"coding":[{"system":"http://terminology.hl7.org/CodeSystem/condition-category","code":"encounter-diagnosis","display":"Encounter Diagnosis","userSelected":true}]}],"code":{"coding":[{"system":"http://snomed.info/sct","version":"2021-09","code":"102781000119107","display":"Sensory neuropathy due to type 1 diabetes mellitus (disorder)","userSelected":true}]},"subject":{"reference":"Patient/80cbaf27-f12e-47b7-a875-59b068294036"},"onsetDateTime":"2025-01-01T08:00:00.000+00:00"},"request":{"method":"PUT","url":"Condition/2ef6c26d-22ea-4662-bd85-7f11165a284a"}},{"fullUrl":"https://madie.cms.gov/Encounter/outpatient-consultation-b8e1","resource":{"resourceType":"Encounter","id":"874da6ae-d7e0-49fa-94cf-c9fbf913442f","meta":{"profile":["http://hl7.org/fhir/us/qicore/StructureDefinition/qicore-encounter"]},"status":"finished","class":{"system":"http://terminology.hl7.org/CodeSystem/v3-ActCode","code":"AMB","display":"ambulatory","userSelected":true},"type":[{"coding":[{"system":"http://snomed.info/sct","version":"2021-09","code":"281036007","display":"Follow-up consultation (procedure)","userSelected":true}]}],"subject":{"reference":"Patient/80cbaf27-f12e-47b7-a875-59b068294036"},"period":{"start":"2025-03-16T08:00:00.000+00:00","end":"2025-03-16T08:15:00.000+00:00"}},"request":{"method":"PUT","url":"Encounter/874da6ae-d7e0-49fa-94cf-c9fbf913442f"}},{"fullUrl":"https://madie.cms.gov/MeasureReport/7b7eee14-9f78-4f0b-a037-c6e9883760ba","resource":{"resourceType":"MeasureReport","id":"7b7eee14-9f78-4f0b-a037-c6e9883760ba","meta":{"profile":["http://hl7.org/fhir/us/cqfmeasures/StructureDefinition/test-case-cqfm"]},"contained":[{"resourceType":"Parameters","id":"ad865ba7-9079-4210-857c-32e7a6f9b4d2-parameters","parameter":[{"name":"subject","valueString":"80cbaf27-f12e-47b7-a875-59b068294036"}]}],"extension":[{"url":"http://hl7.org/fhir/us/cqfmeasures/StructureDefinition/cqfm-inputParameters","valueReference":{"reference":"#ad865ba7-9079-4210-857c-32e7a6f9b4d2-parameters"}},{"url":"http://hl7.org/fhir/us/cqfmeasures/StructureDefinition/cqfm-testCaseDescription","valueMarkdown":"This patient is 38 years old, has a qualifying encounter, and is diagnosed with diabetes on the first day of the measurement period. This case tests the encounter criteria of the Denom. "}],"modifierExtension":[{"url":"http://hl7.org/fhir/us/cqfmeasures/StructureDefinition/cqfm-isTestCase","valueBoolean":true}],"status":"complete","type":"individual","measure":"https://madie.cms.gov/Measure/KidneyHealthEvaluationFHIR","period":{"start":"2025-01-01","end":"2025-12-31"},"group":[{"population":[{"code":{"coding":[{"system":"http://terminology.hl7.org/CodeSystem/measure-population","code":"initial-population","display":"Initial Population"}]},"count":1},{"code":{"coding":[{"system":"http://terminology.hl7.org/CodeSystem/measure-population","code":"denominator","display":"Denominator"}]},"count":1},{"code":{"coding":[{"system":"http://terminology.hl7.org/CodeSystem/measure-population","code":"denominator-exclusion","display":"Denominator Exclusion"}]},"count":0},{"code":{"coding":[{"system":"http://terminology.hl7.org/CodeSystem/measure-population","code":"numerator","display":"Numerator"}]},"count":0}]}]},"request":{"method":"PUT","url":"MeasureReport/7b7eee14-9f78-4f0b-a037-c6e9883760ba"}}]}