{"resourceType":"Bundle","id":"tests-277e15ec-f1a0-4a6e-a8d9-856c0a4fa4f0-bundle","type":"transaction","entry":[{"fullUrl":"https://madie.cms.gov/Patient/277e15ec-f1a0-4a6e-a8d9-856c0a4fa4f0","resource":{"resourceType":"Patient","id":"277e15ec-f1a0-4a6e-a8d9-856c0a4fa4f0","meta":{"profile":["http://hl7.org/fhir/us/qicore/StructureDefinition/qicore-patient"]},"extension":[{"url":"http://hl7.org/fhir/us/core/StructureDefinition/us-core-race","extension":[{"url":"ombCategory","valueCoding":{"system":"urn:oid:2.16.840.1.113883.6.238","code":"2076-8","display":"Native Hawaiian or Other Pacific Islander","userSelected":true}},{"url":"text","valueString":"Native Hawaiian or Other Pacific Islander"}]},{"url":"http://hl7.org/fhir/us/core/StructureDefinition/us-core-ethnicity","extension":[{"url":"ombCategory","valueCoding":{"system":"urn:oid:2.16.840.1.113883.6.238","code":"2186-5","display":"Not Hispanic or Latino","userSelected":true}},{"url":"text","valueString":"Not Hispanic or Latino"}]}],"identifier":[{"type":{"coding":[{"system":"http://terminology.hl7.org/CodeSystem/v2-0203","code":"MR"}]},"system":"https://bonnie-fhir.healthit.gov/","value":"641375564b11b147841ab8e2"}],"name":[{"family":"DENOMFail","given":["DiabetesDxAfterMP"]}],"gender":"female","birthDate":"1998-01-01"},"request":{"method":"PUT","url":"Patient/277e15ec-f1a0-4a6e-a8d9-856c0a4fa4f0"}},{"fullUrl":"https://madie.cms.gov/Condition/diabetes-b8e3","resource":{"resourceType":"Condition","id":"10aef579-bbb0-4ff9-8f8c-57164c169217","meta":{"profile":["http://hl7.org/fhir/us/qicore/StructureDefinition/qicore-condition"]},"clinicalStatus":{"coding":[{"system":"http://terminology.hl7.org/CodeSystem/condition-clinical","code":"active","display":"active","userSelected":true}]},"category":[{"coding":[{"system":"http://terminology.hl7.org/CodeSystem/condition-category","code":"encounter-diagnosis","display":"Encounter Diagnosis","userSelected":true}]}],"code":{"coding":[{"system":"http://snomed.info/sct","version":"2021-09","code":"102781000119107","display":"Sensory neuropathy due to type 1 diabetes mellitus (disorder)","userSelected":true}]},"subject":{"reference":"Patient/277e15ec-f1a0-4a6e-a8d9-856c0a4fa4f0"},"onsetDateTime":"2026-01-01T08:00:00.000+00:00"},"request":{"method":"PUT","url":"Condition/10aef579-bbb0-4ff9-8f8c-57164c169217"}},{"fullUrl":"https://madie.cms.gov/Encounter/annual-wellness-visit-b8e4","resource":{"resourceType":"Encounter","id":"b3e9e260-02ec-40f6-9883-6bebb4dfecc0","meta":{"profile":["http://hl7.org/fhir/us/qicore/StructureDefinition/qicore-encounter"]},"status":"finished","class":{"system":"http://terminology.hl7.org/CodeSystem/v3-ActCode","code":"AMB","display":"ambulatory","userSelected":true},"type":[{"coding":[{"system":"http://snomed.info/sct","version":"2021-09","code":"444971000124105","display":"Annual wellness visit (procedure)","userSelected":true}]}],"subject":{"reference":"Patient/277e15ec-f1a0-4a6e-a8d9-856c0a4fa4f0"},"period":{"start":"2025-03-01T08:00:00.000+00:00","end":"2025-03-01T08:15:00.000+00:00"}},"request":{"method":"PUT","url":"Encounter/b3e9e260-02ec-40f6-9883-6bebb4dfecc0"}},{"fullUrl":"https://madie.cms.gov/MeasureReport/ab8c55e1-652e-4e63-8050-e4ce53613d35","resource":{"resourceType":"MeasureReport","id":"ab8c55e1-652e-4e63-8050-e4ce53613d35","meta":{"profile":["http://hl7.org/fhir/us/cqfmeasures/StructureDefinition/test-case-cqfm"]},"contained":[{"resourceType":"Parameters","id":"dd3805e5-9a40-49e1-aec8-9fa06ca4d136-parameters","parameter":[{"name":"subject","valueString":"277e15ec-f1a0-4a6e-a8d9-856c0a4fa4f0"}]}],"extension":[{"url":"http://hl7.org/fhir/us/cqfmeasures/StructureDefinition/cqfm-inputParameters","valueReference":{"reference":"#dd3805e5-9a40-49e1-aec8-9fa06ca4d136-parameters"}},{"url":"http://hl7.org/fhir/us/cqfmeasures/StructureDefinition/cqfm-testCaseDescription","valueMarkdown":"This patient is 27 and has an annual wellness visit performed during the measurement period but is diagnosed after the MP. This tests the denominator criteria.\n"}],"modifierExtension":[{"url":"http://hl7.org/fhir/us/cqfmeasures/StructureDefinition/cqfm-isTestCase","valueBoolean":true}],"status":"complete","type":"individual","measure":"https://madie.cms.gov/Measure/KidneyHealthEvaluationFHIR","period":{"start":"2025-01-01","end":"2025-12-31"},"group":[{"population":[{"code":{"coding":[{"system":"http://terminology.hl7.org/CodeSystem/measure-population","code":"initial-population","display":"Initial Population"}]},"count":0},{"code":{"coding":[{"system":"http://terminology.hl7.org/CodeSystem/measure-population","code":"denominator","display":"Denominator"}]},"count":0},{"code":{"coding":[{"system":"http://terminology.hl7.org/CodeSystem/measure-population","code":"denominator-exclusion","display":"Denominator Exclusion"}]},"count":0},{"code":{"coding":[{"system":"http://terminology.hl7.org/CodeSystem/measure-population","code":"numerator","display":"Numerator"}]},"count":0}]}]},"request":{"method":"PUT","url":"MeasureReport/ab8c55e1-652e-4e63-8050-e4ce53613d35"}}]}