{"resourceType":"Bundle","id":"tests-55c5c208-190b-4f90-bdbb-0c02332df772-bundle","type":"transaction","entry":[{"fullUrl":"https://madie.cms.gov/Patient/55c5c208-190b-4f90-bdbb-0c02332df772","resource":{"resourceType":"Patient","id":"55c5c208-190b-4f90-bdbb-0c02332df772","meta":{"profile":["http://hl7.org/fhir/us/qicore/StructureDefinition/qicore-patient"]},"extension":[{"url":"http://hl7.org/fhir/us/core/StructureDefinition/us-core-race","extension":[{"url":"ombCategory","valueCoding":{"system":"urn:oid:2.16.840.1.113883.6.238","code":"2106-3","display":"White","userSelected":true}},{"url":"text","valueString":"White"}]},{"url":"http://hl7.org/fhir/us/core/StructureDefinition/us-core-ethnicity","extension":[{"url":"ombCategory","valueCoding":{"system":"urn:oid:2.16.840.1.113883.6.238","code":"2135-2","display":"Hispanic or Latino","userSelected":true}},{"url":"text","valueString":"Hispanic or Latino"}]}],"identifier":[{"type":{"coding":[{"system":"http://terminology.hl7.org/CodeSystem/v2-0203","code":"MR"}]},"system":"https://bonnie-fhir.healthit.gov/","value":"641368304b11b147841ab8a5"}],"name":[{"family":"DENEXPass","given":["EncounterPerfHospCare"]}],"gender":"male","birthDate":"1964-10-21"},"request":{"method":"PUT","url":"Patient/55c5c208-190b-4f90-bdbb-0c02332df772"}},{"fullUrl":"https://madie.cms.gov/Condition/diabetes-b8a6","resource":{"resourceType":"Condition","id":"c5100c64-e52c-43f6-a113-d88c026ceba1","meta":{"profile":["http://hl7.org/fhir/us/qicore/StructureDefinition/qicore-condition"]},"clinicalStatus":{"coding":[{"system":"http://terminology.hl7.org/CodeSystem/condition-clinical","code":"active","display":"active","userSelected":true}]},"category":[{"coding":[{"system":"http://terminology.hl7.org/CodeSystem/condition-category","code":"encounter-diagnosis","display":"Encounter Diagnosis","userSelected":true}]}],"code":{"coding":[{"system":"http://snomed.info/sct","version":"2021-09","code":"102781000119107","display":"Sensory neuropathy due to type 1 diabetes mellitus (disorder)","userSelected":true}]},"subject":{"reference":"Patient/55c5c208-190b-4f90-bdbb-0c02332df772"},"onsetDateTime":"2023-11-08T08:00:00.000+00:00"},"request":{"method":"PUT","url":"Condition/c5100c64-e52c-43f6-a113-d88c026ceba1"}},{"fullUrl":"https://madie.cms.gov/Encounter/office-visit-b8a7","resource":{"resourceType":"Encounter","id":"017e0c30-b43c-40d1-a224-956978ed967e","meta":{"profile":["http://hl7.org/fhir/us/qicore/StructureDefinition/qicore-encounter"]},"status":"finished","class":{"system":"http://terminology.hl7.org/CodeSystem/v3-ActCode","code":"AMB","display":"ambulatory","userSelected":true},"type":[{"coding":[{"system":"http://snomed.info/sct","version":"2021-09","code":"185463005","display":"Visit out of hours (procedure)","userSelected":true}]}],"subject":{"reference":"Patient/55c5c208-190b-4f90-bdbb-0c02332df772"},"period":{"start":"2025-03-06T08:00:00.000+00:00","end":"2025-03-06T08:15:00.000+00:00"}},"request":{"method":"PUT","url":"Encounter/017e0c30-b43c-40d1-a224-956978ed967e"}},{"fullUrl":"https://madie.cms.gov/Encounter/hospice-encounter-b8a8","resource":{"resourceType":"Encounter","id":"be46921d-d29a-4219-9950-c8e96df8d440","meta":{"profile":["http://hl7.org/fhir/us/qicore/StructureDefinition/qicore-encounter"]},"status":"finished","class":{"system":"http://www.nlm.nih.gov/research/umls/hcpcs","code":"G9473","display":"Services performed by chaplain in the hospice setting, each 15 minutes","userSelected":true},"type":[{"coding":[{"system":"http://snomed.info/sct","version":"2021-09","code":"183919006","display":"Urgent admission to hospice (procedure)","userSelected":true}]}],"subject":{"reference":"Patient/55c5c208-190b-4f90-bdbb-0c02332df772"},"period":{"start":"2025-03-07T08:00:00.000+00:00","end":"2025-03-07T08:15:00.000+00:00"}},"request":{"method":"PUT","url":"Encounter/be46921d-d29a-4219-9950-c8e96df8d440"}},{"fullUrl":"https://madie.cms.gov/Observation/estimated-glomerular-filtration-rate-b8a9","resource":{"resourceType":"Observation","id":"e76909c4-ddfa-4da6-9cfc-1822b841465c","meta":{"profile":["http://hl7.org/fhir/us/qicore/StructureDefinition/qicore-observation"]},"status":"final","category":[{"coding":[{"system":"http://terminology.hl7.org/CodeSystem/observation-category","code":"laboratory","display":"Laboratory","userSelected":true}]}],"code":{"coding":[{"system":"http://loinc.org","version":"2.71","code":"48642-3","display":"Glomerular filtration rate/1.73 sq M.predicted among non-blacks [Volume Rate/Area] in Serum, Plasma or Blood by Creatinine-based formula (MDRD)","userSelected":true}]},"subject":{"reference":"Patient/55c5c208-190b-4f90-bdbb-0c02332df772"},"effectiveDateTime":"2025-03-06T08:00:00.000+00:00","issued":"2025-03-06T08:00:00.000+00:00","valueBoolean":true},"request":{"method":"PUT","url":"Observation/e76909c4-ddfa-4da6-9cfc-1822b841465c"}},{"fullUrl":"https://madie.cms.gov/Observation/urine-albumin-creatinine-ratio-b8aa","resource":{"resourceType":"Observation","id":"16e70fe4-3c5e-42d2-b381-cf0d233c7ee6","meta":{"profile":["http://hl7.org/fhir/us/qicore/StructureDefinition/qicore-observation"]},"status":"final","category":[{"coding":[{"system":"http://terminology.hl7.org/CodeSystem/observation-category","code":"laboratory","display":"Laboratory","userSelected":true}]}],"code":{"coding":[{"system":"http://loinc.org","version":"2.71","code":"13705-9","display":"Albumin/Creatinine [Mass Ratio] in 24 hour Urine","userSelected":true}]},"subject":{"reference":"Patient/55c5c208-190b-4f90-bdbb-0c02332df772"},"effectiveDateTime":"2025-03-06T08:00:00.000+00:00","issued":"2025-03-06T08:00:00.000+00:00","valueBoolean":true},"request":{"method":"PUT","url":"Observation/16e70fe4-3c5e-42d2-b381-cf0d233c7ee6"}},{"fullUrl":"https://madie.cms.gov/MeasureReport/b9632047-7005-4360-bd3a-f6693f6e030b","resource":{"resourceType":"MeasureReport","id":"b9632047-7005-4360-bd3a-f6693f6e030b","meta":{"profile":["http://hl7.org/fhir/us/cqfmeasures/StructureDefinition/test-case-cqfm"]},"contained":[{"resourceType":"Parameters","id":"8eda9d11-8476-4998-aab6-6be93b5f424c-parameters","parameter":[{"name":"subject","valueString":"55c5c208-190b-4f90-bdbb-0c02332df772"}]}],"extension":[{"url":"http://hl7.org/fhir/us/cqfmeasures/StructureDefinition/cqfm-inputParameters","valueReference":{"reference":"#8eda9d11-8476-4998-aab6-6be93b5f424c-parameters"}},{"url":"http://hl7.org/fhir/us/cqfmeasures/StructureDefinition/cqfm-testCaseDescription","valueMarkdown":"This patient is 70 years old with a qualifying encounter and active diabetes diagnosis, two qualifying lab tests, with Hospice Encounter in the measurement period. This case tests the denominator exclusion criteria."}],"modifierExtension":[{"url":"http://hl7.org/fhir/us/cqfmeasures/StructureDefinition/cqfm-isTestCase","valueBoolean":true}],"status":"complete","type":"individual","measure":"https://madie.cms.gov/Measure/KidneyHealthEvaluationFHIR","period":{"start":"2025-01-01","end":"2025-12-31"},"group":[{"population":[{"code":{"coding":[{"system":"http://terminology.hl7.org/CodeSystem/measure-population","code":"initial-population","display":"Initial Population"}]},"count":1},{"code":{"coding":[{"system":"http://terminology.hl7.org/CodeSystem/measure-population","code":"denominator","display":"Denominator"}]},"count":1},{"code":{"coding":[{"system":"http://terminology.hl7.org/CodeSystem/measure-population","code":"denominator-exclusion","display":"Denominator Exclusion"}]},"count":1},{"code":{"coding":[{"system":"http://terminology.hl7.org/CodeSystem/measure-population","code":"numerator","display":"Numerator"}]},"count":0}]}]},"request":{"method":"PUT","url":"MeasureReport/b9632047-7005-4360-bd3a-f6693f6e030b"}}]}