{"resourceType":"Bundle","id":"tests-d4a593b2-d485-4bfa-a8b1-a401bdbf8d23-bundle","type":"transaction","entry":[{"fullUrl":"https://madie.cms.gov/Patient/d4a593b2-d485-4bfa-a8b1-a401bdbf8d23","resource":{"resourceType":"Patient","id":"d4a593b2-d485-4bfa-a8b1-a401bdbf8d23","meta":{"profile":["http://hl7.org/fhir/us/qicore/StructureDefinition/qicore-patient"]},"extension":[{"url":"http://hl7.org/fhir/us/core/StructureDefinition/us-core-race","extension":[{"url":"ombCategory","valueCoding":{"system":"urn:oid:2.16.840.1.113883.6.238","code":"2076-8","display":"Native Hawaiian or Other Pacific Islander","userSelected":true}},{"url":"text","valueString":"Native Hawaiian or Other Pacific Islander"}]},{"url":"http://hl7.org/fhir/us/core/StructureDefinition/us-core-ethnicity","extension":[{"url":"ombCategory","valueCoding":{"system":"urn:oid:2.16.840.1.113883.6.238","code":"2186-5","display":"Not Hispanic or Latino","userSelected":true}},{"url":"text","valueString":"Not Hispanic or Latino"}]}],"identifier":[{"type":{"coding":[{"system":"http://terminology.hl7.org/CodeSystem/v2-0203","code":"MR"}]},"system":"https://bonnie-fhir.healthit.gov/","value":"641364c44b11b147841ab897"}],"name":[{"family":"DENEXFail","given":["DischargeHomeHospDayBeforeMP"]}],"gender":"male","birthDate":"1963-03-22"},"request":{"method":"PUT","url":"Patient/d4a593b2-d485-4bfa-a8b1-a401bdbf8d23"}},{"fullUrl":"https://madie.cms.gov/Condition/diabetes-b898","resource":{"resourceType":"Condition","id":"9e429203-90a0-41ed-8bbf-3dfad85c1972","meta":{"profile":["http://hl7.org/fhir/us/qicore/StructureDefinition/qicore-condition"]},"clinicalStatus":{"coding":[{"system":"http://terminology.hl7.org/CodeSystem/condition-clinical","code":"active","display":"active","userSelected":true}]},"category":[{"coding":[{"system":"http://terminology.hl7.org/CodeSystem/condition-category","code":"encounter-diagnosis","display":"Encounter Diagnosis","userSelected":true}]}],"code":{"coding":[{"system":"http://snomed.info/sct","version":"2021-09","code":"102781000119107","display":"Sensory neuropathy due to type 1 diabetes mellitus (disorder)","userSelected":true}]},"subject":{"reference":"Patient/d4a593b2-d485-4bfa-a8b1-a401bdbf8d23"},"onsetDateTime":"2025-03-01T08:00:00.000+00:00"},"request":{"method":"PUT","url":"Condition/9e429203-90a0-41ed-8bbf-3dfad85c1972"}},{"fullUrl":"https://madie.cms.gov/Encounter/encounter-inpatient-b899","resource":{"resourceType":"Encounter","id":"c666bd8b-b5fd-4b67-9efb-225fd8c09746","meta":{"profile":["http://hl7.org/fhir/us/qicore/StructureDefinition/qicore-encounter"]},"status":"finished","class":{"system":"http://snomed.info/sct","code":"183452005","display":"Emergency hospital admission (procedure)","userSelected":true},"type":[{"coding":[{"system":"http://snomed.info/sct","version":"2021-09","code":"183452005","display":"Emergency hospital admission (procedure)","userSelected":true}]}],"subject":{"reference":"Patient/d4a593b2-d485-4bfa-a8b1-a401bdbf8d23"},"period":{"start":"2023-12-31T08:00:00.000+00:00","end":"2023-12-31T08:15:00.000+00:00"},"hospitalization":{"dischargeDisposition":{"coding":[{"system":"http://snomed.info/sct","code":"428361000124107","display":"Discharge to home for hospice care (procedure)","userSelected":true}]}}},"request":{"method":"PUT","url":"Encounter/c666bd8b-b5fd-4b67-9efb-225fd8c09746"}},{"fullUrl":"https://madie.cms.gov/Encounter/annual-wellness-visit-b89a","resource":{"resourceType":"Encounter","id":"6c40203a-46d4-441d-b614-f7df4247fd9d","meta":{"profile":["http://hl7.org/fhir/us/qicore/StructureDefinition/qicore-encounter"]},"status":"finished","class":{"system":"http://terminology.hl7.org/CodeSystem/v3-ActCode","code":"AMB","display":"ambulatory","userSelected":true},"type":[{"coding":[{"system":"http://snomed.info/sct","version":"2021-09","code":"444971000124105","display":"Annual wellness visit (procedure)","userSelected":true}]}],"subject":{"reference":"Patient/d4a593b2-d485-4bfa-a8b1-a401bdbf8d23"},"period":{"start":"2025-03-06T08:00:00.000+00:00","end":"2025-03-06T08:15:00.000+00:00"}},"request":{"method":"PUT","url":"Encounter/6c40203a-46d4-441d-b614-f7df4247fd9d"}},{"fullUrl":"https://madie.cms.gov/MeasureReport/0d20acc3-4085-40c4-a723-3787a3ed023d","resource":{"resourceType":"MeasureReport","id":"0d20acc3-4085-40c4-a723-3787a3ed023d","meta":{"profile":["http://hl7.org/fhir/us/cqfmeasures/StructureDefinition/test-case-cqfm"]},"contained":[{"resourceType":"Parameters","id":"05267bbf-f69b-4f4b-96b3-ca4eec0e9f1c-parameters","parameter":[{"name":"subject","valueString":"d4a593b2-d485-4bfa-a8b1-a401bdbf8d23"}]}],"extension":[{"url":"http://hl7.org/fhir/us/cqfmeasures/StructureDefinition/cqfm-inputParameters","valueReference":{"reference":"#05267bbf-f69b-4f4b-96b3-ca4eec0e9f1c-parameters"}},{"url":"http://hl7.org/fhir/us/cqfmeasures/StructureDefinition/cqfm-testCaseDescription","valueMarkdown":"This patient is 60 years old with a qualifying encounter and active diabetes diagnosis, with a discharge to home for hospice care. This case tests the denominator exclusion criteria."}],"modifierExtension":[{"url":"http://hl7.org/fhir/us/cqfmeasures/StructureDefinition/cqfm-isTestCase","valueBoolean":true}],"status":"complete","type":"individual","measure":"https://madie.cms.gov/Measure/KidneyHealthEvaluationFHIR","period":{"start":"2025-01-01","end":"2025-12-31"},"group":[{"population":[{"code":{"coding":[{"system":"http://terminology.hl7.org/CodeSystem/measure-population","code":"initial-population","display":"Initial Population"}]},"count":1},{"code":{"coding":[{"system":"http://terminology.hl7.org/CodeSystem/measure-population","code":"denominator","display":"Denominator"}]},"count":1},{"code":{"coding":[{"system":"http://terminology.hl7.org/CodeSystem/measure-population","code":"denominator-exclusion","display":"Denominator Exclusion"}]},"count":0},{"code":{"coding":[{"system":"http://terminology.hl7.org/CodeSystem/measure-population","code":"numerator","display":"Numerator"}]},"count":0}]}]},"request":{"method":"PUT","url":"MeasureReport/0d20acc3-4085-40c4-a723-3787a3ed023d"}}]}