{"resourceType":"Bundle","id":"tests-a9536c98-3157-4443-bfe1-ef4e585360be-bundle","type":"transaction","entry":[{"fullUrl":"https://madie.cms.gov/Patient/a9536c98-3157-4443-bfe1-ef4e585360be","resource":{"resourceType":"Patient","id":"a9536c98-3157-4443-bfe1-ef4e585360be","meta":{"profile":["http://hl7.org/fhir/us/qicore/StructureDefinition/qicore-patient"]},"extension":[{"url":"http://hl7.org/fhir/us/core/StructureDefinition/us-core-race","extension":[{"url":"ombCategory","valueCoding":{"system":"urn:oid:2.16.840.1.113883.6.238","code":"1002-5","display":"American Indian or Alaska Native","userSelected":true}},{"url":"text","valueString":"American Indian or Alaska Native"}]},{"url":"http://hl7.org/fhir/us/core/StructureDefinition/us-core-ethnicity","extension":[{"url":"ombCategory","valueCoding":{"system":"urn:oid:2.16.840.1.113883.6.238","code":"2135-2","display":"Hispanic or Latino","userSelected":true}},{"url":"text","valueString":"Hispanic or Latino"}]}],"identifier":[{"type":{"coding":[{"system":"http://terminology.hl7.org/CodeSystem/v2-0203","code":"MR"}]},"system":"https://bonnie-fhir.healthit.gov/","value":"64137c3e4b11b147841ab8fd"}],"name":[{"family":"DENOMPass","given":["EdgeAge85Jan1"]}],"gender":"female","birthDate":"1940-01-01"},"request":{"method":"PUT","url":"Patient/a9536c98-3157-4443-bfe1-ef4e585360be"}},{"fullUrl":"https://madie.cms.gov/Condition/diabetes-b8fe","resource":{"resourceType":"Condition","id":"246a12c5-ba1e-4f05-9497-3c7842201b1b","meta":{"profile":["http://hl7.org/fhir/us/qicore/StructureDefinition/qicore-condition"]},"clinicalStatus":{"coding":[{"system":"http://terminology.hl7.org/CodeSystem/condition-clinical","code":"active","display":"active","userSelected":true}]},"category":[{"coding":[{"system":"http://terminology.hl7.org/CodeSystem/condition-category","code":"problem-list-item","display":"Problem List Item","userSelected":true}]}],"code":{"coding":[{"system":"http://snomed.info/sct","version":"2021-09","code":"102781000119107","display":"Sensory neuropathy due to type 1 diabetes mellitus (disorder)","userSelected":true}]},"subject":{"reference":"Patient/a9536c98-3157-4443-bfe1-ef4e585360be"},"onsetDateTime":"2022-10-15T08:00:00.000+00:00"},"request":{"method":"PUT","url":"Condition/246a12c5-ba1e-4f05-9497-3c7842201b1b"}},{"fullUrl":"https://madie.cms.gov/Encounter/outpatient-consultation-b8ff","resource":{"resourceType":"Encounter","id":"10903638-66c0-4503-b7b4-e20948ad7191","meta":{"profile":["http://hl7.org/fhir/us/qicore/StructureDefinition/qicore-encounter"]},"status":"finished","class":{"system":"http://terminology.hl7.org/CodeSystem/v3-ActCode","code":"AMB","display":"ambulatory","userSelected":true},"type":[{"coding":[{"system":"http://snomed.info/sct","version":"2021-09","code":"281036007","display":"Follow-up consultation (procedure)","userSelected":true}]}],"subject":{"reference":"Patient/a9536c98-3157-4443-bfe1-ef4e585360be"},"period":{"start":"2025-03-16T08:00:00.000+00:00","end":"2025-03-16T08:15:00.000+00:00"}},"request":{"method":"PUT","url":"Encounter/10903638-66c0-4503-b7b4-e20948ad7191"}},{"fullUrl":"https://madie.cms.gov/MeasureReport/668ecfb3-c85b-42f3-9900-7c8886a6ff82","resource":{"resourceType":"MeasureReport","id":"668ecfb3-c85b-42f3-9900-7c8886a6ff82","meta":{"profile":["http://hl7.org/fhir/us/cqfmeasures/StructureDefinition/test-case-cqfm"]},"contained":[{"resourceType":"Parameters","id":"61f70f1a-2334-49d2-ad09-d349cf173c8e-parameters","parameter":[{"name":"subject","valueString":"a9536c98-3157-4443-bfe1-ef4e585360be"}]}],"extension":[{"url":"http://hl7.org/fhir/us/cqfmeasures/StructureDefinition/cqfm-inputParameters","valueReference":{"reference":"#61f70f1a-2334-49d2-ad09-d349cf173c8e-parameters"}},{"url":"http://hl7.org/fhir/us/cqfmeasures/StructureDefinition/cqfm-testCaseDescription","valueMarkdown":"This patient is 85 years old, with a qualifying encounter and active diabetes diagnosis. This case tests the denominator criteria."}],"modifierExtension":[{"url":"http://hl7.org/fhir/us/cqfmeasures/StructureDefinition/cqfm-isTestCase","valueBoolean":true}],"status":"complete","type":"individual","measure":"https://madie.cms.gov/Measure/KidneyHealthEvaluationFHIR","period":{"start":"2025-01-01","end":"2025-12-31"},"group":[{"population":[{"code":{"coding":[{"system":"http://terminology.hl7.org/CodeSystem/measure-population","code":"initial-population","display":"Initial Population"}]},"count":1},{"code":{"coding":[{"system":"http://terminology.hl7.org/CodeSystem/measure-population","code":"denominator","display":"Denominator"}]},"count":1},{"code":{"coding":[{"system":"http://terminology.hl7.org/CodeSystem/measure-population","code":"denominator-exclusion","display":"Denominator Exclusion"}]},"count":0},{"code":{"coding":[{"system":"http://terminology.hl7.org/CodeSystem/measure-population","code":"numerator","display":"Numerator"}]},"count":0}]}]},"request":{"method":"PUT","url":"MeasureReport/668ecfb3-c85b-42f3-9900-7c8886a6ff82"}}]}