{"resourceType":"Bundle","id":"tests-b49e5ec9-8a2d-4ed4-acae-9e13e21d67f2-bundle","type":"transaction","entry":[{"fullUrl":"https://madie.cms.gov/Patient/b49e5ec9-8a2d-4ed4-acae-9e13e21d67f2","resource":{"resourceType":"Patient","id":"b49e5ec9-8a2d-4ed4-acae-9e13e21d67f2","meta":{"profile":["http://hl7.org/fhir/us/qicore/StructureDefinition/qicore-patient"]},"extension":[{"url":"http://hl7.org/fhir/us/core/StructureDefinition/us-core-race","extension":[{"url":"ombCategory","valueCoding":{"system":"urn:oid:2.16.840.1.113883.6.238","code":"2106-3","display":"White","userSelected":true}},{"url":"text","valueString":"White"}]},{"url":"http://hl7.org/fhir/us/core/StructureDefinition/us-core-ethnicity","extension":[{"url":"ombCategory","valueCoding":{"system":"urn:oid:2.16.840.1.113883.6.238","code":"2186-5","display":"Not Hispanic or Latino","userSelected":true}},{"url":"text","valueString":"Not Hispanic or Latino"}]}],"identifier":[{"type":{"coding":[{"system":"http://terminology.hl7.org/CodeSystem/v2-0203","code":"MR"}]},"system":"https://bonnie-fhir.healthit.gov/","value":"62fa55e0f4a8c3cd9f455399"}],"name":[{"family":"DENEXPass","given":["withCKDStage5"]}],"gender":"male","birthDate":"2004-12-01"},"request":{"method":"PUT","url":"Patient/b49e5ec9-8a2d-4ed4-acae-9e13e21d67f2"}},{"fullUrl":"https://madie.cms.gov/Condition/diabetes-e2ba","resource":{"resourceType":"Condition","id":"e20a629c-6eb4-4a75-b0c3-3872da70aa82","meta":{"profile":["http://hl7.org/fhir/us/qicore/StructureDefinition/qicore-condition"]},"clinicalStatus":{"coding":[{"system":"http://terminology.hl7.org/CodeSystem/condition-clinical","code":"active","display":"active","userSelected":true}]},"category":[{"coding":[{"system":"http://terminology.hl7.org/CodeSystem/condition-category","code":"encounter-diagnosis","display":"Encounter Diagnosis","userSelected":true}]}],"code":{"coding":[{"system":"http://snomed.info/sct","version":"2021-09","code":"102781000119107","display":"Sensory neuropathy due to type 1 diabetes mellitus (disorder)","userSelected":true}]},"subject":{"reference":"Patient/b49e5ec9-8a2d-4ed4-acae-9e13e21d67f2"},"onsetDateTime":"2025-08-15T08:00:00.000+00:00"},"request":{"method":"PUT","url":"Condition/e20a629c-6eb4-4a75-b0c3-3872da70aa82"}},{"fullUrl":"https://madie.cms.gov/Encounter/office-visit-e2bb","resource":{"resourceType":"Encounter","id":"ce93de20-6dd4-417a-90f5-e1899154051c","meta":{"profile":["http://hl7.org/fhir/us/qicore/StructureDefinition/qicore-encounter"]},"status":"finished","class":{"system":"http://terminology.hl7.org/CodeSystem/v3-ActCode","code":"AMB","display":"ambulatory","userSelected":true},"type":[{"coding":[{"system":"http://snomed.info/sct","version":"2021-09","code":"185463005","display":"Visit out of hours (procedure)","userSelected":true}]}],"subject":{"reference":"Patient/b49e5ec9-8a2d-4ed4-acae-9e13e21d67f2"},"period":{"start":"2025-08-15T08:00:00.000+00:00","end":"2025-08-15T08:15:00.000+00:00"}},"request":{"method":"PUT","url":"Encounter/ce93de20-6dd4-417a-90f5-e1899154051c"}},{"fullUrl":"https://madie.cms.gov/Condition/chronic-kidney-disease-stage-5-539a","resource":{"resourceType":"Condition","id":"d86f0c46-2bed-45b2-a432-9acc866c3653","meta":{"profile":["http://hl7.org/fhir/us/qicore/StructureDefinition/qicore-condition"]},"clinicalStatus":{"coding":[{"system":"http://terminology.hl7.org/CodeSystem/condition-clinical","code":"active","display":"Active","userSelected":true}]},"category":[{"coding":[{"system":"http://terminology.hl7.org/CodeSystem/condition-category","code":"encounter-diagnosis","display":"Encounter Diagnosis","userSelected":true}]}],"code":{"coding":[{"system":"http://snomed.info/sct","version":"2021-09","code":"433146000","display":"Chronic kidney disease stage 5 (disorder)","userSelected":true}]},"subject":{"reference":"Patient/b49e5ec9-8a2d-4ed4-acae-9e13e21d67f2"},"onsetDateTime":"2023-08-15T08:00:00.000+00:00"},"request":{"method":"PUT","url":"Condition/d86f0c46-2bed-45b2-a432-9acc866c3653"}},{"fullUrl":"https://madie.cms.gov/MeasureReport/e4c8630a-0763-44d1-9189-57e64f13832b","resource":{"resourceType":"MeasureReport","id":"e4c8630a-0763-44d1-9189-57e64f13832b","meta":{"profile":["http://hl7.org/fhir/us/cqfmeasures/StructureDefinition/test-case-cqfm"]},"contained":[{"resourceType":"Parameters","id":"666297a9-57cb-47d1-a65d-dbb081c5d557-parameters","parameter":[{"name":"subject","valueString":"b49e5ec9-8a2d-4ed4-acae-9e13e21d67f2"}]}],"extension":[{"url":"http://hl7.org/fhir/us/cqfmeasures/StructureDefinition/cqfm-inputParameters","valueReference":{"reference":"#666297a9-57cb-47d1-a65d-dbb081c5d557-parameters"}},{"url":"http://hl7.org/fhir/us/cqfmeasures/StructureDefinition/cqfm-testCaseDescription","valueMarkdown":"Patient has diabetes diagnosis and both labs plus CKD stage 5. This case tests the denominator exclusions."}],"modifierExtension":[{"url":"http://hl7.org/fhir/us/cqfmeasures/StructureDefinition/cqfm-isTestCase","valueBoolean":true}],"status":"complete","type":"individual","measure":"https://madie.cms.gov/Measure/KidneyHealthEvaluationFHIR","period":{"start":"2025-01-01","end":"2025-12-31"},"group":[{"population":[{"code":{"coding":[{"system":"http://terminology.hl7.org/CodeSystem/measure-population","code":"initial-population","display":"Initial Population"}]},"count":1},{"code":{"coding":[{"system":"http://terminology.hl7.org/CodeSystem/measure-population","code":"denominator","display":"Denominator"}]},"count":1},{"code":{"coding":[{"system":"http://terminology.hl7.org/CodeSystem/measure-population","code":"denominator-exclusion","display":"Denominator Exclusion"}]},"count":1},{"code":{"coding":[{"system":"http://terminology.hl7.org/CodeSystem/measure-population","code":"numerator","display":"Numerator"}]},"count":0}]}]},"request":{"method":"PUT","url":"MeasureReport/e4c8630a-0763-44d1-9189-57e64f13832b"}}]}