{"resourceType":"Bundle","id":"tests-ac7a62b6-a440-4d4c-849d-0ce05743109c-bundle","type":"transaction","entry":[{"fullUrl":"https://madie.cms.gov/Patient/ac7a62b6-a440-4d4c-849d-0ce05743109c","resource":{"resourceType":"Patient","id":"ac7a62b6-a440-4d4c-849d-0ce05743109c","meta":{"profile":["http://hl7.org/fhir/us/qicore/StructureDefinition/qicore-patient"]},"extension":[{"url":"http://hl7.org/fhir/us/core/StructureDefinition/us-core-race","extension":[{"url":"ombCategory","valueCoding":{"system":"urn:oid:2.16.840.1.113883.6.238","code":"2076-8","display":"Native Hawaiian or Other Pacific Islander","userSelected":true}},{"url":"text","valueString":"Native Hawaiian or Other Pacific Islander"}]},{"url":"http://hl7.org/fhir/us/core/StructureDefinition/us-core-ethnicity","extension":[{"url":"ombCategory","valueCoding":{"system":"urn:oid:2.16.840.1.113883.6.238","code":"2186-5","display":"Not Hispanic or Latino","userSelected":true}},{"url":"text","valueString":"Not Hispanic or Latino"}]}],"identifier":[{"type":{"coding":[{"system":"http://terminology.hl7.org/CodeSystem/v2-0203","code":"MR"}]},"system":"https://bonnie-fhir.healthit.gov/","value":"64137f014b11b147841ab90a"}],"name":[{"family":"NUMERPass","given":["EdgeAge18Jan1"]}],"gender":"male","birthDate":"2006-01-01"},"request":{"method":"PUT","url":"Patient/ac7a62b6-a440-4d4c-849d-0ce05743109c"}},{"fullUrl":"https://madie.cms.gov/Condition/diabetes-b90d","resource":{"resourceType":"Condition","id":"e786a76d-8a73-4881-ac4f-7b3441838761","meta":{"profile":["http://hl7.org/fhir/us/qicore/StructureDefinition/qicore-condition"]},"clinicalStatus":{"coding":[{"system":"http://terminology.hl7.org/CodeSystem/condition-clinical","code":"active","display":"active","userSelected":true}]},"category":[{"coding":[{"system":"http://terminology.hl7.org/CodeSystem/condition-category","code":"encounter-diagnosis","display":"Encounter Diagnosis","userSelected":true}]}],"code":{"coding":[{"system":"http://snomed.info/sct","version":"2021-09","code":"102781000119107","display":"Sensory neuropathy due to type 1 diabetes mellitus (disorder)","userSelected":true}]},"subject":{"reference":"Patient/ac7a62b6-a440-4d4c-849d-0ce05743109c"},"onsetDateTime":"2023-09-01T08:00:00.000+00:00"},"request":{"method":"PUT","url":"Condition/e786a76d-8a73-4881-ac4f-7b3441838761"}},{"fullUrl":"https://madie.cms.gov/Encounter/preventive-care-services-initial-office-visit-18-and-up-b90e","resource":{"resourceType":"Encounter","id":"7e7b6a66-e765-4dd7-9126-a5334c6f3208","meta":{"profile":["http://hl7.org/fhir/us/qicore/StructureDefinition/qicore-encounter"]},"status":"finished","class":{"system":"http://terminology.hl7.org/CodeSystem/v3-ActCode","code":"AMB","display":"ambulatory","userSelected":true},"type":[{"coding":[{"system":"http://www.ama-assn.org/go/cpt","version":"2021","code":"99385","display":"Initial comprehensive preventive medicine evaluation and management of an individual including an age and gender appropriate history, examination, counseling/anticipatory guidance/risk factor reduction interventions, and the ordering of laboratory/diagnostic procedures, new patient; 18-39 years","userSelected":true}]}],"subject":{"reference":"Patient/ac7a62b6-a440-4d4c-849d-0ce05743109c"},"period":{"start":"2025-03-16T08:00:00.000+00:00","end":"2025-03-16T08:15:00.000+00:00"}},"request":{"method":"PUT","url":"Encounter/7e7b6a66-e765-4dd7-9126-a5334c6f3208"}},{"fullUrl":"https://madie.cms.gov/Observation/estimated-glomerular-filtration-rate-b90f","resource":{"resourceType":"Observation","id":"0c670811-56ec-4e91-b6a5-8e9f9a5052e5","meta":{"profile":["http://hl7.org/fhir/us/qicore/StructureDefinition/qicore-observation"]},"status":"final","category":[{"coding":[{"system":"http://terminology.hl7.org/CodeSystem/observation-category","code":"laboratory","display":"Laboratory","userSelected":true}]}],"code":{"coding":[{"system":"http://loinc.org","version":"2.71","code":"48642-3","display":"Glomerular filtration rate/1.73 sq M.predicted among non-blacks [Volume Rate/Area] in Serum, Plasma or Blood by Creatinine-based formula (MDRD)","userSelected":true}]},"subject":{"reference":"Patient/ac7a62b6-a440-4d4c-849d-0ce05743109c"},"effectiveDateTime":"2025-01-05T08:00:00.000+00:00","valueBoolean":true},"request":{"method":"PUT","url":"Observation/0c670811-56ec-4e91-b6a5-8e9f9a5052e5"}},{"fullUrl":"https://madie.cms.gov/Observation/urine-albumin-creatinine-ratio-b910","resource":{"resourceType":"Observation","id":"aa7b66db-ec52-4c4e-be75-49a8f3812198","meta":{"profile":["http://hl7.org/fhir/us/qicore/StructureDefinition/qicore-observation"]},"status":"final","category":[{"coding":[{"system":"http://terminology.hl7.org/CodeSystem/observation-category","code":"laboratory","display":"Laboratory","userSelected":true}]}],"code":{"coding":[{"system":"http://loinc.org","version":"2.71","code":"13705-9","display":"Albumin/Creatinine [Mass Ratio] in 24 hour Urine","userSelected":true}]},"subject":{"reference":"Patient/ac7a62b6-a440-4d4c-849d-0ce05743109c"},"effectiveDateTime":"2025-01-05T08:00:00.000+00:00","valueBoolean":true},"request":{"method":"PUT","url":"Observation/aa7b66db-ec52-4c4e-be75-49a8f3812198"}},{"fullUrl":"https://madie.cms.gov/MeasureReport/e05e4d4b-d1dc-46e8-8d89-9a2d38e73408","resource":{"resourceType":"MeasureReport","id":"e05e4d4b-d1dc-46e8-8d89-9a2d38e73408","meta":{"profile":["http://hl7.org/fhir/us/cqfmeasures/StructureDefinition/test-case-cqfm"]},"contained":[{"resourceType":"Parameters","id":"c5901416-bb70-4159-aab9-4dce446b94d9-parameters","parameter":[{"name":"subject","valueString":"ac7a62b6-a440-4d4c-849d-0ce05743109c"}]}],"extension":[{"url":"http://hl7.org/fhir/us/cqfmeasures/StructureDefinition/cqfm-inputParameters","valueReference":{"reference":"#c5901416-bb70-4159-aab9-4dce446b94d9-parameters"}},{"url":"http://hl7.org/fhir/us/cqfmeasures/StructureDefinition/cqfm-testCaseDescription","valueMarkdown":"This patient turns 18 years the first day of the measurement period, and has a qualifying encounter, active diabetes diagnosis, and both qualifying labs. This case tests the IPP age criteria."}],"modifierExtension":[{"url":"http://hl7.org/fhir/us/cqfmeasures/StructureDefinition/cqfm-isTestCase","valueBoolean":true}],"status":"complete","type":"individual","measure":"https://madie.cms.gov/Measure/KidneyHealthEvaluationFHIR","period":{"start":"2025-01-01","end":"2025-12-31"},"group":[{"population":[{"code":{"coding":[{"system":"http://terminology.hl7.org/CodeSystem/measure-population","code":"initial-population","display":"Initial Population"}]},"count":1},{"code":{"coding":[{"system":"http://terminology.hl7.org/CodeSystem/measure-population","code":"denominator","display":"Denominator"}]},"count":1},{"code":{"coding":[{"system":"http://terminology.hl7.org/CodeSystem/measure-population","code":"denominator-exclusion","display":"Denominator Exclusion"}]},"count":0},{"code":{"coding":[{"system":"http://terminology.hl7.org/CodeSystem/measure-population","code":"numerator","display":"Numerator"}]},"count":1}]}]},"request":{"method":"PUT","url":"MeasureReport/e05e4d4b-d1dc-46e8-8d89-9a2d38e73408"}}]}