{"resourceType":"Bundle","id":"tests-54c38c8f-1e1b-41a7-a2fe-9ee285a923bc-bundle","type":"transaction","entry":[{"fullUrl":"https://madie.cms.gov/Patient/54c38c8f-1e1b-41a7-a2fe-9ee285a923bc","resource":{"resourceType":"Patient","id":"54c38c8f-1e1b-41a7-a2fe-9ee285a923bc","meta":{"profile":["http://hl7.org/fhir/us/qicore/StructureDefinition/qicore-patient"]},"extension":[{"url":"http://hl7.org/fhir/us/core/StructureDefinition/us-core-race","extension":[{"url":"ombCategory","valueCoding":{"system":"urn:oid:2.16.840.1.113883.6.238","code":"2106-3","display":"White","userSelected":true}},{"url":"text","valueString":"White"}]},{"url":"http://hl7.org/fhir/us/core/StructureDefinition/us-core-ethnicity","extension":[{"url":"ombCategory","valueCoding":{"system":"urn:oid:2.16.840.1.113883.6.238","code":"2135-2","display":"Hispanic or Latino","userSelected":true}},{"url":"text","valueString":"Hispanic or Latino"}]}],"identifier":[{"type":{"coding":[{"system":"http://terminology.hl7.org/CodeSystem/v2-0203","code":"MR"}]},"system":"https://bonnie-fhir.healthit.gov/","value":"6413742b4b11b147841ab8dc"}],"name":[{"family":"DENOMFail","given":["AgeLessThan18EncoDiabetes"]}],"gender":"female","birthDate":"2010-10-15"},"request":{"method":"PUT","url":"Patient/54c38c8f-1e1b-41a7-a2fe-9ee285a923bc"}},{"fullUrl":"https://madie.cms.gov/Condition/diabetes-b8dd","resource":{"resourceType":"Condition","id":"656e8acc-f61e-4c04-bae8-c6703abdc365","meta":{"profile":["http://hl7.org/fhir/us/qicore/StructureDefinition/qicore-condition"]},"clinicalStatus":{"coding":[{"system":"http://terminology.hl7.org/CodeSystem/condition-clinical","code":"active","display":"active","userSelected":true}]},"category":[{"coding":[{"system":"http://terminology.hl7.org/CodeSystem/condition-category","code":"problem-list-item","display":"problem-list-item","userSelected":true}]}],"code":{"coding":[{"system":"http://snomed.info/sct","version":"2021-09","code":"102781000119107","display":"Sensory neuropathy due to type 1 diabetes mellitus (disorder)","userSelected":true}]},"subject":{"reference":"Patient/54c38c8f-1e1b-41a7-a2fe-9ee285a923bc"},"onsetDateTime":"2025-01-04T08:00:00.000+00:00"},"request":{"method":"PUT","url":"Condition/656e8acc-f61e-4c04-bae8-c6703abdc365"}},{"fullUrl":"https://madie.cms.gov/Encounter/annual-wellness-visit-b8de","resource":{"resourceType":"Encounter","id":"e51a56f8-ad63-46ef-8333-999ab9a626b1","meta":{"profile":["http://hl7.org/fhir/us/qicore/StructureDefinition/qicore-encounter"]},"status":"finished","class":{"system":"http://terminology.hl7.org/CodeSystem/v3-ActCode","code":"AMB","display":"ambulatory","userSelected":true},"type":[{"coding":[{"system":"http://snomed.info/sct","version":"2021-09","code":"444971000124105","display":"Annual wellness visit (procedure)","userSelected":true}]}],"subject":{"reference":"Patient/54c38c8f-1e1b-41a7-a2fe-9ee285a923bc"},"period":{"start":"2025-03-16T08:00:00.000+00:00","end":"2025-03-16T08:15:00.000+00:00"}},"request":{"method":"PUT","url":"Encounter/e51a56f8-ad63-46ef-8333-999ab9a626b1"}},{"fullUrl":"https://madie.cms.gov/MeasureReport/b7490757-a8bb-4140-8da6-684c34872f3f","resource":{"resourceType":"MeasureReport","id":"b7490757-a8bb-4140-8da6-684c34872f3f","meta":{"profile":["http://hl7.org/fhir/us/cqfmeasures/StructureDefinition/test-case-cqfm"]},"contained":[{"resourceType":"Parameters","id":"e60de509-250f-4254-a176-21e2a2c6628f-parameters","parameter":[{"name":"subject","valueString":"54c38c8f-1e1b-41a7-a2fe-9ee285a923bc"}]}],"extension":[{"url":"http://hl7.org/fhir/us/cqfmeasures/StructureDefinition/cqfm-inputParameters","valueReference":{"reference":"#e60de509-250f-4254-a176-21e2a2c6628f-parameters"}},{"url":"http://hl7.org/fhir/us/cqfmeasures/StructureDefinition/cqfm-testCaseDescription","valueMarkdown":"This patient is 13 years old, with a qualifying encounter and active diabetes diagnosis, but no lab tests or exclusions. This case tests the denominator criteria."}],"modifierExtension":[{"url":"http://hl7.org/fhir/us/cqfmeasures/StructureDefinition/cqfm-isTestCase","valueBoolean":true}],"status":"complete","type":"individual","measure":"https://madie.cms.gov/Measure/KidneyHealthEvaluationFHIR","period":{"start":"2025-01-01","end":"2025-12-31"},"group":[{"population":[{"code":{"coding":[{"system":"http://terminology.hl7.org/CodeSystem/measure-population","code":"initial-population","display":"Initial Population"}]},"count":0},{"code":{"coding":[{"system":"http://terminology.hl7.org/CodeSystem/measure-population","code":"denominator","display":"Denominator"}]},"count":0},{"code":{"coding":[{"system":"http://terminology.hl7.org/CodeSystem/measure-population","code":"denominator-exclusion","display":"Denominator Exclusion"}]},"count":0},{"code":{"coding":[{"system":"http://terminology.hl7.org/CodeSystem/measure-population","code":"numerator","display":"Numerator"}]},"count":0}]}]},"request":{"method":"PUT","url":"MeasureReport/b7490757-a8bb-4140-8da6-684c34872f3f"}}]}