{"resourceType":"Bundle","id":"tests-8cfb2747-a46d-4348-9e21-5ef3417e524a-bundle","type":"transaction","entry":[{"fullUrl":"https://madie.cms.gov/Patient/8cfb2747-a46d-4348-9e21-5ef3417e524a","resource":{"resourceType":"Patient","id":"8cfb2747-a46d-4348-9e21-5ef3417e524a","meta":{"profile":["http://hl7.org/fhir/us/qicore/StructureDefinition/qicore-patient"]},"extension":[{"url":"http://hl7.org/fhir/us/core/StructureDefinition/us-core-race","extension":[{"url":"ombCategory","valueCoding":{"system":"urn:oid:2.16.840.1.113883.6.238","code":"2028-9","display":"Asian","userSelected":true}},{"url":"text","valueString":"Asian"}]},{"url":"http://hl7.org/fhir/us/core/StructureDefinition/us-core-ethnicity","extension":[{"url":"ombCategory","valueCoding":{"system":"urn:oid:2.16.840.1.113883.6.238","code":"2186-5","display":"Not Hispanic or Latino","userSelected":true}},{"url":"text","valueString":"Not Hispanic or Latino"}]}],"identifier":[{"type":{"coding":[{"system":"http://terminology.hl7.org/CodeSystem/v2-0203","code":"MR"}]},"system":"https://bonnie-fhir.healthit.gov/","value":"62fa573ff4a8c3cd9f45539e"}],"name":[{"family":"NUMERFail","given":["KidenyPanelPerformedNoValue"]}],"gender":"male","birthDate":"2004-12-01"},"request":{"method":"PUT","url":"Patient/8cfb2747-a46d-4348-9e21-5ef3417e524a"}},{"fullUrl":"https://madie.cms.gov/Condition/diabetes-e2ba","resource":{"resourceType":"Condition","id":"d1221616-9161-4c61-9424-4ca4945f8033","meta":{"profile":["http://hl7.org/fhir/us/qicore/StructureDefinition/qicore-condition"]},"clinicalStatus":{"coding":[{"system":"http://terminology.hl7.org/CodeSystem/condition-clinical","code":"active","display":"active","userSelected":true}]},"category":[{"coding":[{"system":"http://terminology.hl7.org/CodeSystem/condition-category","code":"problem-list-item","display":"problem-list-item","userSelected":true}]}],"code":{"coding":[{"system":"http://snomed.info/sct","version":"2021-09","code":"102781000119107","display":"Sensory neuropathy due to type 1 diabetes mellitus (disorder)","userSelected":true}]},"subject":{"reference":"Patient/8cfb2747-a46d-4348-9e21-5ef3417e524a"},"onsetDateTime":"2025-08-15T08:00:00.000+00:00"},"request":{"method":"PUT","url":"Condition/d1221616-9161-4c61-9424-4ca4945f8033"}},{"fullUrl":"https://madie.cms.gov/Encounter/office-visit-e2bb","resource":{"resourceType":"Encounter","id":"fcf2d833-47df-48e8-8ccd-c3ed85161e4a","meta":{"profile":["http://hl7.org/fhir/us/qicore/StructureDefinition/qicore-encounter"]},"status":"finished","class":{"system":"http://terminology.hl7.org/CodeSystem/v3-ActCode","code":"AMB","display":"ambulatory","userSelected":true},"type":[{"coding":[{"system":"http://snomed.info/sct","version":"2021-09","code":"185463005","display":"Visit out of hours (procedure)","userSelected":true}]}],"subject":{"reference":"Patient/8cfb2747-a46d-4348-9e21-5ef3417e524a"},"period":{"start":"2025-08-15T08:00:00.000+00:00","end":"2025-08-15T08:15:00.000+00:00"}},"request":{"method":"PUT","url":"Encounter/fcf2d833-47df-48e8-8ccd-c3ed85161e4a"}},{"fullUrl":"https://madie.cms.gov/Observation/estimated-glomerular-filtration-rate-5397","resource":{"resourceType":"Observation","id":"eb590eb9-8508-4ff9-8a95-c9f46483201e","meta":{"profile":["http://hl7.org/fhir/us/qicore/StructureDefinition/qicore-observation"]},"status":"final","category":[{"coding":[{"system":"http://terminology.hl7.org/CodeSystem/observation-category","code":"laboratory","display":"laboratory","userSelected":true}]}],"code":{"coding":[{"system":"http://loinc.org","version":"2.71","code":"48642-3","display":"Glomerular filtration rate/1.73 sq M.predicted among non-blacks [Volume Rate/Area] in Serum, Plasma or Blood by Creatinine-based formula (MDRD)","userSelected":true}]},"subject":{"reference":"Patient/8cfb2747-a46d-4348-9e21-5ef3417e524a"},"effectiveDateTime":"2025-08-15T08:00:00.000+00:00"},"request":{"method":"PUT","url":"Observation/eb590eb9-8508-4ff9-8a95-c9f46483201e"}},{"fullUrl":"https://madie.cms.gov/Observation/urine-albumin-creatinine-ratio-5398","resource":{"resourceType":"Observation","id":"db56c0a5-b55b-4d81-b1b1-e1320f5f4b1b","meta":{"profile":["http://hl7.org/fhir/us/qicore/StructureDefinition/qicore-observation"]},"status":"final","category":[{"coding":[{"system":"http://terminology.hl7.org/CodeSystem/observation-category","code":"laboratory","display":"laboratory","userSelected":true}]}],"code":{"coding":[{"system":"http://loinc.org","version":"2.71","code":"13705-9","display":"Albumin/Creatinine [Mass Ratio] in 24 hour Urine","userSelected":true}]},"subject":{"reference":"Patient/8cfb2747-a46d-4348-9e21-5ef3417e524a"},"effectiveDateTime":"2025-08-15T08:00:00.000+00:00","valueBoolean":true},"request":{"method":"PUT","url":"Observation/db56c0a5-b55b-4d81-b1b1-e1320f5f4b1b"}},{"fullUrl":"https://madie.cms.gov/MeasureReport/010892a6-4b7a-4b91-a508-460dc2faa0c9","resource":{"resourceType":"MeasureReport","id":"010892a6-4b7a-4b91-a508-460dc2faa0c9","meta":{"profile":["http://hl7.org/fhir/us/cqfmeasures/StructureDefinition/test-case-cqfm"]},"contained":[{"resourceType":"Parameters","id":"704646d3-ecfa-4817-b8ab-ea28266fa634-parameters","parameter":[{"name":"subject","valueString":"8cfb2747-a46d-4348-9e21-5ef3417e524a"}]}],"extension":[{"url":"http://hl7.org/fhir/us/cqfmeasures/StructureDefinition/cqfm-inputParameters","valueReference":{"reference":"#704646d3-ecfa-4817-b8ab-ea28266fa634-parameters"}},{"url":"http://hl7.org/fhir/us/cqfmeasures/StructureDefinition/cqfm-testCaseDescription","valueMarkdown":"This patient has active diabetes and a qualifying encounter but no values recorded for the kidney panel. This case tests the numerator criteria."}],"modifierExtension":[{"url":"http://hl7.org/fhir/us/cqfmeasures/StructureDefinition/cqfm-isTestCase","valueBoolean":true}],"status":"complete","type":"individual","measure":"https://madie.cms.gov/Measure/KidneyHealthEvaluationFHIR","period":{"start":"2025-01-01","end":"2025-12-31"},"group":[{"population":[{"code":{"coding":[{"system":"http://terminology.hl7.org/CodeSystem/measure-population","code":"initial-population","display":"Initial Population"}]},"count":1},{"code":{"coding":[{"system":"http://terminology.hl7.org/CodeSystem/measure-population","code":"denominator","display":"Denominator"}]},"count":1},{"code":{"coding":[{"system":"http://terminology.hl7.org/CodeSystem/measure-population","code":"denominator-exclusion","display":"Denominator Exclusion"}]},"count":0},{"code":{"coding":[{"system":"http://terminology.hl7.org/CodeSystem/measure-population","code":"numerator","display":"Numerator"}]},"count":0}]}]},"request":{"method":"PUT","url":"MeasureReport/010892a6-4b7a-4b91-a508-460dc2faa0c9"}}]}