{"resourceType":"Bundle","id":"tests-ef8cde66-ab81-4a37-8cc2-6b390182b7ac-bundle","type":"transaction","entry":[{"fullUrl":"https://madie.cms.gov/Patient/ef8cde66-ab81-4a37-8cc2-6b390182b7ac","resource":{"resourceType":"Patient","id":"ef8cde66-ab81-4a37-8cc2-6b390182b7ac","meta":{"profile":["http://hl7.org/fhir/us/qicore/StructureDefinition/qicore-patient"]},"extension":[{"url":"http://hl7.org/fhir/us/core/StructureDefinition/us-core-race","extension":[{"url":"ombCategory","valueCoding":{"system":"urn:oid:2.16.840.1.113883.6.238","code":"1002-5","display":"American Indian or Alaska Native","userSelected":true}},{"url":"text","valueString":"American Indian or Alaska Native"}]},{"url":"http://hl7.org/fhir/us/core/StructureDefinition/us-core-ethnicity","extension":[{"url":"ombCategory","valueCoding":{"system":"urn:oid:2.16.840.1.113883.6.238","code":"2186-5","display":"Not Hispanic or Latino","userSelected":true}},{"url":"text","valueString":"Not Hispanic or Latino"}]}],"identifier":[{"type":{"coding":[{"system":"http://terminology.hl7.org/CodeSystem/v2-0203","code":"MR"}]},"system":"https://bonnie-fhir.healthit.gov/","value":"641378e54b11b147841ab8eb"}],"name":[{"family":"DENOMFail","given":["OfficeVisitB4MP"]}],"gender":"female","birthDate":"2003-07-12"},"request":{"method":"PUT","url":"Patient/ef8cde66-ab81-4a37-8cc2-6b390182b7ac"}},{"fullUrl":"https://madie.cms.gov/Condition/diabetes-b8ec","resource":{"resourceType":"Condition","id":"be73bb46-2d59-4a0d-b32c-21f7df5912d6","meta":{"profile":["http://hl7.org/fhir/us/qicore/StructureDefinition/qicore-condition"]},"clinicalStatus":{"coding":[{"system":"http://terminology.hl7.org/CodeSystem/condition-clinical","code":"active","display":"active","userSelected":true}]},"category":[{"coding":[{"system":"http://terminology.hl7.org/CodeSystem/condition-category","code":"encounter-diagnosis","display":"Encounter Diagnosis","userSelected":true}]}],"code":{"coding":[{"system":"http://snomed.info/sct","version":"2021-09","code":"102781000119107","display":"Sensory neuropathy due to type 1 diabetes mellitus (disorder)","userSelected":true}]},"subject":{"reference":"Patient/ef8cde66-ab81-4a37-8cc2-6b390182b7ac"},"onsetDateTime":"2025-03-16T08:00:00.000+00:00","recordedDate":"2025-03-16T08:00:00.000+00:00"},"request":{"method":"PUT","url":"Condition/be73bb46-2d59-4a0d-b32c-21f7df5912d6"}},{"fullUrl":"https://madie.cms.gov/Encounter/office-visit-b8ed","resource":{"resourceType":"Encounter","id":"dcfa9dae-e44e-41c3-ba8d-35996b274df3","meta":{"profile":["http://hl7.org/fhir/us/qicore/StructureDefinition/qicore-encounter"]},"status":"finished","class":{"system":"http://terminology.hl7.org/CodeSystem/v3-ActCode","code":"AMB","display":"ambulatory","userSelected":true},"type":[{"coding":[{"system":"http://snomed.info/sct","version":"2021-09","code":"185463005","display":"Visit out of hours (procedure)","userSelected":true}]}],"subject":{"reference":"Patient/ef8cde66-ab81-4a37-8cc2-6b390182b7ac"},"period":{"start":"2023-11-15T08:00:00.000+00:00","end":"2023-11-15T08:15:00.000+00:00"}},"request":{"method":"PUT","url":"Encounter/dcfa9dae-e44e-41c3-ba8d-35996b274df3"}},{"fullUrl":"https://madie.cms.gov/MeasureReport/12be8ab0-e9fc-4bcf-8674-6558362958f9","resource":{"resourceType":"MeasureReport","id":"12be8ab0-e9fc-4bcf-8674-6558362958f9","meta":{"profile":["http://hl7.org/fhir/us/cqfmeasures/StructureDefinition/test-case-cqfm"]},"contained":[{"resourceType":"Parameters","id":"0111392b-c1f3-40b9-840a-bbb279234174-parameters","parameter":[{"name":"subject","valueString":"ef8cde66-ab81-4a37-8cc2-6b390182b7ac"}]}],"extension":[{"url":"http://hl7.org/fhir/us/cqfmeasures/StructureDefinition/cqfm-inputParameters","valueReference":{"reference":"#0111392b-c1f3-40b9-840a-bbb279234174-parameters"}},{"url":"http://hl7.org/fhir/us/cqfmeasures/StructureDefinition/cqfm-testCaseDescription","valueMarkdown":"This patient is 20 years old, and with active diabetes diagnosis but no qualifying encounter. This case tests the encounter criteria of the Denom. "}],"modifierExtension":[{"url":"http://hl7.org/fhir/us/cqfmeasures/StructureDefinition/cqfm-isTestCase","valueBoolean":true}],"status":"complete","type":"individual","measure":"https://madie.cms.gov/Measure/KidneyHealthEvaluationFHIR","period":{"start":"2025-01-01","end":"2025-12-31"},"group":[{"population":[{"code":{"coding":[{"system":"http://terminology.hl7.org/CodeSystem/measure-population","code":"initial-population","display":"Initial Population"}]},"count":0},{"code":{"coding":[{"system":"http://terminology.hl7.org/CodeSystem/measure-population","code":"denominator","display":"Denominator"}]},"count":0},{"code":{"coding":[{"system":"http://terminology.hl7.org/CodeSystem/measure-population","code":"denominator-exclusion","display":"Denominator Exclusion"}]},"count":0},{"code":{"coding":[{"system":"http://terminology.hl7.org/CodeSystem/measure-population","code":"numerator","display":"Numerator"}]},"count":0}]}]},"request":{"method":"PUT","url":"MeasureReport/12be8ab0-e9fc-4bcf-8674-6558362958f9"}}]}