{"resourceType":"Bundle","id":"tests-f2b74f6e-1b67-49ca-b9b1-bb6752287935-bundle","type":"transaction","entry":[{"fullUrl":"https://madie.cms.gov/Patient/f2b74f6e-1b67-49ca-b9b1-bb6752287935","resource":{"resourceType":"Patient","id":"f2b74f6e-1b67-49ca-b9b1-bb6752287935","meta":{"profile":["http://hl7.org/fhir/us/qicore/StructureDefinition/qicore-patient"]},"extension":[{"url":"http://hl7.org/fhir/us/core/StructureDefinition/us-core-race","extension":[{"url":"ombCategory","valueCoding":{"system":"urn:oid:2.16.840.1.113883.6.238","code":"1002-5","display":"American Indian or Alaska Native","userSelected":true}},{"url":"text","valueString":"American Indian or Alaska Native"},{"url":"detailed","valueCoding":{"system":"urn:oid:2.16.840.1.113883.6.238","code":"1653-5","display":"Tohono O'Odham"}}]},{"url":"http://hl7.org/fhir/us/core/StructureDefinition/us-core-ethnicity","extension":[{"url":"ombCategory","valueCoding":{"system":"urn:oid:2.16.840.1.113883.6.238","code":"2135-2","display":"Hispanic or Latino","userSelected":true}},{"url":"text","valueString":"Not Hispanic or Latino"},{"url":"detailed","valueCoding":{"system":"urn:oid:2.16.840.1.113883.6.238","code":"2153-5","display":"Mexican American Indian"}}]}],"identifier":[{"type":{"coding":[{"system":"http://terminology.hl7.org/CodeSystem/v2-0203","code":"MR"}]},"system":"https://bonnie-fhir.healthit.gov/","value":"641376734b11b147841ab8e8"}],"name":[{"family":"DENOMFail","given":["EncounterOutofMP"]}],"gender":"female","birthDate":"2003-07-12"},"request":{"method":"PUT","url":"Patient/f2b74f6e-1b67-49ca-b9b1-bb6752287935"}},{"fullUrl":"https://madie.cms.gov/Condition/diabetes-b8e9","resource":{"resourceType":"Condition","id":"fe97d911-454e-4a46-8daf-91b2ba70312c","meta":{"profile":["http://hl7.org/fhir/us/qicore/StructureDefinition/qicore-condition"]},"clinicalStatus":{"coding":[{"system":"http://terminology.hl7.org/CodeSystem/condition-clinical","code":"active","display":"active","userSelected":true}]},"category":[{"coding":[{"system":"http://terminology.hl7.org/CodeSystem/condition-category","code":"encounter-diagnosis","display":"Encounter Diagnosis","userSelected":true}]}],"code":{"coding":[{"system":"http://snomed.info/sct","version":"2021-09","code":"102781000119107","display":"Sensory neuropathy due to type 1 diabetes mellitus (disorder)","userSelected":true}]},"subject":{"reference":"Patient/f2b74f6e-1b67-49ca-b9b1-bb6752287935"},"onsetDateTime":"2025-03-16T08:00:00.000+00:00"},"request":{"method":"PUT","url":"Condition/fe97d911-454e-4a46-8daf-91b2ba70312c"}},{"fullUrl":"https://madie.cms.gov/Encounter/annual-wellness-visit-b8ea","resource":{"resourceType":"Encounter","id":"bcfd6210-083d-4eac-a270-e57bad0ca2d8","meta":{"profile":["http://hl7.org/fhir/us/qicore/StructureDefinition/qicore-encounter"]},"status":"finished","class":{"system":"http://terminology.hl7.org/CodeSystem/v3-ActCode","code":"AMB","display":"ambulatory","userSelected":true},"type":[{"coding":[{"system":"http://snomed.info/sct","version":"2021-09","code":"444971000124105","display":"Annual wellness visit (procedure)","userSelected":true}]}],"subject":{"reference":"Patient/f2b74f6e-1b67-49ca-b9b1-bb6752287935"},"period":{"start":"2024-02-01T08:00:00.000+00:00","end":"2024-02-01T08:15:00.000+00:00"}},"request":{"method":"PUT","url":"Encounter/bcfd6210-083d-4eac-a270-e57bad0ca2d8"}},{"fullUrl":"https://madie.cms.gov/MeasureReport/5b0a4e9a-a3d8-4700-b682-f31a218c59fa","resource":{"resourceType":"MeasureReport","id":"5b0a4e9a-a3d8-4700-b682-f31a218c59fa","meta":{"profile":["http://hl7.org/fhir/us/cqfmeasures/StructureDefinition/test-case-cqfm"]},"contained":[{"resourceType":"Parameters","id":"d66da1af-c994-4a74-be4a-af2039cea756-parameters","parameter":[{"name":"subject","valueString":"f2b74f6e-1b67-49ca-b9b1-bb6752287935"}]}],"extension":[{"url":"http://hl7.org/fhir/us/cqfmeasures/StructureDefinition/cqfm-inputParameters","valueReference":{"reference":"#d66da1af-c994-4a74-be4a-af2039cea756-parameters"}},{"url":"http://hl7.org/fhir/us/cqfmeasures/StructureDefinition/cqfm-testCaseDescription","valueMarkdown":"This patient is 20 years old, and with active diabetes diagnosis but no qualifying encounter. This case tests the encounter criteria of the Denom. "}],"modifierExtension":[{"url":"http://hl7.org/fhir/us/cqfmeasures/StructureDefinition/cqfm-isTestCase","valueBoolean":true}],"status":"complete","type":"individual","measure":"https://madie.cms.gov/Measure/KidneyHealthEvaluationFHIR","period":{"start":"2025-01-01","end":"2025-12-31"},"group":[{"population":[{"code":{"coding":[{"system":"http://terminology.hl7.org/CodeSystem/measure-population","code":"initial-population","display":"Initial Population"}]},"count":0},{"code":{"coding":[{"system":"http://terminology.hl7.org/CodeSystem/measure-population","code":"denominator","display":"Denominator"}]},"count":0},{"code":{"coding":[{"system":"http://terminology.hl7.org/CodeSystem/measure-population","code":"denominator-exclusion","display":"Denominator Exclusion"}]},"count":0},{"code":{"coding":[{"system":"http://terminology.hl7.org/CodeSystem/measure-population","code":"numerator","display":"Numerator"}]},"count":0}]}]},"request":{"method":"PUT","url":"MeasureReport/5b0a4e9a-a3d8-4700-b682-f31a218c59fa"}}]}