{"resourceType":"Bundle","id":"tests-1e8e8baf-0c27-42b2-93ad-5426418552c7-bundle","type":"transaction","entry":[{"fullUrl":"https://madie.cms.gov/Patient/1e8e8baf-0c27-42b2-93ad-5426418552c7","resource":{"resourceType":"Patient","id":"1e8e8baf-0c27-42b2-93ad-5426418552c7","meta":{"profile":["http://hl7.org/fhir/us/qicore/StructureDefinition/qicore-patient"]},"extension":[{"url":"http://hl7.org/fhir/us/core/StructureDefinition/us-core-race","extension":[{"url":"ombCategory","valueCoding":{"system":"urn:oid:2.16.840.1.113883.6.238","code":"2076-8","display":"Native Hawaiian or Other Pacific Islander","userSelected":true}},{"url":"text","valueString":"Native Hawaiian or Other Pacific Islander"}]},{"url":"http://hl7.org/fhir/us/core/StructureDefinition/us-core-ethnicity","extension":[{"url":"ombCategory","valueCoding":{"system":"urn:oid:2.16.840.1.113883.6.238","code":"2186-5","display":"Not Hispanic or Latino","userSelected":true}},{"url":"text","valueString":"Not Hispanic or Latino"}]}],"identifier":[{"type":{"coding":[{"system":"http://terminology.hl7.org/CodeSystem/v2-0203","code":"MR"}]},"system":"https://bonnie-fhir.healthit.gov/","value":"641369f44b11b147841ab8ae"}],"name":[{"family":"DENEXPass","given":["HospEncoLastDayOfMP"]}],"gender":"male","birthDate":"1963-03-22"},"request":{"method":"PUT","url":"Patient/1e8e8baf-0c27-42b2-93ad-5426418552c7"}},{"fullUrl":"https://madie.cms.gov/Condition/diabetes-b8af","resource":{"resourceType":"Condition","id":"257a7943-51db-4f52-baee-8ad7ce685107","meta":{"profile":["http://hl7.org/fhir/us/qicore/StructureDefinition/qicore-condition"]},"clinicalStatus":{"coding":[{"system":"http://terminology.hl7.org/CodeSystem/condition-clinical","code":"active","display":"active","userSelected":true}]},"category":[{"coding":[{"system":"http://terminology.hl7.org/CodeSystem/condition-category","code":"encounter-diagnosis","display":"Encounter Diagnosis","userSelected":true}]}],"code":{"coding":[{"system":"http://snomed.info/sct","version":"2021-09","code":"102781000119107","display":"Sensory neuropathy due to type 1 diabetes mellitus (disorder)","userSelected":true}]},"subject":{"reference":"Patient/1e8e8baf-0c27-42b2-93ad-5426418552c7"},"onsetDateTime":"2025-03-01T08:00:00.000+00:00"},"request":{"method":"PUT","url":"Condition/257a7943-51db-4f52-baee-8ad7ce685107"}},{"fullUrl":"https://madie.cms.gov/Encounter/annual-wellness-visit-b8b0","resource":{"resourceType":"Encounter","id":"0aa3d5d0-dedd-4ee4-8d50-91ec581ddad1","meta":{"profile":["http://hl7.org/fhir/us/qicore/StructureDefinition/qicore-encounter"]},"status":"finished","class":{"system":"http://terminology.hl7.org/CodeSystem/v3-ActCode","code":"AMB","display":"ambulatory","userSelected":true},"type":[{"coding":[{"system":"http://snomed.info/sct","version":"2021-09","code":"444971000124105","display":"Annual wellness visit (procedure)","userSelected":true}]}],"subject":{"reference":"Patient/1e8e8baf-0c27-42b2-93ad-5426418552c7"},"period":{"start":"2025-03-14T08:00:00.000+00:00","end":"2025-03-14T08:15:00.000+00:00"}},"request":{"method":"PUT","url":"Encounter/0aa3d5d0-dedd-4ee4-8d50-91ec581ddad1"}},{"fullUrl":"https://madie.cms.gov/Encounter/hospice-encounter-b8b1","resource":{"resourceType":"Encounter","id":"704002a8-b997-4d3e-94d4-99ca3fea5deb","meta":{"profile":["http://hl7.org/fhir/us/qicore/StructureDefinition/qicore-encounter"]},"status":"finished","class":{"system":"http://www.nlm.nih.gov/research/umls/hcpcs","code":"G9473","display":"Services performed by chaplain in the hospice setting, each 15 minutes","userSelected":true},"type":[{"coding":[{"system":"http://snomed.info/sct","version":"2021-09","code":"183919006","display":"Urgent admission to hospice (procedure)","userSelected":true}]}],"subject":{"reference":"Patient/1e8e8baf-0c27-42b2-93ad-5426418552c7"},"period":{"start":"2025-12-31T08:00:00.000+00:00","end":"2025-12-31T08:15:00.000+00:00"}},"request":{"method":"PUT","url":"Encounter/704002a8-b997-4d3e-94d4-99ca3fea5deb"}},{"fullUrl":"https://madie.cms.gov/MeasureReport/4268c203-2ca8-4db1-a517-b341bf03397d","resource":{"resourceType":"MeasureReport","id":"4268c203-2ca8-4db1-a517-b341bf03397d","meta":{"profile":["http://hl7.org/fhir/us/cqfmeasures/StructureDefinition/test-case-cqfm"]},"contained":[{"resourceType":"Parameters","id":"099034ef-bf08-4ebb-a146-1efe957f4df8-parameters","parameter":[{"name":"subject","valueString":"1e8e8baf-0c27-42b2-93ad-5426418552c7"}]}],"extension":[{"url":"http://hl7.org/fhir/us/cqfmeasures/StructureDefinition/cqfm-inputParameters","valueReference":{"reference":"#099034ef-bf08-4ebb-a146-1efe957f4df8-parameters"}},{"url":"http://hl7.org/fhir/us/cqfmeasures/StructureDefinition/cqfm-testCaseDescription","valueMarkdown":"This patient is 71 years old with a qualifying encounter and active diabetes diagnosis, with a hospice encounter on the last day of the MP. This case tests the denominator exclusion criteria."}],"modifierExtension":[{"url":"http://hl7.org/fhir/us/cqfmeasures/StructureDefinition/cqfm-isTestCase","valueBoolean":true}],"status":"complete","type":"individual","measure":"https://madie.cms.gov/Measure/KidneyHealthEvaluationFHIR","period":{"start":"2025-01-01","end":"2025-12-31"},"group":[{"population":[{"code":{"coding":[{"system":"http://terminology.hl7.org/CodeSystem/measure-population","code":"initial-population","display":"Initial Population"}]},"count":1},{"code":{"coding":[{"system":"http://terminology.hl7.org/CodeSystem/measure-population","code":"denominator","display":"Denominator"}]},"count":1},{"code":{"coding":[{"system":"http://terminology.hl7.org/CodeSystem/measure-population","code":"denominator-exclusion","display":"Denominator Exclusion"}]},"count":1},{"code":{"coding":[{"system":"http://terminology.hl7.org/CodeSystem/measure-population","code":"numerator","display":"Numerator"}]},"count":0}]}]},"request":{"method":"PUT","url":"MeasureReport/4268c203-2ca8-4db1-a517-b341bf03397d"}}]}