{"resourceType":"Bundle","id":"tests-52988c36-5e85-4818-9baa-983a3e27281a-bundle","type":"transaction","entry":[{"fullUrl":"https://madie.cms.gov/Patient/52988c36-5e85-4818-9baa-983a3e27281a","resource":{"resourceType":"Patient","id":"52988c36-5e85-4818-9baa-983a3e27281a","meta":{"profile":["http://hl7.org/fhir/us/qicore/StructureDefinition/qicore-patient"]},"extension":[{"url":"http://hl7.org/fhir/us/core/StructureDefinition/us-core-race","extension":[{"url":"ombCategory","valueCoding":{"system":"urn:oid:2.16.840.1.113883.6.238","code":"2076-8","display":"Native Hawaiian or Other Pacific Islander","userSelected":true}},{"url":"text","valueString":"Native Hawaiian or Other Pacific Islander"}]},{"url":"http://hl7.org/fhir/us/core/StructureDefinition/us-core-ethnicity","extension":[{"url":"ombCategory","valueCoding":{"system":"urn:oid:2.16.840.1.113883.6.238","code":"2186-5","display":"Not Hispanic or Latino","userSelected":true}},{"url":"text","valueString":"Not Hispanic or Latino"}]}],"identifier":[{"type":{"coding":[{"system":"http://terminology.hl7.org/CodeSystem/v2-0203","code":"MR"}]},"system":"https://bonnie-fhir.healthit.gov/","value":"6413828e4b11b147841ab91b"}],"name":[{"family":"NUMERPass","given":["OfficeVisitEGFRAndUACR"]}],"gender":"unknown","birthDate":"1956-12-01"},"request":{"method":"PUT","url":"Patient/52988c36-5e85-4818-9baa-983a3e27281a"}},{"fullUrl":"https://madie.cms.gov/Condition/diabetes-b917","resource":{"resourceType":"Condition","id":"61803c32-c87d-4d54-b1c6-4661056e70cb","meta":{"profile":["http://hl7.org/fhir/us/qicore/StructureDefinition/qicore-condition"]},"clinicalStatus":{"coding":[{"system":"http://terminology.hl7.org/CodeSystem/condition-clinical","code":"active","display":"active","userSelected":true}]},"category":[{"coding":[{"system":"http://terminology.hl7.org/CodeSystem/condition-category","code":"problem-list-item","display":"problem-list-item","userSelected":true}]}],"code":{"coding":[{"system":"http://snomed.info/sct","version":"2021-09","code":"102781000119107","display":"Sensory neuropathy due to type 1 diabetes mellitus (disorder)","userSelected":true}]},"subject":{"reference":"Patient/52988c36-5e85-4818-9baa-983a3e27281a"},"onsetDateTime":"2023-12-14T08:00:00.000+00:00"},"request":{"method":"PUT","url":"Condition/61803c32-c87d-4d54-b1c6-4661056e70cb"}},{"fullUrl":"https://madie.cms.gov/Observation/estimated-glomerular-filtration-rate-b919","resource":{"resourceType":"Observation","id":"c6fdd573-0ebf-4679-8b5f-ac0dd9e54543","meta":{"profile":["http://hl7.org/fhir/us/qicore/StructureDefinition/qicore-observation"]},"status":"final","category":[{"coding":[{"system":"http://terminology.hl7.org/CodeSystem/observation-category","code":"laboratory","display":"laboratory","userSelected":true}]}],"code":{"coding":[{"system":"http://loinc.org","version":"2.71","code":"48642-3","display":"Glomerular filtration rate/1.73 sq M.predicted among non-blacks [Volume Rate/Area] in Serum, Plasma or Blood by Creatinine-based formula (MDRD)","userSelected":true}]},"subject":{"reference":"Patient/52988c36-5e85-4818-9baa-983a3e27281a"},"effectiveDateTime":"2025-03-16T08:00:00.000+00:00","valueBoolean":true},"request":{"method":"PUT","url":"Observation/c6fdd573-0ebf-4679-8b5f-ac0dd9e54543"}},{"fullUrl":"https://madie.cms.gov/Observation/urine-albumin-creatinine-ratio-b91a","resource":{"resourceType":"Observation","id":"6560a560-9d61-4c5d-9400-3807113f88e0","meta":{"profile":["http://hl7.org/fhir/us/qicore/StructureDefinition/qicore-observation"]},"status":"final","category":[{"coding":[{"system":"http://terminology.hl7.org/CodeSystem/observation-category","code":"laboratory","display":"laboratory","userSelected":true}]}],"code":{"coding":[{"system":"http://loinc.org","version":"2.71","code":"13705-9","display":"Albumin/Creatinine [Mass Ratio] in 24 hour Urine","userSelected":true}]},"subject":{"reference":"Patient/52988c36-5e85-4818-9baa-983a3e27281a"},"effectiveDateTime":"2025-03-16T08:00:00.000+00:00","issued":"2025-03-16T08:00:00.000+00:00","valueBoolean":true},"request":{"method":"PUT","url":"Observation/6560a560-9d61-4c5d-9400-3807113f88e0"}},{"fullUrl":"https://madie.cms.gov/Encounter/office-visit-b91c","resource":{"resourceType":"Encounter","id":"a40d9f5d-a8e1-4de3-83ac-47a2b95cf158","meta":{"profile":["http://hl7.org/fhir/us/qicore/StructureDefinition/qicore-encounter"]},"status":"finished","class":{"system":"http://terminology.hl7.org/CodeSystem/v3-ActCode","code":"AMB","display":"ambulatory","userSelected":true},"type":[{"coding":[{"system":"http://www.ama-assn.org/go/cpt","code":"99213"}]}],"subject":{"reference":"Patient/52988c36-5e85-4818-9baa-983a3e27281a"},"period":{"start":"2025-03-16T08:00:00.000+00:00","end":"2025-03-16T08:15:00.000+00:00"}},"request":{"method":"PUT","url":"Encounter/a40d9f5d-a8e1-4de3-83ac-47a2b95cf158"}},{"fullUrl":"https://madie.cms.gov/MeasureReport/1cdbe3d2-5940-457f-847a-62e05107690b","resource":{"resourceType":"MeasureReport","id":"1cdbe3d2-5940-457f-847a-62e05107690b","meta":{"profile":["http://hl7.org/fhir/us/cqfmeasures/StructureDefinition/test-case-cqfm"]},"contained":[{"resourceType":"Parameters","id":"aee22a37-c048-48b4-88aa-a8899737780a-parameters","parameter":[{"name":"subject","valueString":"52988c36-5e85-4818-9baa-983a3e27281a"}]}],"extension":[{"url":"http://hl7.org/fhir/us/cqfmeasures/StructureDefinition/cqfm-inputParameters","valueReference":{"reference":"#aee22a37-c048-48b4-88aa-a8899737780a-parameters"}},{"url":"http://hl7.org/fhir/us/cqfmeasures/StructureDefinition/cqfm-testCaseDescription","valueMarkdown":"This patient is 67 years old with a qualifying office visit encounter and active  diabetes, with both qualifying lab tests. This case tests the numerator criteria."}],"modifierExtension":[{"url":"http://hl7.org/fhir/us/cqfmeasures/StructureDefinition/cqfm-isTestCase","valueBoolean":true}],"status":"complete","type":"individual","measure":"https://madie.cms.gov/Measure/KidneyHealthEvaluationFHIR","period":{"start":"2025-01-01","end":"2025-12-31"},"group":[{"population":[{"code":{"coding":[{"system":"http://terminology.hl7.org/CodeSystem/measure-population","code":"initial-population","display":"Initial Population"}]},"count":1},{"code":{"coding":[{"system":"http://terminology.hl7.org/CodeSystem/measure-population","code":"denominator","display":"Denominator"}]},"count":1},{"code":{"coding":[{"system":"http://terminology.hl7.org/CodeSystem/measure-population","code":"denominator-exclusion","display":"Denominator Exclusion"}]},"count":0},{"code":{"coding":[{"system":"http://terminology.hl7.org/CodeSystem/measure-population","code":"numerator","display":"Numerator"}]},"count":1}]}]},"request":{"method":"PUT","url":"MeasureReport/1cdbe3d2-5940-457f-847a-62e05107690b"}}]}