{"resourceType":"Bundle","id":"tests-e4ad8ac6-e4c4-4e9f-acbb-4e345c8a84ad-bundle","type":"transaction","entry":[{"fullUrl":"https://madie.cms.gov/Patient/e4ad8ac6-e4c4-4e9f-acbb-4e345c8a84ad","resource":{"resourceType":"Patient","id":"e4ad8ac6-e4c4-4e9f-acbb-4e345c8a84ad","meta":{"profile":["http://hl7.org/fhir/us/qicore/StructureDefinition/qicore-patient"]},"extension":[{"url":"http://hl7.org/fhir/us/core/StructureDefinition/us-core-race","extension":[{"url":"ombCategory","valueCoding":{"system":"urn:oid:2.16.840.1.113883.6.238","code":"1002-5","display":"American Indian or Alaska Native","userSelected":true}},{"url":"text","valueString":"American Indian or Alaska Native"}]},{"url":"http://hl7.org/fhir/us/core/StructureDefinition/us-core-ethnicity","extension":[{"url":"ombCategory","valueCoding":{"system":"urn:oid:2.16.840.1.113883.6.238","code":"2186-5","display":"Not Hispanic or Latino","userSelected":true}},{"url":"text","valueString":"Not Hispanic or Latino"}]}],"identifier":[{"type":{"coding":[{"system":"http://terminology.hl7.org/CodeSystem/v2-0203","code":"MR"}]},"system":"https://bonnie-fhir.healthit.gov/","value":"641379da4b11b147841ab8ee"}],"name":[{"family":"DENOMFail","given":["PreventativeCareVisitAfterMP"]}],"gender":"female","birthDate":"2003-07-12"},"request":{"method":"PUT","url":"Patient/e4ad8ac6-e4c4-4e9f-acbb-4e345c8a84ad"}},{"fullUrl":"https://madie.cms.gov/Condition/diabetes-b8ef","resource":{"resourceType":"Condition","id":"fbdeb4ce-f46e-4f9d-accb-83556adccab6","meta":{"profile":["http://hl7.org/fhir/us/qicore/StructureDefinition/qicore-condition"]},"clinicalStatus":{"coding":[{"system":"http://terminology.hl7.org/CodeSystem/condition-clinical","code":"active","display":"active","userSelected":true}]},"category":[{"coding":[{"system":"http://terminology.hl7.org/CodeSystem/condition-category","code":"encounter-diagnosis","display":"Encounter Diagnosis","userSelected":true}]}],"code":{"coding":[{"system":"http://snomed.info/sct","version":"2021-09","code":"102781000119107","display":"Sensory neuropathy due to type 1 diabetes mellitus (disorder)","userSelected":true}]},"subject":{"reference":"Patient/e4ad8ac6-e4c4-4e9f-acbb-4e345c8a84ad"},"onsetDateTime":"2025-03-16T08:00:00.000+00:00"},"request":{"method":"PUT","url":"Condition/fbdeb4ce-f46e-4f9d-accb-83556adccab6"}},{"fullUrl":"https://madie.cms.gov/Encounter/preventive-care-services-established-office-visit-18-and-up-b8f0","resource":{"resourceType":"Encounter","id":"4dba1a9e-a313-45a8-834f-71a8157cf99c","meta":{"profile":["http://hl7.org/fhir/us/qicore/StructureDefinition/qicore-encounter"]},"status":"finished","class":{"system":"http://terminology.hl7.org/CodeSystem/v3-ActCode","code":"AMB","display":"ambulatory","userSelected":true},"type":[{"coding":[{"system":"http://www.ama-assn.org/go/cpt","version":"2021","code":"99395","display":"Periodic comprehensive preventive medicine reevaluation and management of an individual including an age and gender appropriate history, examination, counseling/anticipatory guidance/risk factor reduction interventions, and the ordering of laboratory/diagnostic procedures, established patient; 18-39 years","userSelected":true}]}],"subject":{"reference":"Patient/e4ad8ac6-e4c4-4e9f-acbb-4e345c8a84ad"},"period":{"start":"2026-01-04T08:00:00.000+00:00","end":"2026-01-04T08:15:00.000+00:00"}},"request":{"method":"PUT","url":"Encounter/4dba1a9e-a313-45a8-834f-71a8157cf99c"}},{"fullUrl":"https://madie.cms.gov/MeasureReport/0870af69-000b-4c61-bb63-b9e892e184b5","resource":{"resourceType":"MeasureReport","id":"0870af69-000b-4c61-bb63-b9e892e184b5","meta":{"profile":["http://hl7.org/fhir/us/cqfmeasures/StructureDefinition/test-case-cqfm"]},"contained":[{"resourceType":"Parameters","id":"223ffb7e-3779-41d8-9289-596a42268bae-parameters","parameter":[{"name":"subject","valueString":"e4ad8ac6-e4c4-4e9f-acbb-4e345c8a84ad"}]}],"extension":[{"url":"http://hl7.org/fhir/us/cqfmeasures/StructureDefinition/cqfm-inputParameters","valueReference":{"reference":"#223ffb7e-3779-41d8-9289-596a42268bae-parameters"}},{"url":"http://hl7.org/fhir/us/cqfmeasures/StructureDefinition/cqfm-testCaseDescription","valueMarkdown":"This patient is 20 years old, and with active diabetes diagnosis but no qualifying encounter. This case tests the encounter criteria of the Denom. "}],"modifierExtension":[{"url":"http://hl7.org/fhir/us/cqfmeasures/StructureDefinition/cqfm-isTestCase","valueBoolean":true}],"status":"complete","type":"individual","measure":"https://madie.cms.gov/Measure/KidneyHealthEvaluationFHIR","period":{"start":"2025-01-01","end":"2025-12-31"},"group":[{"population":[{"code":{"coding":[{"system":"http://terminology.hl7.org/CodeSystem/measure-population","code":"initial-population","display":"Initial Population"}]},"count":0},{"code":{"coding":[{"system":"http://terminology.hl7.org/CodeSystem/measure-population","code":"denominator","display":"Denominator"}]},"count":0},{"code":{"coding":[{"system":"http://terminology.hl7.org/CodeSystem/measure-population","code":"denominator-exclusion","display":"Denominator Exclusion"}]},"count":0},{"code":{"coding":[{"system":"http://terminology.hl7.org/CodeSystem/measure-population","code":"numerator","display":"Numerator"}]},"count":0}]}]},"request":{"method":"PUT","url":"MeasureReport/0870af69-000b-4c61-bb63-b9e892e184b5"}}]}