{"resourceType":"Bundle","id":"tests-7acbd566-b21e-46eb-a7ef-bfd023be8e9d-bundle","type":"transaction","entry":[{"fullUrl":"https://madie.cms.gov/Patient/7acbd566-b21e-46eb-a7ef-bfd023be8e9d","resource":{"resourceType":"Patient","id":"7acbd566-b21e-46eb-a7ef-bfd023be8e9d","meta":{"profile":["http://hl7.org/fhir/us/qicore/StructureDefinition/qicore-patient"]},"extension":[{"url":"http://hl7.org/fhir/us/core/StructureDefinition/us-core-race","extension":[{"url":"ombCategory","valueCoding":{"system":"urn:oid:2.16.840.1.113883.6.238","code":"1002-5","display":"American Indian or Alaska Native","userSelected":true}},{"url":"text","valueString":"American Indian or Alaska Native"}]},{"url":"http://hl7.org/fhir/us/core/StructureDefinition/us-core-ethnicity","extension":[{"url":"ombCategory","valueCoding":{"system":"urn:oid:2.16.840.1.113883.6.238","code":"2135-2","display":"Hispanic or Latino","userSelected":true}},{"url":"text","valueString":"Hispanic or Latino"}]}],"identifier":[{"type":{"coding":[{"system":"http://terminology.hl7.org/CodeSystem/v2-0203","code":"MR"}]},"system":"https://bonnie-fhir.healthit.gov/","value":"62bb3859e8081f5ef5e199f5"}],"name":[{"family":"IPPFail","given":["ADTActiveWithWrongADTCode"]}],"gender":"male","birthDate":"1961-07-19"},"request":{"method":"PUT","url":"Patient/7acbd566-b21e-46eb-a7ef-bfd023be8e9d"}},{"fullUrl":"https://madie.cms.gov/Encounter/464564","resource":{"resourceType":"Encounter","id":"be9fa881-7043-4699-8817-4116f1eba87e","meta":{"profile":["http://hl7.org/fhir/us/qicore/StructureDefinition/qicore-encounter"]},"status":"finished","class":{"system":"http://terminology.hl7.org/CodeSystem/v3-ActCode","code":"AMB","display":"ambulatory"},"type":[{"coding":[{"system":"http://snomed.info/sct","version":"http://snomed.info/sct/731000124108/version/20240401","code":"185463005","display":"Visit out of hours (procedure)","userSelected":true}]}],"subject":{"reference":"Patient/7acbd566-b21e-46eb-a7ef-bfd023be8e9d"},"period":{"start":"2025-05-03T08:00:00.000+00:00","end":"2025-05-03T08:15:00.000+00:00"}},"request":{"method":"PUT","url":"Encounter/be9fa881-7043-4699-8817-4116f1eba87e"}},{"fullUrl":"https://madie.cms.gov/Condition/16351465","resource":{"resourceType":"Condition","id":"cdf2c57e-f53b-4c5e-893a-d98277fd5955","meta":{"profile":["http://hl7.org/fhir/us/qicore/StructureDefinition/qicore-condition"]},"clinicalStatus":{"coding":[{"system":"http://terminology.hl7.org/CodeSystem/condition-clinical","code":"active","display":"Active","userSelected":true}]},"verificationStatus":{"coding":[{"system":"http://terminology.hl7.org/CodeSystem/condition-ver-status","code":"confirmed","display":"Confirmed","userSelected":true}]},"category":[{"coding":[{"system":"http://terminology.hl7.org/CodeSystem/condition-category","code":"problem-list-item","display":"Problem List Item"}]}],"code":{"coding":[{"system":"http://snomed.info/sct","version":"http://snomed.info/sct/731000124108/version/20240401","code":"254900004","display":"Carcinoma of prostate (disorder)","userSelected":true}]},"subject":{"reference":"Patient/7acbd566-b21e-46eb-a7ef-bfd023be8e9d"},"onsetPeriod":{"start":"2025-03-03T08:00:00.000+00:00"}},"request":{"method":"PUT","url":"Condition/cdf2c57e-f53b-4c5e-893a-d98277fd5955"}},{"fullUrl":"https://madie.cms.gov/MedicationRequest/98948641","resource":{"resourceType":"MedicationRequest","id":"d2289605-e2a9-4b57-b534-19d557fc0886","meta":{"profile":["http://hl7.org/fhir/us/qicore/StructureDefinition/qicore-medicationrequest"]},"status":"active","intent":"order","medicationCodeableConcept":{"coding":[{"system":"http://www.nlm.nih.gov/research/umls/rxnorm","version":"2025-01","code":"752886","display":"0.375 ML leuprolide acetate 120 MG/ML Prefilled Syringe","userSelected":true}]},"subject":{"reference":"Patient/7acbd566-b21e-46eb-a7ef-bfd023be8e9d"},"authoredOn":"2025-05-05T08:00:00.000+00:00","requester":{"reference":"http://myGoodHealthcare.com/fhir/Practitioner/646346"},"dosageInstruction":[{"timing":{"repeat":{"boundsPeriod":{"start":"2025-05-05T08:00:00.000+00:00"}}}}]},"request":{"method":"PUT","url":"MedicationRequest/d2289605-e2a9-4b57-b534-19d557fc0886"}},{"fullUrl":"https://madie.cms.gov/ServiceRequest/587458","resource":{"resourceType":"ServiceRequest","id":"89ff26ef-62b7-48bb-baf2-4f8650fc918c","meta":{"profile":["http://hl7.org/fhir/us/qicore/StructureDefinition/qicore-servicerequest"]},"status":"active","intent":"order","code":{"coding":[{"system":"http://snomed.info/sct","code":"456381000124102","display":"Injection of leuprolide acetate for twelve month period (regime/therapy)","userSelected":true}]},"subject":{"reference":"Patient/7acbd566-b21e-46eb-a7ef-bfd023be8e9d"},"authoredOn":"2025-05-05T08:00:00.000+00:00"},"request":{"method":"PUT","url":"ServiceRequest/89ff26ef-62b7-48bb-baf2-4f8650fc918c"}},{"fullUrl":"https://madie.cms.gov/MeasureReport/50185d8d-6d5f-4b5d-ac4b-978a7466bee7","resource":{"resourceType":"MeasureReport","id":"50185d8d-6d5f-4b5d-ac4b-978a7466bee7","meta":{"profile":["http://hl7.org/fhir/us/cqfmeasures/StructureDefinition/test-case-cqfm"]},"contained":[{"resourceType":"Parameters","id":"42681c09-c333-4c7d-8447-3d465450ab07-parameters","parameter":[{"name":"subject","valueString":"7acbd566-b21e-46eb-a7ef-bfd023be8e9d"}]}],"extension":[{"url":"http://hl7.org/fhir/us/cqfmeasures/StructureDefinition/cqfm-inputParameters","valueReference":{"reference":"#42681c09-c333-4c7d-8447-3d465450ab07-parameters"}},{"url":"http://hl7.org/fhir/us/cqfmeasures/StructureDefinition/cqfm-testCaseDescription","valueMarkdown":"Dx prostate cancer, ADT active but with wrong code, OV in MP and procedure order present.  Should fail IPP"}],"modifierExtension":[{"url":"http://hl7.org/fhir/us/cqfmeasures/StructureDefinition/cqfm-isTestCase","valueBoolean":true}],"status":"complete","type":"individual","measure":"https://madie.cms.gov/Measure/BoneDensityProstateCancerAndrogenDeprivationTherapyFHIR","period":{"start":"2025-01-01","end":"2025-12-31"},"group":[{"population":[{"code":{"coding":[{"system":"http://terminology.hl7.org/CodeSystem/measure-population","code":"initial-population","display":"Initial Population"}]},"count":0},{"code":{"coding":[{"system":"http://terminology.hl7.org/CodeSystem/measure-population","code":"denominator","display":"Denominator"}]},"count":0},{"code":{"coding":[{"system":"http://terminology.hl7.org/CodeSystem/measure-population","code":"numerator","display":"Numerator"}]},"count":0},{"code":{"coding":[{"system":"http://terminology.hl7.org/CodeSystem/measure-population","code":"denominator-exception","display":"Denominator Exception"}]},"count":0}]}]},"request":{"method":"PUT","url":"MeasureReport/50185d8d-6d5f-4b5d-ac4b-978a7466bee7"}}]}