{"resourceType":"Bundle","id":"tests-5e4e034a-475f-476a-a8f7-cb0d361508ab-bundle","type":"transaction","entry":[{"fullUrl":"https://madie.cms.gov/Patient/5e4e034a-475f-476a-a8f7-cb0d361508ab","resource":{"resourceType":"Patient","id":"5e4e034a-475f-476a-a8f7-cb0d361508ab","meta":{"profile":["http://hl7.org/fhir/us/qicore/StructureDefinition/qicore-patient"]},"extension":[{"url":"http://hl7.org/fhir/us/core/StructureDefinition/us-core-race","extension":[{"url":"ombCategory","valueCoding":{"system":"urn:oid:2.16.840.1.113883.6.238","code":"2076-8","display":"Native Hawaiian or Other Pacific Islander"}},{"url":"text","valueString":"Other Race"}]},{"url":"http://hl7.org/fhir/us/core/StructureDefinition/us-core-ethnicity","extension":[{"url":"ombCategory","valueCoding":{"system":"urn:oid:2.16.840.1.113883.6.238","code":"2135-2","display":"Hispanic or Latino","userSelected":true}},{"url":"text","valueString":"Hispanic or Latino"}]}],"identifier":[{"type":{"coding":[{"system":"http://terminology.hl7.org/CodeSystem/v2-0203","code":"MR"}]},"system":"https://bonnie-fhir.healthit.gov/","value":"60abce8bcd7f9706e4189cfd"}],"name":[{"family":"DENOMPass","given":["ADTActiveAfterCancerDx"]}],"gender":"male","birthDate":"1949-07-09"},"request":{"method":"PUT","url":"Patient/5e4e034a-475f-476a-a8f7-cb0d361508ab"}},{"fullUrl":"https://madie.cms.gov/Encounter/zd6313d21312","resource":{"resourceType":"Encounter","id":"7ecb56b7-b02c-4349-8788-8bb9962d6592","meta":{"profile":["http://hl7.org/fhir/us/qicore/StructureDefinition/qicore-encounter"]},"status":"finished","class":{"system":"http://terminology.hl7.org/CodeSystem/v3-ActCode","code":"AMB","display":"ambulatory"},"type":[{"coding":[{"system":"http://snomed.info/sct","version":"http://snomed.info/sct/731000124108/version/20240401","code":"185463005","display":"Visit out of hours (procedure)"}]}],"subject":{"reference":"Patient/5e4e034a-475f-476a-a8f7-cb0d361508ab"},"period":{"start":"2025-02-03T08:00:00+00:00","end":"2025-02-03T08:45:00+00:00"}},"request":{"method":"PUT","url":"Encounter/7ecb56b7-b02c-4349-8788-8bb9962d6592"}},{"fullUrl":"https://madie.cms.gov/Condition/321321215","resource":{"resourceType":"Condition","id":"c8dd1aa3-ff35-4904-8cb7-0c456a8b6ef2","meta":{"profile":["http://hl7.org/fhir/us/qicore/StructureDefinition/qicore-condition"]},"clinicalStatus":{"coding":[{"system":"http://terminology.hl7.org/CodeSystem/condition-clinical","code":"active"}]},"verificationStatus":{"coding":[{"system":"http://terminology.hl7.org/CodeSystem/condition-ver-status","code":"confirmed"}]},"category":[{"coding":[{"system":"http://terminology.hl7.org/CodeSystem/condition-category","code":"problem-list-item","display":"Problem List Item"}]}],"code":{"coding":[{"system":"http://snomed.info/sct","version":"http://snomed.info/sct/731000124108/version/20240401","code":"254900004","display":"Carcinoma of prostate (disorder)"}]},"subject":{"reference":"Patient/5e4e034a-475f-476a-a8f7-cb0d361508ab"},"onsetPeriod":{"start":"2025-01-03T08:00:00.000+00:00"}},"request":{"method":"PUT","url":"Condition/c8dd1aa3-ff35-4904-8cb7-0c456a8b6ef2"}},{"fullUrl":"https://madie.cms.gov/MedicationRequest/54112321","resource":{"resourceType":"MedicationRequest","id":"e31e9ea3-aba7-464f-a664-21e6e0e07333","meta":{"profile":["http://hl7.org/fhir/us/qicore/StructureDefinition/qicore-medicationrequest"]},"status":"active","intent":"order","doNotPerform":false,"medicationCodeableConcept":{"coding":[{"system":"http://www.nlm.nih.gov/research/umls/rxnorm","version":"2025-01","code":"314008","display":"goserelin 10.8 MG Drug Implant"}]},"subject":{"reference":"Patient/5e4e034a-475f-476a-a8f7-cb0d361508ab"},"authoredOn":"2025-02-01T08:00:00.000+00:00","requester":{"reference":"http://myGoodHealthcare.com/fhir/Practitioner/646346"},"dosageInstruction":[{"timing":{"repeat":{"boundsPeriod":{"start":"2025-02-03T08:00:00.000+00:00","end":"2025-03-03T09:00:00.000+00:00"}}}}]},"request":{"method":"PUT","url":"MedicationRequest/e31e9ea3-aba7-464f-a664-21e6e0e07333"}},{"fullUrl":"https://madie.cms.gov/Practitioner/646346","resource":{"resourceType":"Practitioner","id":"a832c9bc-45d2-43e9-8f09-2da485e0bfaa","meta":{"profile":["http://hl7.org/fhir/us/qicore/StructureDefinition/qicore-practitioner"]},"identifier":[{"use":"temp","system":"urn:oid:2.16.840.1.113883.4.336","value":"Practitioner-23"}],"active":true,"name":[{"family":"Careful","given":["Adam"],"prefix":["Dr"]}],"address":[{"use":"home","line":["534 Erewhon St"],"city":"PleasantVille","state":"UT","postalCode":"84414"}],"qualification":[{"identifier":[{"system":"http://example.org/UniversityIdentifier","value":"12345"}],"code":{"coding":[{"system":"http://terminology.hl7.org/CodeSystem/v2-0360|2.7","code":"BS","display":"Bachelor of Science"}],"text":"Bachelor of Science"},"period":{"start":"1995"},"issuer":{"display":"Example University"}}]},"request":{"method":"PUT","url":"Practitioner/a832c9bc-45d2-43e9-8f09-2da485e0bfaa"}},{"fullUrl":"https://madie.cms.gov/ServiceRequest/3213214575","resource":{"resourceType":"ServiceRequest","id":"73e8f658-484a-4a25-8394-daa04032f5b9","meta":{"profile":["http://hl7.org/fhir/us/qicore/StructureDefinition/qicore-servicerequest"]},"status":"active","intent":"order","code":{"coding":[{"system":"http://snomed.info/sct","code":"456381000124102","display":"Injection of leuprolide acetate for twelve month period (regime/therapy)"}]},"subject":{"reference":"Patient/5e4e034a-475f-476a-a8f7-cb0d361508ab"},"authoredOn":"2025-02-03T08:00:00.000+00:00"},"request":{"method":"PUT","url":"ServiceRequest/73e8f658-484a-4a25-8394-daa04032f5b9"}},{"fullUrl":"https://madie.cms.gov/MeasureReport/b1a408e2-2956-4c95-b982-a2137a7b7aef","resource":{"resourceType":"MeasureReport","id":"b1a408e2-2956-4c95-b982-a2137a7b7aef","meta":{"profile":["http://hl7.org/fhir/us/cqfmeasures/StructureDefinition/test-case-cqfm"]},"contained":[{"resourceType":"Parameters","id":"7c2210c4-6671-41f4-a76b-adc433461333-parameters","parameter":[{"name":"subject","valueString":"5e4e034a-475f-476a-a8f7-cb0d361508ab"}]}],"extension":[{"url":"http://hl7.org/fhir/us/cqfmeasures/StructureDefinition/cqfm-inputParameters","valueReference":{"reference":"#7c2210c4-6671-41f4-a76b-adc433461333-parameters"}},{"url":"http://hl7.org/fhir/us/cqfmeasures/StructureDefinition/cqfm-testCaseDescription","valueMarkdown":"Dx of Prostate Cancer, and Androgen deprivation therapy for Urology Care is not null. Passes IPP and Denom with no end date of diagnosis which is usual for Prostate Cancer not ending-clinically relevant."}],"modifierExtension":[{"url":"http://hl7.org/fhir/us/cqfmeasures/StructureDefinition/cqfm-isTestCase","valueBoolean":true}],"status":"complete","type":"individual","measure":"https://madie.cms.gov/Measure/BoneDensityProstateCancerAndrogenDeprivationTherapyFHIR","period":{"start":"2025-01-01","end":"2025-12-31"},"group":[{"population":[{"code":{"coding":[{"system":"http://terminology.hl7.org/CodeSystem/measure-population","code":"initial-population","display":"Initial Population"}]},"count":1},{"code":{"coding":[{"system":"http://terminology.hl7.org/CodeSystem/measure-population","code":"denominator","display":"Denominator"}]},"count":1},{"code":{"coding":[{"system":"http://terminology.hl7.org/CodeSystem/measure-population","code":"numerator","display":"Numerator"}]},"count":0},{"code":{"coding":[{"system":"http://terminology.hl7.org/CodeSystem/measure-population","code":"denominator-exception","display":"Denominator Exception"}]},"count":0}]}]},"request":{"method":"PUT","url":"MeasureReport/b1a408e2-2956-4c95-b982-a2137a7b7aef"}}]}