{"resourceType":"Bundle","id":"tests-9eb59f31-41dc-401b-9057-b8c8361f116c-bundle","type":"transaction","entry":[{"fullUrl":"https://madie.cms.gov/Patient/9eb59f31-41dc-401b-9057-b8c8361f116c","resource":{"resourceType":"Patient","id":"9eb59f31-41dc-401b-9057-b8c8361f116c","meta":{"profile":["http://hl7.org/fhir/us/qicore/StructureDefinition/qicore-patient"]},"extension":[{"url":"http://hl7.org/fhir/us/core/StructureDefinition/us-core-race","extension":[{"url":"ombCategory","valueCoding":{"system":"urn:oid:2.16.840.1.113883.6.238","code":"2054-5","display":"Black or African American"}},{"url":"text","valueString":"Black or African American"}]},{"url":"http://hl7.org/fhir/us/core/StructureDefinition/us-core-ethnicity","extension":[{"url":"ombCategory","valueCoding":{"system":"urn:oid:2.16.840.1.113883.6.238","code":"2186-5","display":"Not Hispanic or Latino"}},{"url":"text","valueString":"Not Hispanic or Latino"}]}],"identifier":[{"type":{"coding":[{"system":"http://terminology.hl7.org/CodeSystem/v2-0203","code":"MR"}]},"system":"https://bonnie-fhir.healthit.gov/","value":"463131313187656"}],"name":[{"family":"NUMERPass","given":["DEXA89DaysAfterADTEdge"]}],"gender":"male","birthDate":"1953-06-15"},"request":{"method":"PUT","url":"Patient/9eb59f31-41dc-401b-9057-b8c8361f116c"}},{"fullUrl":"https://madie.cms.gov/Encounter/98965313","resource":{"resourceType":"Encounter","id":"252ed870-43a0-45f4-9e1a-752894bc7c8d","meta":{"profile":["http://hl7.org/fhir/us/qicore/StructureDefinition/qicore-encounter"]},"status":"finished","class":{"system":"http://terminology.hl7.org/CodeSystem/v3-ActCode","code":"AMB","display":"ambulatory"},"type":[{"coding":[{"system":"http://snomed.info/sct","version":"http://snomed.info/sct/731000124108/version/20240301","code":"185463005","display":"Visit out of hours (procedure)"}]}],"subject":{"reference":"Patient/9eb59f31-41dc-401b-9057-b8c8361f116c"},"period":{"start":"2025-02-04T08:00:00.000+00:00","end":"2025-02-04T08:15:00.000+00:00"}},"request":{"method":"PUT","url":"Encounter/252ed870-43a0-45f4-9e1a-752894bc7c8d"}},{"fullUrl":"https://madie.cms.gov/Condition/35463463113","resource":{"resourceType":"Condition","id":"ca479b33-fd91-422b-b590-d4a833e250bd","meta":{"profile":["http://hl7.org/fhir/us/qicore/StructureDefinition/qicore-condition"]},"clinicalStatus":{"coding":[{"system":"http://terminology.hl7.org/CodeSystem/condition-clinical","code":"active","display":"Active","userSelected":true}]},"verificationStatus":{"coding":[{"system":"http://terminology.hl7.org/CodeSystem/condition-ver-status","code":"confirmed"}]},"category":[{"coding":[{"system":"http://terminology.hl7.org/CodeSystem/condition-category","code":"problem-list-item","display":"Problem List Item"}]}],"code":{"coding":[{"system":"http://snomed.info/sct","version":"http://snomed.info/sct/731000124108/version/20240301","code":"254900004","display":"Carcinoma of prostate (disorder)"}]},"subject":{"reference":"Patient/9eb59f31-41dc-401b-9057-b8c8361f116c"},"onsetPeriod":{"start":"2025-02-04T08:00:00.000+00:00"}},"request":{"method":"PUT","url":"Condition/ca479b33-fd91-422b-b590-d4a833e250bd"}},{"fullUrl":"https://madie.cms.gov/Observation/1313113","resource":{"resourceType":"Observation","id":"19a3157b-ecaa-4657-ba13-a245aa6192e1","meta":{"profile":["http://hl7.org/fhir/us/qicore/StructureDefinition/qicore-observation"]},"status":"final","category":[{"coding":[{"system":"http://terminology.hl7.org/CodeSystem/observation-category","code":"imaging","display":"Imaging"}]}],"code":{"coding":[{"system":"http://loinc.org","version":"2.76","code":"38265-5","display":"DXA Radius and Ulna [T-score] Bone density"}]},"subject":{"reference":"Patient/9eb59f31-41dc-401b-9057-b8c8361f116c"},"effectivePeriod":{"start":"2025-05-04T10:00:00.000+00:00"}},"request":{"method":"PUT","url":"Observation/19a3157b-ecaa-4657-ba13-a245aa6192e1"}},{"fullUrl":"https://madie.cms.gov/Practitioner/646346","resource":{"resourceType":"Practitioner","id":"7c5583fb-cac1-4766-8d3a-7a0412eeafc6","meta":{"profile":["http://hl7.org/fhir/us/qicore/StructureDefinition/qicore-practitioner"]},"identifier":[{"use":"temp","system":"urn:oid:2.16.840.1.113883.4.336","value":"Practitioner-23"}],"active":true,"name":[{"family":"Careful","given":["Adam"],"prefix":["Dr"]}],"address":[{"use":"home","line":["534 Erewhon St"],"city":"PleasantVille","state":"UT","postalCode":"84414"}],"qualification":[{"identifier":[{"system":"http://example.org/UniversityIdentifier","value":"12345"}],"code":{"coding":[{"system":"http://terminology.hl7.org/CodeSystem/v2-0360|2.7","code":"BS","display":"Bachelor of Science"}],"text":"Bachelor of Science"},"period":{"start":"1995"},"issuer":{"display":"Example University"}}]},"request":{"method":"PUT","url":"Practitioner/7c5583fb-cac1-4766-8d3a-7a0412eeafc6"}},{"fullUrl":"https://madie.cms.gov/MedicationRequest/64564646","resource":{"resourceType":"MedicationRequest","id":"c32989a6-3ad8-4d02-af2e-02c7279856c1","meta":{"profile":["http://hl7.org/fhir/us/qicore/StructureDefinition/qicore-medicationrequest"]},"status":"active","intent":"order","medicationCodeableConcept":{"coding":[{"system":"http://www.nlm.nih.gov/research/umls/rxnorm","version":"04012024","code":"1115257","display":"1.5 ML leuprolide acetate 30 MG/ML Prefilled Syringe"}]},"subject":{"reference":"Patient/9eb59f31-41dc-401b-9057-b8c8361f116c"},"authoredOn":"2025-02-04T08:00:00.000+00:00","requester":{"reference":"http://myGoodHealthcare.com/fhir/Practitioner/646346"},"dosageInstruction":[{"timing":{"repeat":{"boundsPeriod":{"start":"2025-02-04T08:00:00.000+00:00","end":"2025-03-04T08:00:00.000+00:00"}}}}]},"request":{"method":"PUT","url":"MedicationRequest/c32989a6-3ad8-4d02-af2e-02c7279856c1"}},{"fullUrl":"https://madie.cms.gov/ServiceRequest/764645645","resource":{"resourceType":"ServiceRequest","id":"419c3292-01a6-4e8c-b131-f87825bf3a78","meta":{"profile":["http://hl7.org/fhir/us/qicore/StructureDefinition/qicore-servicerequest"]},"status":"active","intent":"order","code":{"coding":[{"system":"http://snomed.info/sct","version":"http://snomed.info/sct/731000124108/version/20240301","code":"456381000124102","display":"Injection of leuprolide acetate for twelve month period (regime/therapy)"}]},"subject":{"reference":"Patient/9eb59f31-41dc-401b-9057-b8c8361f116c"},"authoredOn":"2025-02-04T08:00:00.000+00:00"},"request":{"method":"PUT","url":"ServiceRequest/419c3292-01a6-4e8c-b131-f87825bf3a78"}},{"fullUrl":"https://madie.cms.gov/MeasureReport/52da1979-c1c4-464c-92ae-dc50639f7973","resource":{"resourceType":"MeasureReport","id":"52da1979-c1c4-464c-92ae-dc50639f7973","meta":{"profile":["http://hl7.org/fhir/us/cqfmeasures/StructureDefinition/test-case-cqfm"]},"contained":[{"resourceType":"Parameters","id":"79d7a2c0-b5f4-40cd-afad-dd8906f02c4e-parameters","parameter":[{"name":"subject","valueString":"9eb59f31-41dc-401b-9057-b8c8361f116c"}]}],"extension":[{"url":"http://hl7.org/fhir/us/cqfmeasures/StructureDefinition/cqfm-inputParameters","valueReference":{"reference":"#79d7a2c0-b5f4-40cd-afad-dd8906f02c4e-parameters"}},{"url":"http://hl7.org/fhir/us/cqfmeasures/StructureDefinition/cqfm-testCaseDescription","valueMarkdown":"Dx of Prostate Cancer with qualifying encounter(s) in MP.  DEXA 89 days after ADT started to test timing.  Passes NUMER criteria.  "}],"modifierExtension":[{"url":"http://hl7.org/fhir/us/cqfmeasures/StructureDefinition/cqfm-isTestCase","valueBoolean":true}],"status":"complete","type":"individual","measure":"https://madie.cms.gov/Measure/BoneDensityProstateCancerAndrogenDeprivationTherapyFHIR","period":{"start":"2025-01-01","end":"2025-12-31"},"group":[{"population":[{"code":{"coding":[{"system":"http://terminology.hl7.org/CodeSystem/measure-population","code":"initial-population","display":"Initial Population"}]},"count":1},{"code":{"coding":[{"system":"http://terminology.hl7.org/CodeSystem/measure-population","code":"denominator","display":"Denominator"}]},"count":1},{"code":{"coding":[{"system":"http://terminology.hl7.org/CodeSystem/measure-population","code":"numerator","display":"Numerator"}]},"count":1},{"code":{"coding":[{"system":"http://terminology.hl7.org/CodeSystem/measure-population","code":"denominator-exception","display":"Denominator Exception"}]},"count":0}]}]},"request":{"method":"PUT","url":"MeasureReport/52da1979-c1c4-464c-92ae-dc50639f7973"}}]}