{"resourceType":"Bundle","id":"tests-2585c4a2-7b38-48e4-9317-19ddbbcfa107-bundle","type":"transaction","entry":[{"fullUrl":"https://madie.cms.gov/Patient/2585c4a2-7b38-48e4-9317-19ddbbcfa107","resource":{"resourceType":"Patient","id":"2585c4a2-7b38-48e4-9317-19ddbbcfa107","meta":{"profile":["http://hl7.org/fhir/us/qicore/StructureDefinition/qicore-patient"]},"extension":[{"url":"http://hl7.org/fhir/us/core/StructureDefinition/us-core-race","extension":[{"url":"ombCategory","valueCoding":{"system":"urn:oid:2.16.840.1.113883.6.238","code":"2054-5","display":"Black or African American"}},{"url":"text","valueString":"Black or African American"}]},{"url":"http://hl7.org/fhir/us/core/StructureDefinition/us-core-ethnicity","extension":[{"url":"ombCategory","valueCoding":{"system":"urn:oid:2.16.840.1.113883.6.238","code":"2186-5","display":"Not Hispanic or Latino"}},{"url":"text","valueString":"Not Hispanic or Latino"}]}],"identifier":[{"type":{"coding":[{"system":"http://terminology.hl7.org/CodeSystem/v2-0203","code":"MR"}]},"system":"https://bonnie-fhir.healthit.gov/","value":"463131313187656"}],"name":[{"family":"NUMERPass","given":["ADTandDEXA9MonthsAfterStartofMPEdge"]}],"gender":"male","birthDate":"1949-06-15"},"request":{"method":"PUT","url":"Patient/2585c4a2-7b38-48e4-9317-19ddbbcfa107"}},{"fullUrl":"https://madie.cms.gov/Encounter/98965313","resource":{"resourceType":"Encounter","id":"9b498d2c-8e87-4171-a8b2-5ea8d6001aae","meta":{"profile":["http://hl7.org/fhir/us/qicore/StructureDefinition/qicore-encounter"]},"status":"finished","class":{"system":"http://terminology.hl7.org/CodeSystem/v3-ActCode","code":"AMB","display":"ambulatory"},"type":[{"coding":[{"system":"http://snomed.info/sct","version":"http://snomed.info/sct/731000124108/version/20240301","code":"185463005","display":"Visit out of hours (procedure)"}]}],"subject":{"reference":"Patient/2585c4a2-7b38-48e4-9317-19ddbbcfa107"},"period":{"start":"2025-09-01T08:00:00.000+00:00","end":"2025-09-01T08:15:00.000+00:00"}},"request":{"method":"PUT","url":"Encounter/9b498d2c-8e87-4171-a8b2-5ea8d6001aae"}},{"fullUrl":"https://madie.cms.gov/Condition/35463463113","resource":{"resourceType":"Condition","id":"46ddfe08-bca6-447d-a187-f8481f825a5a","meta":{"profile":["http://hl7.org/fhir/us/qicore/StructureDefinition/qicore-condition"]},"clinicalStatus":{"coding":[{"system":"http://terminology.hl7.org/CodeSystem/condition-clinical","code":"active","display":"Active","userSelected":true}]},"verificationStatus":{"coding":[{"system":"http://terminology.hl7.org/CodeSystem/condition-ver-status","code":"confirmed"}]},"category":[{"coding":[{"system":"http://terminology.hl7.org/CodeSystem/condition-category","code":"problem-list-item","display":"Problem List Item"}]}],"code":{"coding":[{"system":"http://snomed.info/sct","version":"http://snomed.info/sct/731000124108/version/20240301","code":"254900004","display":"Carcinoma of prostate (disorder)"}]},"subject":{"reference":"Patient/2585c4a2-7b38-48e4-9317-19ddbbcfa107"},"onsetPeriod":{"start":"2025-09-01T08:00:00.000+00:00"}},"request":{"method":"PUT","url":"Condition/46ddfe08-bca6-447d-a187-f8481f825a5a"}},{"fullUrl":"https://madie.cms.gov/Observation/1313113","resource":{"resourceType":"Observation","id":"f139f9ff-33a0-4a3e-8053-c9e8a7066081","meta":{"profile":["http://hl7.org/fhir/us/qicore/StructureDefinition/qicore-observation"]},"status":"final","category":[{"coding":[{"system":"http://terminology.hl7.org/CodeSystem/observation-category","code":"imaging","display":"Imaging"}]}],"code":{"coding":[{"system":"http://loinc.org","version":"2.76","code":"38265-5","display":"DXA Radius and Ulna [T-score] Bone density"}]},"subject":{"reference":"Patient/2585c4a2-7b38-48e4-9317-19ddbbcfa107"},"effectivePeriod":{"start":"2025-09-01T10:00:00.000+00:00"}},"request":{"method":"PUT","url":"Observation/f139f9ff-33a0-4a3e-8053-c9e8a7066081"}},{"fullUrl":"https://madie.cms.gov/Practitioner/646346","resource":{"resourceType":"Practitioner","id":"c60f2912-e168-4a10-9755-12ce4e1292ac","meta":{"profile":["http://hl7.org/fhir/us/qicore/StructureDefinition/qicore-practitioner"]},"identifier":[{"use":"temp","system":"urn:oid:2.16.840.1.113883.4.336","value":"Practitioner-23"}],"active":true,"name":[{"family":"Careful","given":["Adam"],"prefix":["Dr"]}],"address":[{"use":"home","line":["534 Erewhon St"],"city":"PleasantVille","state":"UT","postalCode":"84414"}],"qualification":[{"identifier":[{"system":"http://example.org/UniversityIdentifier","value":"12345"}],"code":{"coding":[{"system":"http://terminology.hl7.org/CodeSystem/v2-0360|2.7","code":"BS","display":"Bachelor of Science"}],"text":"Bachelor of Science"},"period":{"start":"1995"},"issuer":{"display":"Example University"}}]},"request":{"method":"PUT","url":"Practitioner/c60f2912-e168-4a10-9755-12ce4e1292ac"}},{"fullUrl":"https://madie.cms.gov/MedicationRequest/64564646","resource":{"resourceType":"MedicationRequest","id":"106e251a-1a72-465b-a335-7582b5724aea","meta":{"profile":["http://hl7.org/fhir/us/qicore/StructureDefinition/qicore-medicationrequest"]},"status":"active","intent":"order","medicationCodeableConcept":{"coding":[{"system":"http://www.nlm.nih.gov/research/umls/rxnorm","version":"04012024","code":"1115257","display":"1.5 ML leuprolide acetate 30 MG/ML Prefilled Syringe"}]},"subject":{"reference":"Patient/2585c4a2-7b38-48e4-9317-19ddbbcfa107"},"authoredOn":"2025-09-01T08:00:00.000+00:00","requester":{"reference":"http://myGoodHealthcare.com/fhir/Practitioner/646346"},"dosageInstruction":[{"timing":{"repeat":{"boundsPeriod":{"start":"2025-09-01T08:00:00.000+00:00","end":"2025-10-01T08:00:00.000+00:00"}}}}]},"request":{"method":"PUT","url":"MedicationRequest/106e251a-1a72-465b-a335-7582b5724aea"}},{"fullUrl":"https://madie.cms.gov/ServiceRequest/764645645","resource":{"resourceType":"ServiceRequest","id":"12acaf0e-d0fb-4a1a-9329-12cb1fffac9a","meta":{"profile":["http://hl7.org/fhir/us/qicore/StructureDefinition/qicore-servicerequest"]},"status":"active","intent":"order","code":{"coding":[{"system":"http://snomed.info/sct","version":"http://snomed.info/sct/731000124108/version/20240301","code":"456381000124102","display":"Injection of leuprolide acetate for twelve month period (regime/therapy)"}]},"subject":{"reference":"Patient/2585c4a2-7b38-48e4-9317-19ddbbcfa107"},"authoredOn":"2025-09-01T08:00:00.000+00:00"},"request":{"method":"PUT","url":"ServiceRequest/12acaf0e-d0fb-4a1a-9329-12cb1fffac9a"}},{"fullUrl":"https://madie.cms.gov/MeasureReport/e641c475-2c9e-4a4b-bf73-1f318c56cdbf","resource":{"resourceType":"MeasureReport","id":"e641c475-2c9e-4a4b-bf73-1f318c56cdbf","meta":{"profile":["http://hl7.org/fhir/us/cqfmeasures/StructureDefinition/test-case-cqfm"]},"contained":[{"resourceType":"Parameters","id":"6530d53c-5f67-4b6d-beda-7ad563b40f7a-parameters","parameter":[{"name":"subject","valueString":"2585c4a2-7b38-48e4-9317-19ddbbcfa107"}]}],"extension":[{"url":"http://hl7.org/fhir/us/cqfmeasures/StructureDefinition/cqfm-inputParameters","valueReference":{"reference":"#6530d53c-5f67-4b6d-beda-7ad563b40f7a-parameters"}},{"url":"http://hl7.org/fhir/us/cqfmeasures/StructureDefinition/cqfm-testCaseDescription","valueMarkdown":"Dx of Prostate Cancer with qualifying encounter. ADT and DEXA 9months after start of measurement period.  Passes NUMER criteria."}],"modifierExtension":[{"url":"http://hl7.org/fhir/us/cqfmeasures/StructureDefinition/cqfm-isTestCase","valueBoolean":true}],"status":"complete","type":"individual","measure":"https://madie.cms.gov/Measure/BoneDensityProstateCancerAndrogenDeprivationTherapyFHIR","period":{"start":"2025-01-01","end":"2025-12-31"},"group":[{"population":[{"code":{"coding":[{"system":"http://terminology.hl7.org/CodeSystem/measure-population","code":"initial-population","display":"Initial Population"}]},"count":1},{"code":{"coding":[{"system":"http://terminology.hl7.org/CodeSystem/measure-population","code":"denominator","display":"Denominator"}]},"count":1},{"code":{"coding":[{"system":"http://terminology.hl7.org/CodeSystem/measure-population","code":"numerator","display":"Numerator"}]},"count":1},{"code":{"coding":[{"system":"http://terminology.hl7.org/CodeSystem/measure-population","code":"denominator-exception","display":"Denominator Exception"}]},"count":0}]}]},"request":{"method":"PUT","url":"MeasureReport/e641c475-2c9e-4a4b-bf73-1f318c56cdbf"}}]}