{"resourceType":"Bundle","id":"tests-6aa2d002-1279-4313-85c3-a4a28e17da81-bundle","type":"transaction","entry":[{"fullUrl":"https://madie.cms.gov/Patient/6aa2d002-1279-4313-85c3-a4a28e17da81","resource":{"resourceType":"Patient","id":"6aa2d002-1279-4313-85c3-a4a28e17da81","meta":{"profile":["http://hl7.org/fhir/us/qicore/StructureDefinition/qicore-patient"]},"extension":[{"url":"http://hl7.org/fhir/us/core/StructureDefinition/us-core-race","extension":[{"url":"ombCategory","valueCoding":{"system":"urn:oid:2.16.840.1.113883.6.238","code":"1002-5","display":"American Indian or Alaska Native","userSelected":true}},{"url":"text","valueString":"American Indian or Alaska Native"}]},{"url":"http://hl7.org/fhir/us/core/StructureDefinition/us-core-ethnicity","extension":[{"url":"ombCategory","valueCoding":{"system":"urn:oid:2.16.840.1.113883.6.238","code":"2135-2","display":"Hispanic or Latino","userSelected":true}},{"url":"text","valueString":"Hispanic or Latino"}]}],"identifier":[{"type":{"coding":[{"system":"http://terminology.hl7.org/CodeSystem/v2-0203","code":"MR"}]},"system":"https://bonnie-fhir.healthit.gov/","value":"62bb3859e8081f5ef5e199f5"}],"name":[{"family":"IPPFail","given":["ADTWithoutPCa"]}],"gender":"male","birthDate":"1961-07-19"},"request":{"method":"PUT","url":"Patient/6aa2d002-1279-4313-85c3-a4a28e17da81"}},{"fullUrl":"https://madie.cms.gov/Encounter/464564","resource":{"resourceType":"Encounter","id":"be7b7e12-e250-4eb1-9b03-d54c37c7021b","meta":{"profile":["http://hl7.org/fhir/us/qicore/StructureDefinition/qicore-encounter"]},"status":"finished","class":{"system":"http://terminology.hl7.org/CodeSystem/v3-ActCode","code":"AMB","display":"ambulatory"},"type":[{"coding":[{"system":"http://snomed.info/sct","version":"http://snomed.info/sct/731000124108/version/20240401","code":"185463005","display":"Visit out of hours (procedure)","userSelected":true}]}],"subject":{"reference":"Patient/6aa2d002-1279-4313-85c3-a4a28e17da81"},"period":{"start":"2025-05-03T08:00:00.000+00:00","end":"2025-05-03T08:15:00.000+00:00"}},"request":{"method":"PUT","url":"Encounter/be7b7e12-e250-4eb1-9b03-d54c37c7021b"}},{"fullUrl":"https://madie.cms.gov/MedicationRequest/98948641","resource":{"resourceType":"MedicationRequest","id":"86a24364-07b4-4558-be0c-c7b78c989c60","meta":{"profile":["http://hl7.org/fhir/us/qicore/StructureDefinition/qicore-medicationrequest"]},"status":"active","intent":"order","medicationCodeableConcept":{"coding":[{"system":"http://www.nlm.nih.gov/research/umls/rxnorm","version":"2025-01","code":"752886","display":"0.375 ML leuprolide acetate 120 MG/ML Prefilled Syringe","userSelected":true}]},"subject":{"reference":"Patient/6aa2d002-1279-4313-85c3-a4a28e17da81"},"authoredOn":"2024-05-02T08:00:00.000+00:00","dosageInstruction":[{"timing":{"repeat":{"boundsPeriod":{"start":"2024-05-03T08:00:00.000+00:00"}}}}]},"request":{"method":"PUT","url":"MedicationRequest/86a24364-07b4-4558-be0c-c7b78c989c60"}},{"fullUrl":"https://madie.cms.gov/ServiceRequest/587458","resource":{"resourceType":"ServiceRequest","id":"3b056671-3c6f-4c24-a75e-e82b7248e344","meta":{"profile":["http://hl7.org/fhir/us/qicore/StructureDefinition/qicore-servicerequest"]},"status":"active","intent":"order","code":{"coding":[{"system":"http://snomed.info/sct","code":"456381000124102","display":"Injection of leuprolide acetate for twelve month period (regime/therapy)","userSelected":true}]},"subject":{"reference":"Patient/6aa2d002-1279-4313-85c3-a4a28e17da81"},"authoredOn":"2024-05-03T08:00:00.000+00:00"},"request":{"method":"PUT","url":"ServiceRequest/3b056671-3c6f-4c24-a75e-e82b7248e344"}},{"fullUrl":"https://madie.cms.gov/MeasureReport/cba49590-299c-468b-a076-105299ea609f","resource":{"resourceType":"MeasureReport","id":"cba49590-299c-468b-a076-105299ea609f","meta":{"profile":["http://hl7.org/fhir/us/cqfmeasures/StructureDefinition/test-case-cqfm"]},"contained":[{"resourceType":"Parameters","id":"090310cd-1b5f-4693-b83b-801e98b82428-parameters","parameter":[{"name":"subject","valueString":"6aa2d002-1279-4313-85c3-a4a28e17da81"}]}],"extension":[{"url":"http://hl7.org/fhir/us/cqfmeasures/StructureDefinition/cqfm-inputParameters","valueReference":{"reference":"#090310cd-1b5f-4693-b83b-801e98b82428-parameters"}},{"url":"http://hl7.org/fhir/us/cqfmeasures/StructureDefinition/cqfm-testCaseDescription","valueMarkdown":"ADT but no PCa diagnosis. Fails IPP. "}],"modifierExtension":[{"url":"http://hl7.org/fhir/us/cqfmeasures/StructureDefinition/cqfm-isTestCase","valueBoolean":true}],"status":"complete","type":"individual","measure":"https://madie.cms.gov/Measure/BoneDensityProstateCancerAndrogenDeprivationTherapyFHIR","period":{"start":"2025-01-01","end":"2025-12-31"},"group":[{"population":[{"code":{"coding":[{"system":"http://terminology.hl7.org/CodeSystem/measure-population","code":"initial-population","display":"Initial Population"}]},"count":0},{"code":{"coding":[{"system":"http://terminology.hl7.org/CodeSystem/measure-population","code":"denominator","display":"Denominator"}]},"count":0},{"code":{"coding":[{"system":"http://terminology.hl7.org/CodeSystem/measure-population","code":"numerator","display":"Numerator"}]},"count":0},{"code":{"coding":[{"system":"http://terminology.hl7.org/CodeSystem/measure-population","code":"denominator-exception","display":"Denominator Exception"}]},"count":0}]}]},"request":{"method":"PUT","url":"MeasureReport/cba49590-299c-468b-a076-105299ea609f"}}]}