{"resourceType":"Bundle","id":"tests-75a833a6-8cf4-4ab2-9da5-b650d7c4b8a5-bundle","type":"transaction","entry":[{"fullUrl":"https://madie.cms.gov/Patient/75a833a6-8cf4-4ab2-9da5-b650d7c4b8a5","resource":{"resourceType":"Patient","id":"75a833a6-8cf4-4ab2-9da5-b650d7c4b8a5","meta":{"profile":["http://hl7.org/fhir/us/qicore/StructureDefinition/qicore-patient"]},"extension":[{"url":"http://hl7.org/fhir/us/core/StructureDefinition/us-core-race","extension":[{"url":"ombCategory","valueCoding":{"system":"urn:oid:2.16.840.1.113883.6.238","code":"1002-5","display":"American Indian or Alaska Native","userSelected":true}},{"url":"text","valueString":"American Indian or Alaska Native"}]},{"url":"http://hl7.org/fhir/us/core/StructureDefinition/us-core-ethnicity","extension":[{"url":"ombCategory","valueCoding":{"system":"urn:oid:2.16.840.1.113883.6.238","code":"2135-2","display":"Hispanic or Latino","userSelected":true}},{"url":"text","valueString":"Hispanic or Latino"}]}],"identifier":[{"type":{"coding":[{"system":"http://terminology.hl7.org/CodeSystem/v2-0203","code":"MR"}]},"system":"https://bonnie-fhir.healthit.gov/","value":"62bb3859e8081f5ef5e199f5"}],"name":[{"family":"DENOMFail","given":["ADTOrderMoreThan3MonthsBeforeMP"]}],"gender":"male","birthDate":"1961-07-19"},"request":{"method":"PUT","url":"Patient/75a833a6-8cf4-4ab2-9da5-b650d7c4b8a5"}},{"fullUrl":"https://madie.cms.gov/Encounter/464564","resource":{"resourceType":"Encounter","id":"fff4960f-1574-4f7a-8345-2a15b6a2658f","meta":{"profile":["http://hl7.org/fhir/us/qicore/StructureDefinition/qicore-encounter"]},"status":"finished","class":{"system":"http://terminology.hl7.org/CodeSystem/v3-ActCode","code":"AMB","display":"ambulatory"},"type":[{"coding":[{"system":"http://snomed.info/sct","version":"http://snomed.info/sct/731000124108/version/20240401","code":"185463005","display":"Visit out of hours (procedure)","userSelected":true}]}],"subject":{"reference":"Patient/75a833a6-8cf4-4ab2-9da5-b650d7c4b8a5"},"period":{"start":"2025-03-03T08:00:00.000+00:00","end":"2025-03-03T08:15:00.000+00:00"}},"request":{"method":"PUT","url":"Encounter/fff4960f-1574-4f7a-8345-2a15b6a2658f"}},{"fullUrl":"https://madie.cms.gov/Condition/16351465","resource":{"resourceType":"Condition","id":"4ec42502-84af-4766-bd1c-7b31ae2d9462","meta":{"profile":["http://hl7.org/fhir/us/qicore/StructureDefinition/qicore-condition"]},"clinicalStatus":{"coding":[{"system":"http://terminology.hl7.org/CodeSystem/condition-clinical","code":"active","display":"Active","userSelected":true}]},"verificationStatus":{"coding":[{"system":"http://terminology.hl7.org/CodeSystem/condition-ver-status","code":"confirmed","display":"Confirmed","userSelected":true}]},"category":[{"coding":[{"system":"http://terminology.hl7.org/CodeSystem/condition-category","code":"problem-list-item","display":"Problem List Item"}]}],"code":{"coding":[{"system":"http://snomed.info/sct","version":"http://snomed.info/sct/731000124108/version/20240401","code":"254900004","display":"Carcinoma of prostate (disorder)","userSelected":true}]},"subject":{"reference":"Patient/75a833a6-8cf4-4ab2-9da5-b650d7c4b8a5"},"onsetPeriod":{"start":"2025-03-03T08:00:00.000+00:00"}},"request":{"method":"PUT","url":"Condition/4ec42502-84af-4766-bd1c-7b31ae2d9462"}},{"fullUrl":"https://madie.cms.gov/MedicationRequest/98948641","resource":{"resourceType":"MedicationRequest","id":"52b3c8ec-f021-4b1a-8e72-7b733f0c164d","meta":{"profile":["http://hl7.org/fhir/us/qicore/StructureDefinition/qicore-medicationrequest"]},"status":"active","intent":"order","medicationCodeableConcept":{"coding":[{"system":"http://www.nlm.nih.gov/research/umls/rxnorm","version":"2025-01","code":"752884","display":"0.375 ML leuprolide acetate 120 MG/ML Prefilled Syringe","userSelected":true}]},"subject":{"reference":"Patient/75a833a6-8cf4-4ab2-9da5-b650d7c4b8a5"},"authoredOn":"2024-09-03T08:00:00.000+00:00","requester":{"reference":"http://myGoodHealthcare.com/fhir/Practitioner/646346"},"dosageInstruction":[{"timing":{"repeat":{"boundsPeriod":{"start":"2024-09-03T08:00:00.000+00:00"}}}}]},"request":{"method":"PUT","url":"MedicationRequest/52b3c8ec-f021-4b1a-8e72-7b733f0c164d"}},{"fullUrl":"https://madie.cms.gov/ServiceRequest/587458","resource":{"resourceType":"ServiceRequest","id":"d599912e-b012-4b12-bc2e-686b9d5615dc","meta":{"profile":["http://hl7.org/fhir/us/qicore/StructureDefinition/qicore-servicerequest"]},"status":"active","intent":"order","code":{"coding":[{"system":"http://snomed.info/sct","code":"456381000124102","display":"Injection of leuprolide acetate for twelve month period (regime/therapy)","userSelected":true}]},"subject":{"reference":"Patient/75a833a6-8cf4-4ab2-9da5-b650d7c4b8a5"},"authoredOn":"2024-09-03T08:00:00.000+00:00"},"request":{"method":"PUT","url":"ServiceRequest/d599912e-b012-4b12-bc2e-686b9d5615dc"}},{"fullUrl":"https://madie.cms.gov/MeasureReport/d6093f67-c65b-43a4-8fae-737600377749","resource":{"resourceType":"MeasureReport","id":"d6093f67-c65b-43a4-8fae-737600377749","meta":{"profile":["http://hl7.org/fhir/us/cqfmeasures/StructureDefinition/test-case-cqfm"]},"contained":[{"resourceType":"Parameters","id":"b5108e2a-067a-41f3-b7e9-f082bf7ba2f4-parameters","parameter":[{"name":"subject","valueString":"75a833a6-8cf4-4ab2-9da5-b650d7c4b8a5"}]}],"extension":[{"url":"http://hl7.org/fhir/us/cqfmeasures/StructureDefinition/cqfm-inputParameters","valueReference":{"reference":"#b5108e2a-067a-41f3-b7e9-f082bf7ba2f4-parameters"}},{"url":"http://hl7.org/fhir/us/cqfmeasures/StructureDefinition/cqfm-testCaseDescription","valueMarkdown":"Dx of Prostate Cancer, and Androgen deprivation therapy for Urology Care is not null. ADT greater than 3 months before start of MP. "}],"modifierExtension":[{"url":"http://hl7.org/fhir/us/cqfmeasures/StructureDefinition/cqfm-isTestCase","valueBoolean":true}],"status":"complete","type":"individual","measure":"https://madie.cms.gov/Measure/BoneDensityProstateCancerAndrogenDeprivationTherapyFHIR","period":{"start":"2025-01-01","end":"2025-12-31"},"group":[{"population":[{"code":{"coding":[{"system":"http://terminology.hl7.org/CodeSystem/measure-population","code":"initial-population","display":"Initial Population"}]},"count":0},{"code":{"coding":[{"system":"http://terminology.hl7.org/CodeSystem/measure-population","code":"denominator","display":"Denominator"}]},"count":0},{"code":{"coding":[{"system":"http://terminology.hl7.org/CodeSystem/measure-population","code":"numerator","display":"Numerator"}]},"count":0},{"code":{"coding":[{"system":"http://terminology.hl7.org/CodeSystem/measure-population","code":"denominator-exception","display":"Denominator Exception"}]},"count":0}]}]},"request":{"method":"PUT","url":"MeasureReport/d6093f67-c65b-43a4-8fae-737600377749"}}]}