{"resourceType":"Bundle","id":"tests-8c41481d-f89e-4113-ba12-df7c53e93d80-bundle","type":"transaction","entry":[{"fullUrl":"https://madie.cms.gov/Patient/8c41481d-f89e-4113-ba12-df7c53e93d80","resource":{"resourceType":"Patient","id":"8c41481d-f89e-4113-ba12-df7c53e93d80","meta":{"profile":["http://hl7.org/fhir/us/qicore/StructureDefinition/qicore-patient"]},"extension":[{"url":"http://hl7.org/fhir/us/core/StructureDefinition/us-core-race","extension":[{"url":"ombCategory","valueCoding":{"system":"urn:oid:2.16.840.1.113883.6.238","code":"1002-5","display":"American Indian or Alaska Native","userSelected":true}},{"url":"text","valueString":"American Indian or Alaska Native"}]},{"url":"http://hl7.org/fhir/us/core/StructureDefinition/us-core-ethnicity","extension":[{"url":"ombCategory","valueCoding":{"system":"urn:oid:2.16.840.1.113883.6.238","code":"2135-2","display":"Hispanic or Latino","userSelected":true}},{"url":"text","valueString":"Hispanic or Latino"}]}],"identifier":[{"type":{"coding":[{"system":"http://terminology.hl7.org/CodeSystem/v2-0203","code":"MR"}]},"system":"https://bonnie-fhir.healthit.gov/","value":"62bc55a63e113102f8cedc5b"}],"name":[{"family":"DENEXCEPPass","given":["DEXANotPerformedPtRefusedEdge"]}],"gender":"male","birthDate":"1959-08-09"},"request":{"method":"PUT","url":"Patient/8c41481d-f89e-4113-ba12-df7c53e93d80"}},{"fullUrl":"https://madie.cms.gov/Encounter/3543541","resource":{"resourceType":"Encounter","id":"7498e2f2-b46d-45d5-908c-ece7bde3459c","meta":{"profile":["http://hl7.org/fhir/us/qicore/StructureDefinition/qicore-encounter"]},"status":"finished","class":{"system":"http://terminology.hl7.org/CodeSystem/v3-ActCode","code":"AMB","display":"ambulatory"},"type":[{"coding":[{"system":"http://snomed.info/sct","version":"2021-09","code":"185463005","display":"Visit out of hours (procedure)"}]}],"subject":{"reference":"Patient/8c41481d-f89e-4113-ba12-df7c53e93d80"},"period":{"start":"2025-02-03T08:00:00.000+00:00","end":"2025-02-03T08:15:00.000+00:00"}},"request":{"method":"PUT","url":"Encounter/7498e2f2-b46d-45d5-908c-ece7bde3459c"}},{"fullUrl":"https://madie.cms.gov/Condition/3214132103135","resource":{"resourceType":"Condition","id":"9b9f359a-796a-4622-932d-d7bfa798d416","meta":{"profile":["http://hl7.org/fhir/us/qicore/StructureDefinition/qicore-condition"]},"clinicalStatus":{"coding":[{"system":"http://terminology.hl7.org/CodeSystem/condition-clinical","code":"active"}]},"verificationStatus":{"coding":[{"system":"http://terminology.hl7.org/CodeSystem/condition-ver-status","code":"confirmed"}]},"category":[{"coding":[{"system":"http://terminology.hl7.org/CodeSystem/condition-category","code":"problem-list-item","display":"Problem List Item"}]}],"code":{"coding":[{"system":"http://snomed.info/sct","version":"2021-09","code":"254900004","display":"Carcinoma of prostate (disorder)","userSelected":true}]},"subject":{"reference":"Patient/8c41481d-f89e-4113-ba12-df7c53e93d80"},"onsetPeriod":{"start":"2025-02-03T08:00:00.000+00:00"}},"request":{"method":"PUT","url":"Condition/9b9f359a-796a-4622-932d-d7bfa798d416"}},{"fullUrl":"https://madie.cms.gov/MedicationRequest/4135463463","resource":{"resourceType":"MedicationRequest","id":"ff3a6636-ba1e-4e5d-803a-0a3117035928","meta":{"profile":["http://hl7.org/fhir/us/qicore/StructureDefinition/qicore-medicationrequest"]},"status":"active","intent":"order","medicationCodeableConcept":{"coding":[{"system":"http://www.nlm.nih.gov/research/umls/rxnorm","code":"1115257","display":"1.5 ML leuprolide acetate 30 MG/ML Prefilled Syringe","userSelected":true}]},"subject":{"reference":"Patient/8c41481d-f89e-4113-ba12-df7c53e93d80"},"authoredOn":"2025-02-03T08:00:00.000+00:00","requester":{"reference":"http://myGoodHealthcare.com/fhir/Practitioner/313151"},"dosageInstruction":[{"timing":{"repeat":{"boundsPeriod":{"start":"2025-02-03T08:00:00.000+00:00","end":"2025-03-03T08:00:00.000+00:00"}}}}]},"request":{"method":"PUT","url":"MedicationRequest/ff3a6636-ba1e-4e5d-803a-0a3117035928"}},{"fullUrl":"https://madie.cms.gov/ServiceRequest/13131351","resource":{"resourceType":"ServiceRequest","id":"876b7608-d961-4de5-90cd-181b7106626a","meta":{"profile":["http://hl7.org/fhir/us/qicore/StructureDefinition/qicore-servicenotrequested"]},"extension":[{"url":"http://hl7.org/fhir/us/qicore/StructureDefinition/qicore-doNotPerformReason","valueCodeableConcept":{"coding":[{"system":"http://snomed.info/sct","code":"105480006","display":"Refusal of treatment by patient (situation)","userSelected":true}]}}],"status":"completed","intent":"order","doNotPerform":true,"code":{"coding":[{"system":"http://loinc.org","version":"2.71","code":"38265-5","display":"DXA Radius and Ulna [T-score] Bone density","userSelected":true}]},"subject":{"reference":"Patient/8c41481d-f89e-4113-ba12-df7c53e93d80"},"authoredOn":"2025-02-03T08:00:00.000+00:00"},"request":{"method":"PUT","url":"ServiceRequest/876b7608-d961-4de5-90cd-181b7106626a"}},{"fullUrl":"https://madie.cms.gov/ServiceRequest/32131341","resource":{"resourceType":"ServiceRequest","id":"3b722764-a442-4ec9-b55d-dc14f47a706f","meta":{"profile":["http://hl7.org/fhir/us/qicore/StructureDefinition/qicore-servicerequest"]},"status":"active","intent":"order","code":{"coding":[{"system":"http://snomed.info/sct","code":"456381000124102","display":"Injection of leuprolide acetate for twelve month period (regime/therapy)"}]},"subject":{"reference":"Patient/8c41481d-f89e-4113-ba12-df7c53e93d80"},"authoredOn":"2025-02-03T08:00:00.000+00:00"},"request":{"method":"PUT","url":"ServiceRequest/3b722764-a442-4ec9-b55d-dc14f47a706f"}},{"fullUrl":"https://madie.cms.gov/Practitioner/313151","resource":{"resourceType":"Practitioner","id":"2ab31092-11f5-4387-a1bc-1167f0e99fc0","meta":{"profile":["http://hl7.org/fhir/us/qicore/StructureDefinition/qicore-practitioner"]},"identifier":[{"use":"temp","system":"urn:oid:2.16.840.1.113883.4.336","value":"Practitioner-23"}],"active":true,"name":[{"family":"Careful","given":["Adam"],"prefix":["Dr"]}],"address":[{"use":"home","line":["534 Erewhon St"],"city":"PleasantVille","state":"UT","postalCode":"84414"}],"qualification":[{"identifier":[{"system":"http://example.org/UniversityIdentifier","value":"12345"}],"code":{"coding":[{"system":"http://terminology.hl7.org/CodeSystem/v2-0360|2.7","code":"BS","display":"Bachelor of Science"}],"text":"Bachelor of Science"},"period":{"start":"1995"},"issuer":{"display":"Example University"}}]},"request":{"method":"PUT","url":"Practitioner/2ab31092-11f5-4387-a1bc-1167f0e99fc0"}},{"fullUrl":"https://madie.cms.gov/MeasureReport/a6a9f740-be59-40e2-bdaf-0eaed61881fd","resource":{"resourceType":"MeasureReport","id":"a6a9f740-be59-40e2-bdaf-0eaed61881fd","meta":{"profile":["http://hl7.org/fhir/us/cqfmeasures/StructureDefinition/test-case-cqfm"]},"contained":[{"resourceType":"Parameters","id":"74f46c82-4834-439c-934c-630ecf3472d8-parameters","parameter":[{"name":"subject","valueString":"8c41481d-f89e-4113-ba12-df7c53e93d80"}]}],"extension":[{"url":"http://hl7.org/fhir/us/cqfmeasures/StructureDefinition/cqfm-inputParameters","valueReference":{"reference":"#74f46c82-4834-439c-934c-630ecf3472d8-parameters"}},{"url":"http://hl7.org/fhir/us/cqfmeasures/StructureDefinition/cqfm-testCaseDescription","valueMarkdown":"Dx of Prostate Cancer. Patient refused DEXA at 3 months after ADT. Edge."}],"modifierExtension":[{"url":"http://hl7.org/fhir/us/cqfmeasures/StructureDefinition/cqfm-isTestCase","valueBoolean":true}],"status":"complete","type":"individual","measure":"https://madie.cms.gov/Measure/BoneDensityProstateCancerAndrogenDeprivationTherapyFHIR","period":{"start":"2025-01-01","end":"2025-12-31"},"group":[{"population":[{"code":{"coding":[{"system":"http://terminology.hl7.org/CodeSystem/measure-population","code":"initial-population","display":"Initial Population"}]},"count":1},{"code":{"coding":[{"system":"http://terminology.hl7.org/CodeSystem/measure-population","code":"denominator","display":"Denominator"}]},"count":1},{"code":{"coding":[{"system":"http://terminology.hl7.org/CodeSystem/measure-population","code":"numerator","display":"Numerator"}]},"count":0},{"code":{"coding":[{"system":"http://terminology.hl7.org/CodeSystem/measure-population","code":"denominator-exception","display":"Denominator Exception"}]},"count":0}]}]},"request":{"method":"PUT","url":"MeasureReport/a6a9f740-be59-40e2-bdaf-0eaed61881fd"}}]}