{"resourceType":"Bundle","id":"tests-a8091d75-0448-41e4-b666-56873228def3-bundle","type":"transaction","entry":[{"fullUrl":"https://madie.cms.gov/Patient/a8091d75-0448-41e4-b666-56873228def3","resource":{"resourceType":"Patient","id":"a8091d75-0448-41e4-b666-56873228def3","meta":{"profile":["http://hl7.org/fhir/us/qicore/StructureDefinition/qicore-patient"]},"extension":[{"url":"http://hl7.org/fhir/us/core/StructureDefinition/us-core-race","extension":[{"url":"ombCategory","valueCoding":{"system":"urn:oid:2.16.840.1.113883.6.238","code":"1002-5","display":"American Indian or Alaska Native","userSelected":true}},{"url":"text","valueString":"American Indian or Alaska Native"}]},{"url":"http://hl7.org/fhir/us/core/StructureDefinition/us-core-ethnicity","extension":[{"url":"ombCategory","valueCoding":{"system":"urn:oid:2.16.840.1.113883.6.238","code":"2135-2","display":"Hispanic or Latino","userSelected":true}},{"url":"text","valueString":"Hispanic or Latino"}]}],"identifier":[{"type":{"coding":[{"system":"http://terminology.hl7.org/CodeSystem/v2-0203","code":"MR"}]},"system":"https://bonnie-fhir.healthit.gov/","value":"62bb3859e8081f5ef5e199f5"}],"name":[{"family":"DENOMFail","given":["ADTMoreThan9MonthsAfterMP"]}],"gender":"male","birthDate":"1969-09-19"},"request":{"method":"PUT","url":"Patient/a8091d75-0448-41e4-b666-56873228def3"}},{"fullUrl":"https://madie.cms.gov/Encounter/464564","resource":{"resourceType":"Encounter","id":"acfe7c80-0331-41c8-bec7-d0e54342b667","meta":{"profile":["http://hl7.org/fhir/us/qicore/StructureDefinition/qicore-encounter"]},"status":"finished","class":{"system":"http://terminology.hl7.org/CodeSystem/v3-ActCode","code":"AMB","display":"ambulatory"},"type":[{"coding":[{"system":"http://snomed.info/sct","version":"http://snomed.info/sct/731000124108/version/20240401","code":"185463005","display":"Visit out of hours (procedure)","userSelected":true}]}],"subject":{"reference":"Patient/a8091d75-0448-41e4-b666-56873228def3"},"period":{"start":"2025-03-03T08:00:00.000+00:00","end":"2025-03-03T08:15:00.000+00:00"}},"request":{"method":"PUT","url":"Encounter/acfe7c80-0331-41c8-bec7-d0e54342b667"}},{"fullUrl":"https://madie.cms.gov/Condition/16351465","resource":{"resourceType":"Condition","id":"7ce74243-3748-4108-8785-8c1701dd7edd","meta":{"profile":["http://hl7.org/fhir/us/qicore/StructureDefinition/qicore-condition"]},"clinicalStatus":{"coding":[{"system":"http://terminology.hl7.org/CodeSystem/condition-clinical","code":"active","display":"Active","userSelected":true}]},"verificationStatus":{"coding":[{"system":"http://terminology.hl7.org/CodeSystem/condition-ver-status","code":"confirmed","display":"Confirmed","userSelected":true}]},"category":[{"coding":[{"system":"http://terminology.hl7.org/CodeSystem/condition-category","code":"problem-list-item","display":"Problem List Item"}]}],"code":{"coding":[{"system":"http://snomed.info/sct","version":"http://snomed.info/sct/731000124108/version/20240401","code":"254900004","display":"Carcinoma of prostate (disorder)","userSelected":true}]},"subject":{"reference":"Patient/a8091d75-0448-41e4-b666-56873228def3"},"onsetPeriod":{"start":"2025-03-03T08:00:00.000+00:00"}},"request":{"method":"PUT","url":"Condition/7ce74243-3748-4108-8785-8c1701dd7edd"}},{"fullUrl":"https://madie.cms.gov/MedicationRequest/98948641","resource":{"resourceType":"MedicationRequest","id":"ff8eb0dc-73d8-4456-9bc5-f889c1b0de36","meta":{"profile":["http://hl7.org/fhir/us/qicore/StructureDefinition/qicore-medicationrequest"]},"status":"active","intent":"order","medicationCodeableConcept":{"coding":[{"system":"http://www.nlm.nih.gov/research/umls/rxnorm","version":"2025-01","code":"752884","display":"0.375 ML leuprolide acetate 120 MG/ML Prefilled Syringe","userSelected":true}]},"subject":{"reference":"Patient/a8091d75-0448-41e4-b666-56873228def3"},"authoredOn":"2025-10-02T08:00:00.000+00:00","requester":{"reference":"http://myGoodHealthcare.com/fhir/Practitioner/646346"},"dosageInstruction":[{"timing":{"repeat":{"boundsPeriod":{"start":"2025-10-02T08:00:00.000+00:00"}}}}]},"request":{"method":"PUT","url":"MedicationRequest/ff8eb0dc-73d8-4456-9bc5-f889c1b0de36"}},{"fullUrl":"https://madie.cms.gov/ServiceRequest/587458","resource":{"resourceType":"ServiceRequest","id":"0f8723fb-c11c-40ef-894c-ad24df61b41e","meta":{"profile":["http://hl7.org/fhir/us/qicore/StructureDefinition/qicore-servicerequest"]},"status":"active","intent":"order","code":{"coding":[{"system":"http://snomed.info/sct","code":"456381000124102","display":"Injection of leuprolide acetate for twelve month period (regime/therapy)","userSelected":true}]},"subject":{"reference":"Patient/a8091d75-0448-41e4-b666-56873228def3"},"authoredOn":"2025-10-02T08:00:00.000+00:00"},"request":{"method":"PUT","url":"ServiceRequest/0f8723fb-c11c-40ef-894c-ad24df61b41e"}},{"fullUrl":"https://madie.cms.gov/MeasureReport/e8cb561a-9fbf-4d79-a286-f54739b64c3c","resource":{"resourceType":"MeasureReport","id":"e8cb561a-9fbf-4d79-a286-f54739b64c3c","meta":{"profile":["http://hl7.org/fhir/us/cqfmeasures/StructureDefinition/test-case-cqfm"]},"contained":[{"resourceType":"Parameters","id":"a94788f7-6940-4462-b276-de25c87da0e5-parameters","parameter":[{"name":"subject","valueString":"a8091d75-0448-41e4-b666-56873228def3"}]}],"extension":[{"url":"http://hl7.org/fhir/us/cqfmeasures/StructureDefinition/cqfm-inputParameters","valueReference":{"reference":"#a94788f7-6940-4462-b276-de25c87da0e5-parameters"}},{"url":"http://hl7.org/fhir/us/cqfmeasures/StructureDefinition/cqfm-testCaseDescription","valueMarkdown":"Dx of Prostate Cancer with qualifying encounter(s) in MP, but ADT greater than 9 months after start of MP. "}],"modifierExtension":[{"url":"http://hl7.org/fhir/us/cqfmeasures/StructureDefinition/cqfm-isTestCase","valueBoolean":true}],"status":"complete","type":"individual","measure":"https://madie.cms.gov/Measure/BoneDensityProstateCancerAndrogenDeprivationTherapyFHIR","period":{"start":"2025-01-01","end":"2025-12-31"},"group":[{"population":[{"code":{"coding":[{"system":"http://terminology.hl7.org/CodeSystem/measure-population","code":"initial-population","display":"Initial Population"}]},"count":0},{"code":{"coding":[{"system":"http://terminology.hl7.org/CodeSystem/measure-population","code":"denominator","display":"Denominator"}]},"count":0},{"code":{"coding":[{"system":"http://terminology.hl7.org/CodeSystem/measure-population","code":"numerator","display":"Numerator"}]},"count":0},{"code":{"coding":[{"system":"http://terminology.hl7.org/CodeSystem/measure-population","code":"denominator-exception","display":"Denominator Exception"}]},"count":0}]}]},"request":{"method":"PUT","url":"MeasureReport/e8cb561a-9fbf-4d79-a286-f54739b64c3c"}}]}