{"resourceType":"Bundle","id":"tests-1705b17e-46ff-4a4d-9783-1c30c65cd5d5-bundle","type":"transaction","entry":[{"fullUrl":"https://madie.cms.gov/Patient/1705b17e-46ff-4a4d-9783-1c30c65cd5d5","resource":{"resourceType":"Patient","id":"1705b17e-46ff-4a4d-9783-1c30c65cd5d5","meta":{"profile":["http://hl7.org/fhir/us/qicore/StructureDefinition/qicore-patient"]},"extension":[{"url":"http://hl7.org/fhir/us/core/StructureDefinition/us-core-race","extension":[{"url":"ombCategory","valueCoding":{"system":"urn:oid:2.16.840.1.113883.6.238","code":"1002-5","display":"American Indian or Alaska Native"}},{"url":"text","valueString":"American Indian or Alaska Native"}]},{"url":"http://hl7.org/fhir/us/core/StructureDefinition/us-core-ethnicity","extension":[{"url":"ombCategory","valueCoding":{"system":"urn:oid:2.16.840.1.113883.6.238","code":"2135-2","display":"Hispanic or Latino"}},{"url":"text","valueString":"Hispanic or Latino"}]}],"identifier":[{"type":{"coding":[{"system":"http://terminology.hl7.org/CodeSystem/v2-0203","code":"MR"}]},"system":"https://bonnie-fhir.healthit.gov","value":"4643131435413132"}],"active":true,"name":[{"family":"IPPFail","given":["PtGenderFemale"]}],"gender":"female","birthDate":"1951-10-10"},"request":{"method":"PUT","url":"Patient/1705b17e-46ff-4a4d-9783-1c30c65cd5d5"}},{"fullUrl":"https://madie.cms.gov/Encounter/3adsf13adf13","resource":{"resourceType":"Encounter","id":"9283af65-bca3-4e6c-8e70-bdb56c83b181","meta":{"profile":["http://hl7.org/fhir/us/qicore/StructureDefinition/qicore-encounter"]},"status":"finished","class":{"system":"http://terminology.hl7.org/CodeSystem/v3-ActCode","code":"AMB","display":"ambulatory"},"type":[{"coding":[{"system":"http://www.ama-assn.org/go/cpt","version":"2024","code":"99203"}]}],"subject":{"reference":"Patient/1705b17e-46ff-4a4d-9783-1c30c65cd5d5"},"period":{"start":"2024-02-01T08:00:00+00:00","end":"2024-02-01T08:15:00+00:00"}},"request":{"method":"PUT","url":"Encounter/9283af65-bca3-4e6c-8e70-bdb56c83b181"}},{"fullUrl":"https://madie.cms.gov/Condition/1313134131","resource":{"resourceType":"Condition","id":"dfc15060-79e4-45b0-9dc2-2efabc513932","meta":{"profile":["http://hl7.org/fhir/us/qicore/StructureDefinition/qicore-condition"]},"clinicalStatus":{"coding":[{"system":"http://terminology.hl7.org/CodeSystem/condition-clinical","code":"active"}]},"verificationStatus":{"coding":[{"system":"http://terminology.hl7.org/CodeSystem/condition-ver-status","code":"confirmed"}]},"category":[{"coding":[{"system":"http://terminology.hl7.org/CodeSystem/condition-category","code":"problem-list-item","display":"Problem List Item"}]}],"code":{"coding":[{"system":"http://snomed.info/sct","version":"http://snomed.info/sct/731000124108/version/20240301","code":"254900004","display":"Carcinoma of prostate (disorder)"}]},"subject":{"reference":"Patient/1705b17e-46ff-4a4d-9783-1c30c65cd5d5"},"onsetPeriod":{"start":"2024-03-15T08:00:00.000+00:00"}},"request":{"method":"PUT","url":"Condition/dfc15060-79e4-45b0-9dc2-2efabc513932"}},{"fullUrl":"https://madie.cms.gov/MedicationRequest/1351313315464","resource":{"resourceType":"MedicationRequest","id":"bbce364f-1a53-4565-9ba7-21987c4672a1","meta":{"profile":["http://hl7.org/fhir/us/qicore/StructureDefinition/qicore-medicationrequest"]},"status":"active","intent":"order","medicationCodeableConcept":{"coding":[{"system":"http://www.nlm.nih.gov/research/umls/rxnorm","version":"04012024","code":"1115257","display":"1.5 ML leuprolide acetate 30 MG/ML Prefilled Syringe"}]},"subject":{"reference":"Patient/1705b17e-46ff-4a4d-9783-1c30c65cd5d5"},"authoredOn":"2024-03-15T08:00:00.000+00:00","requester":{"reference":"http://myGoodHealthcare.com/fhir/Practitioner/646346"},"dosageInstruction":[{"timing":{"repeat":{"boundsPeriod":{"start":"2024-03-15T08:00:00.000+00:00","end":"2024-04-15T08:15:00.000+00:00"}}}}]},"request":{"method":"PUT","url":"MedicationRequest/bbce364f-1a53-4565-9ba7-21987c4672a1"}},{"fullUrl":"https://madie.cms.gov/ServiceRequest/31313241313","resource":{"resourceType":"ServiceRequest","id":"04fce865-852b-43ae-914c-664034177b77","meta":{"profile":["http://hl7.org/fhir/us/qicore/StructureDefinition/qicore-servicerequest"]},"status":"active","intent":"order","code":{"coding":[{"system":"http://snomed.info/sct","version":"http://snomed.info/sct/731000124108/version/20240301","code":"456381000124102","display":"Injection of leuprolide acetate for twelve month period (regime/therapy)"}]},"subject":{"reference":"Patient/1705b17e-46ff-4a4d-9783-1c30c65cd5d5"},"authoredOn":"2024-03-15T08:00:00.000+00:00"},"request":{"method":"PUT","url":"ServiceRequest/04fce865-852b-43ae-914c-664034177b77"}},{"fullUrl":"https://madie.cms.gov/Practitioner/646346","resource":{"resourceType":"Practitioner","id":"1600f983-d10c-42d3-8a24-84217aa5104b","meta":{"profile":["http://hl7.org/fhir/us/qicore/StructureDefinition/qicore-practitioner"]},"identifier":[{"use":"temp","system":"urn:oid:2.16.840.1.113883.4.336","value":"Practitioner-23"}],"active":true,"name":[{"family":"Careful","given":["Adam"],"prefix":["Dr"]}],"address":[{"use":"home","line":["534 Erewhon St"],"city":"PleasantVille","state":"UT","postalCode":"84414"}],"qualification":[{"identifier":[{"system":"http://example.org/UniversityIdentifier","value":"12345"}],"code":{"coding":[{"system":"http://terminology.hl7.org/CodeSystem/v2-0360|2.7","code":"BS","display":"Bachelor of Science"}],"text":"Bachelor of Science"},"period":{"start":"1995"},"issuer":{"display":"Example University"}}]},"request":{"method":"PUT","url":"Practitioner/1600f983-d10c-42d3-8a24-84217aa5104b"}},{"fullUrl":"https://madie.cms.gov/MeasureReport/62c9336f-be45-4a16-b39f-41434972d97d","resource":{"resourceType":"MeasureReport","id":"62c9336f-be45-4a16-b39f-41434972d97d","meta":{"profile":["http://hl7.org/fhir/us/cqfmeasures/StructureDefinition/test-case-cqfm"]},"contained":[{"resourceType":"Parameters","id":"53a08165-bcaa-43ac-930e-74931761bd0f-parameters","parameter":[{"name":"subject","valueString":"1705b17e-46ff-4a4d-9783-1c30c65cd5d5"}]}],"extension":[{"url":"http://hl7.org/fhir/us/cqfmeasures/StructureDefinition/cqfm-inputParameters","valueReference":{"reference":"#53a08165-bcaa-43ac-930e-74931761bd0f-parameters"}},{"url":"http://hl7.org/fhir/us/cqfmeasures/StructureDefinition/cqfm-testCaseDescription","valueMarkdown":"Patient female. Fail IPP."}],"modifierExtension":[{"url":"http://hl7.org/fhir/us/cqfmeasures/StructureDefinition/cqfm-isTestCase","valueBoolean":true}],"status":"complete","type":"individual","measure":"https://madie.cms.gov/Measure/BoneDensityProstateCancerAndrogenDeprivationTherapyFHIR","period":{"start":"2025-01-01","end":"2025-12-31"},"group":[{"population":[{"code":{"coding":[{"system":"http://terminology.hl7.org/CodeSystem/measure-population","code":"initial-population","display":"Initial Population"}]},"count":0},{"code":{"coding":[{"system":"http://terminology.hl7.org/CodeSystem/measure-population","code":"denominator","display":"Denominator"}]},"count":0},{"code":{"coding":[{"system":"http://terminology.hl7.org/CodeSystem/measure-population","code":"numerator","display":"Numerator"}]},"count":0},{"code":{"coding":[{"system":"http://terminology.hl7.org/CodeSystem/measure-population","code":"denominator-exception","display":"Denominator Exception"}]},"count":0}]}]},"request":{"method":"PUT","url":"MeasureReport/62c9336f-be45-4a16-b39f-41434972d97d"}}]}