{"resourceType":"Bundle","id":"tests-f33f170c-53de-44a5-8f8e-d9097bf61854-bundle","type":"transaction","entry":[{"fullUrl":"https://madie.cms.gov/Patient/f33f170c-53de-44a5-8f8e-d9097bf61854","resource":{"resourceType":"Patient","id":"f33f170c-53de-44a5-8f8e-d9097bf61854","meta":{"profile":["http://hl7.org/fhir/us/qicore/StructureDefinition/qicore-patient"]},"extension":[{"url":"http://hl7.org/fhir/us/core/StructureDefinition/us-core-race","extension":[{"url":"ombCategory","valueCoding":{"system":"urn:oid:2.16.840.1.113883.6.238","code":"1002-5","display":"American Indian or Alaska Native","userSelected":true}},{"url":"text","valueString":"American Indian or Alaska Native"}]},{"url":"http://hl7.org/fhir/us/core/StructureDefinition/us-core-ethnicity","extension":[{"url":"ombCategory","valueCoding":{"system":"urn:oid:2.16.840.1.113883.6.238","code":"2135-2","display":"Hispanic or Latino","userSelected":true}},{"url":"text","valueString":"Hispanic or Latino"}]}],"identifier":[{"type":{"coding":[{"system":"http://terminology.hl7.org/CodeSystem/v2-0203","code":"MR"}]},"system":"https://bonnie-fhir.healthit.gov/","value":"62bb3859e8081f5ef5e199f5"}],"name":[{"family":"IPPFail","given":["ADTOrderBeforeMP"]}],"gender":"male","birthDate":"1961-07-19"},"request":{"method":"PUT","url":"Patient/f33f170c-53de-44a5-8f8e-d9097bf61854"}},{"fullUrl":"https://madie.cms.gov/Encounter/464564","resource":{"resourceType":"Encounter","id":"b6150b02-24e1-4874-903e-a52634e4241e","meta":{"profile":["http://hl7.org/fhir/us/qicore/StructureDefinition/qicore-encounter"]},"status":"finished","class":{"system":"http://terminology.hl7.org/CodeSystem/v3-ActCode","code":"AMB","display":"ambulatory"},"type":[{"coding":[{"system":"http://snomed.info/sct","version":"2022-09","code":"185463005","display":"Visit out of hours (procedure)","userSelected":true}]}],"subject":{"reference":"Patient/f33f170c-53de-44a5-8f8e-d9097bf61854"},"period":{"start":"2025-05-03T08:00:00.000+00:00","end":"2025-05-03T08:15:00.000+00:00"}},"request":{"method":"PUT","url":"Encounter/b6150b02-24e1-4874-903e-a52634e4241e"}},{"fullUrl":"https://madie.cms.gov/Condition/16351465","resource":{"resourceType":"Condition","id":"a76a804d-63c8-4cc5-aed8-dc2d753a685a","meta":{"profile":["http://hl7.org/fhir/us/qicore/StructureDefinition/qicore-condition"]},"clinicalStatus":{"coding":[{"system":"http://terminology.hl7.org/CodeSystem/condition-clinical","code":"active","display":"Active","userSelected":true}]},"verificationStatus":{"coding":[{"system":"http://terminology.hl7.org/CodeSystem/condition-ver-status","code":"confirmed","display":"Confirmed","userSelected":true}]},"category":[{"coding":[{"system":"http://terminology.hl7.org/CodeSystem/condition-category","code":"problem-list-item","display":"Problem List Item"}]}],"code":{"coding":[{"system":"http://snomed.info/sct","version":"2022-09","code":"254900004","display":"Carcinoma of prostate (disorder)","userSelected":true}]},"subject":{"reference":"Patient/f33f170c-53de-44a5-8f8e-d9097bf61854"},"onsetPeriod":{"start":"2025-01-03T08:00:00.000+00:00"}},"request":{"method":"PUT","url":"Condition/a76a804d-63c8-4cc5-aed8-dc2d753a685a"}},{"fullUrl":"https://madie.cms.gov/MedicationRequest/98948641","resource":{"resourceType":"MedicationRequest","id":"85f44ddd-1170-4cd3-a07d-55c93f4794c1","meta":{"profile":["http://hl7.org/fhir/us/qicore/StructureDefinition/qicore-medicationrequest"]},"status":"active","intent":"order","medicationCodeableConcept":{"coding":[{"system":"http://www.nlm.nih.gov/research/umls/rxnorm","version":"2025-01","code":"752886","display":"0.375 ML leuprolide acetate 120 MG/ML Prefilled Syringe","userSelected":true}]},"subject":{"reference":"Patient/f33f170c-53de-44a5-8f8e-d9097bf61854"},"authoredOn":"2024-12-31T08:00:00.000+00:00","requester":{"reference":"http://myGoodHealthcare.com/fhir/Practitioner/646346"},"dosageInstruction":[{"timing":{"repeat":{"boundsPeriod":{"start":"2024-12-31T08:00:00.000+00:00"}}}}]},"request":{"method":"PUT","url":"MedicationRequest/85f44ddd-1170-4cd3-a07d-55c93f4794c1"}},{"fullUrl":"https://madie.cms.gov/ServiceRequest/587458","resource":{"resourceType":"ServiceRequest","id":"3f8702f7-bf9f-429c-8acd-4886eb61a569","meta":{"profile":["http://hl7.org/fhir/us/qicore/StructureDefinition/qicore-servicerequest"]},"status":"active","intent":"order","doNotPerform":true,"code":{"coding":[{"system":"http://snomed.info/sct","code":"456381000124102","display":"Injection of leuprolide acetate for twelve month period (regime/therapy)"}]},"subject":{"reference":"Patient/f33f170c-53de-44a5-8f8e-d9097bf61854"},"authoredOn":"2024-12-31T08:00:00.000+00:00"},"request":{"method":"PUT","url":"ServiceRequest/3f8702f7-bf9f-429c-8acd-4886eb61a569"}},{"fullUrl":"https://madie.cms.gov/MeasureReport/cd580b1d-2aa3-43d2-bd15-896c6d72c50d","resource":{"resourceType":"MeasureReport","id":"cd580b1d-2aa3-43d2-bd15-896c6d72c50d","meta":{"profile":["http://hl7.org/fhir/us/cqfmeasures/StructureDefinition/test-case-cqfm"]},"contained":[{"resourceType":"Parameters","id":"b10c5c22-0a9d-409c-abde-c23090db7edc-parameters","parameter":[{"name":"subject","valueString":"f33f170c-53de-44a5-8f8e-d9097bf61854"}]}],"extension":[{"url":"http://hl7.org/fhir/us/cqfmeasures/StructureDefinition/cqfm-inputParameters","valueReference":{"reference":"#b10c5c22-0a9d-409c-abde-c23090db7edc-parameters"}},{"url":"http://hl7.org/fhir/us/cqfmeasures/StructureDefinition/cqfm-testCaseDescription","valueMarkdown":"PCa with OV in MP.  Order for ADT before MP and prostate cancer dx."}],"modifierExtension":[{"url":"http://hl7.org/fhir/us/cqfmeasures/StructureDefinition/cqfm-isTestCase","valueBoolean":true}],"status":"complete","type":"individual","measure":"https://madie.cms.gov/Measure/BoneDensityProstateCancerAndrogenDeprivationTherapyFHIR","period":{"start":"2025-01-01","end":"2025-12-31"},"group":[{"population":[{"code":{"coding":[{"system":"http://terminology.hl7.org/CodeSystem/measure-population","code":"initial-population","display":"Initial Population"}]},"count":0},{"code":{"coding":[{"system":"http://terminology.hl7.org/CodeSystem/measure-population","code":"denominator","display":"Denominator"}]},"count":0},{"code":{"coding":[{"system":"http://terminology.hl7.org/CodeSystem/measure-population","code":"numerator","display":"Numerator"}]},"count":0},{"code":{"coding":[{"system":"http://terminology.hl7.org/CodeSystem/measure-population","code":"denominator-exception","display":"Denominator Exception"}]},"count":0}]}]},"request":{"method":"PUT","url":"MeasureReport/cd580b1d-2aa3-43d2-bd15-896c6d72c50d"}}]}