{"resourceType":"Bundle","id":"tests-b3cad3db-a17d-4eec-8852-851b438b7964-bundle","type":"transaction","entry":[{"fullUrl":"https://madie.cms.gov/Patient/b3cad3db-a17d-4eec-8852-851b438b7964","resource":{"resourceType":"Patient","id":"b3cad3db-a17d-4eec-8852-851b438b7964","meta":{"profile":["http://hl7.org/fhir/us/qicore/StructureDefinition/qicore-patient"]},"extension":[{"url":"http://hl7.org/fhir/us/core/StructureDefinition/us-core-race","extension":[{"url":"ombCategory","valueCoding":{"system":"urn:oid:2.16.840.1.113883.6.238","code":"1002-5","display":"American Indian or Alaska Native","userSelected":true}},{"url":"text","valueString":"American Indian or Alaska Native"}]},{"url":"http://hl7.org/fhir/us/core/StructureDefinition/us-core-ethnicity","extension":[{"url":"ombCategory","valueCoding":{"system":"urn:oid:2.16.840.1.113883.6.238","code":"2135-2","display":"Hispanic or Latino","userSelected":true}},{"url":"text","valueString":"Hispanic or Latino"}]}],"identifier":[{"type":{"coding":[{"system":"http://terminology.hl7.org/CodeSystem/v2-0203","code":"MR"}]},"system":"https://bonnie-fhir.healthit.gov/","value":"62bc55a63e113102f8cedc5b"}],"name":[{"family":"DENEXCEPPass","given":["PtRefusedDEXA"]}],"gender":"male","birthDate":"1958-08-09"},"request":{"method":"PUT","url":"Patient/b3cad3db-a17d-4eec-8852-851b438b7964"}},{"fullUrl":"https://madie.cms.gov/Encounter/3543541","resource":{"resourceType":"Encounter","id":"9e5bec7d-8e00-44de-8861-e9156b3fe1cd","meta":{"profile":["http://hl7.org/fhir/us/qicore/StructureDefinition/qicore-encounter"]},"status":"finished","class":{"system":"http://terminology.hl7.org/CodeSystem/v3-ActCode","code":"AMB","display":"ambulatory"},"type":[{"coding":[{"system":"http://snomed.info/sct","version":"2020-09","code":"185463005","display":"Visit out of hours (procedure)"}]}],"subject":{"reference":"Patient/b3cad3db-a17d-4eec-8852-851b438b7964"},"period":{"start":"2025-02-03T08:00:00.000+00:00","end":"2025-02-03T08:15:00.000+00:00"}},"request":{"method":"PUT","url":"Encounter/9e5bec7d-8e00-44de-8861-e9156b3fe1cd"}},{"fullUrl":"https://madie.cms.gov/Condition/3214132103135","resource":{"resourceType":"Condition","id":"70aca046-f25a-4c30-964e-5623f5c53d32","meta":{"profile":["http://hl7.org/fhir/us/qicore/StructureDefinition/qicore-condition"]},"clinicalStatus":{"coding":[{"system":"http://terminology.hl7.org/CodeSystem/condition-clinical","code":"active"}]},"verificationStatus":{"coding":[{"system":"http://terminology.hl7.org/CodeSystem/condition-ver-status","code":"confirmed"}]},"category":[{"coding":[{"system":"http://terminology.hl7.org/CodeSystem/condition-category","code":"problem-list-item","display":"Problem List Item"}]}],"code":{"coding":[{"system":"http://snomed.info/sct","version":"2020-09","code":"254900004","display":"Carcinoma of prostate (disorder)","userSelected":true}]},"subject":{"reference":"Patient/b3cad3db-a17d-4eec-8852-851b438b7964"},"onsetDateTime":"2025-02-03T08:00:00.000+00:00"},"request":{"method":"PUT","url":"Condition/70aca046-f25a-4c30-964e-5623f5c53d32"}},{"fullUrl":"https://madie.cms.gov/MedicationRequest/4135463463","resource":{"resourceType":"MedicationRequest","id":"5872d798-5381-4861-addf-e916a1021d0d","meta":{"profile":["http://hl7.org/fhir/us/qicore/StructureDefinition/qicore-medicationrequest"]},"status":"active","intent":"order","medicationCodeableConcept":{"coding":[{"system":"http://www.nlm.nih.gov/research/umls/rxnorm","code":"1115257","display":"1.5 ML leuprolide acetate 30 MG/ML Prefilled Syringe","userSelected":true}]},"subject":{"reference":"Patient/b3cad3db-a17d-4eec-8852-851b438b7964"},"authoredOn":"2025-02-03T08:00:00.000+00:00","requester":{"reference":"http://myGoodHealthcare.com/fhir/Practitioner/313151"},"dosageInstruction":[{"timing":{"repeat":{"boundsPeriod":{"start":"2025-02-03T08:00:00.000+00:00","end":"2025-03-03T08:00:00.000+00:00"}}}}]},"request":{"method":"PUT","url":"MedicationRequest/5872d798-5381-4861-addf-e916a1021d0d"}},{"fullUrl":"https://madie.cms.gov/Observation/13131351","resource":{"resourceType":"Observation","id":"4b0e201b-2912-464b-acc2-a4985b20e441","meta":{"profile":["http://hl7.org/fhir/us/qicore/StructureDefinition/qicore-observationnotdone"]},"extension":[{"url":"http://hl7.org/fhir/us/qicore/StructureDefinition/qicore-notDoneReason","valueCodeableConcept":{"coding":[{"system":"http://snomed.info/sct","code":"105480006","display":"Refusal of treatment by patient (situation)","userSelected":true}]}}],"status":"cancelled","category":[{"coding":[{"system":"http://terminology.hl7.org/CodeSystem/observation-category","code":"laboratory","display":"Laboratory"}]}],"code":{"coding":[{"system":"http://loinc.org","version":"2.71","code":"38265-5","display":"DXA Radius and Ulna [T-score] Bone density","userSelected":true}]},"subject":{"reference":"Patient/b3cad3db-a17d-4eec-8852-851b438b7964"},"issued":"2025-05-03T08:00:00.000+00:00"},"request":{"method":"PUT","url":"Observation/4b0e201b-2912-464b-acc2-a4985b20e441"}},{"fullUrl":"https://madie.cms.gov/ServiceRequest/32131341","resource":{"resourceType":"ServiceRequest","id":"48e7c8f6-e76b-4954-b936-c47155f109e9","meta":{"profile":["http://hl7.org/fhir/us/qicore/StructureDefinition/qicore-servicerequest"]},"status":"active","intent":"order","code":{"coding":[{"system":"http://snomed.info/sct","code":"456381000124102","display":"Injection of leuprolide acetate for twelve month period (regime/therapy)"}]},"subject":{"reference":"Patient/b3cad3db-a17d-4eec-8852-851b438b7964"},"authoredOn":"2025-02-03T08:00:00.000+00:00"},"request":{"method":"PUT","url":"ServiceRequest/48e7c8f6-e76b-4954-b936-c47155f109e9"}},{"fullUrl":"https://madie.cms.gov/Practitioner/313151","resource":{"resourceType":"Practitioner","id":"09a74093-8022-4392-9d98-2979ca8b7882","meta":{"profile":["http://hl7.org/fhir/us/qicore/StructureDefinition/qicore-practitioner"]},"identifier":[{"use":"temp","system":"urn:oid:2.16.840.1.113883.4.336","value":"Practitioner-23"}],"active":true,"name":[{"family":"Careful","given":["Adam"],"prefix":["Dr"]}],"address":[{"use":"home","line":["534 Erewhon St"],"city":"PleasantVille","state":"UT","postalCode":"84414"}],"qualification":[{"identifier":[{"system":"http://example.org/UniversityIdentifier","value":"12345"}],"code":{"coding":[{"system":"http://terminology.hl7.org/CodeSystem/v2-0360|2.7","code":"BS","display":"Bachelor of Science"}],"text":"Bachelor of Science"},"period":{"start":"1995"},"issuer":{"display":"Example University"}}]},"request":{"method":"PUT","url":"Practitioner/09a74093-8022-4392-9d98-2979ca8b7882"}},{"fullUrl":"https://madie.cms.gov/MeasureReport/b4283ebb-f5ae-45ab-9d56-f10d8628838b","resource":{"resourceType":"MeasureReport","id":"b4283ebb-f5ae-45ab-9d56-f10d8628838b","meta":{"profile":["http://hl7.org/fhir/us/cqfmeasures/StructureDefinition/test-case-cqfm"]},"contained":[{"resourceType":"Parameters","id":"e52daebb-c888-46e4-b43c-30db99a136f0-parameters","parameter":[{"name":"subject","valueString":"b3cad3db-a17d-4eec-8852-851b438b7964"}]}],"extension":[{"url":"http://hl7.org/fhir/us/cqfmeasures/StructureDefinition/cqfm-inputParameters","valueReference":{"reference":"#e52daebb-c888-46e4-b43c-30db99a136f0-parameters"}},{"url":"http://hl7.org/fhir/us/cqfmeasures/StructureDefinition/cqfm-testCaseDescription","valueMarkdown":"Dx of Prostate Cancer. Patient refused DEXA at 3 months after ADT. Edge. Note: This will need modified when execution engine contains update for Negation"}],"modifierExtension":[{"url":"http://hl7.org/fhir/us/cqfmeasures/StructureDefinition/cqfm-isTestCase","valueBoolean":true}],"status":"complete","type":"individual","measure":"https://madie.cms.gov/Measure/BoneDensityProstateCancerAndrogenDeprivationTherapyFHIR","period":{"start":"2025-01-01","end":"2025-12-31"},"group":[{"population":[{"code":{"coding":[{"system":"http://terminology.hl7.org/CodeSystem/measure-population","code":"initial-population","display":"Initial Population"}]},"count":1},{"code":{"coding":[{"system":"http://terminology.hl7.org/CodeSystem/measure-population","code":"denominator","display":"Denominator"}]},"count":1},{"code":{"coding":[{"system":"http://terminology.hl7.org/CodeSystem/measure-population","code":"numerator","display":"Numerator"}]},"count":0},{"code":{"coding":[{"system":"http://terminology.hl7.org/CodeSystem/measure-population","code":"denominator-exception","display":"Denominator Exception"}]},"count":0}]}]},"request":{"method":"PUT","url":"MeasureReport/b4283ebb-f5ae-45ab-9d56-f10d8628838b"}}]}