{"resourceType":"Bundle","id":"tests-a1b4a442-e924-4565-a942-42ad54d2b14f-bundle","type":"transaction","entry":[{"fullUrl":"https://madie.cms.gov/Patient/a1b4a442-e924-4565-a942-42ad54d2b14f","resource":{"resourceType":"Patient","id":"a1b4a442-e924-4565-a942-42ad54d2b14f","meta":{"profile":["http://hl7.org/fhir/us/qicore/StructureDefinition/qicore-patient"]},"extension":[{"url":"http://hl7.org/fhir/us/core/StructureDefinition/us-core-race","extension":[{"url":"ombCategory","valueCoding":{"system":"urn:oid:2.16.840.1.113883.6.238","code":"1002-5","display":"American Indian or Alaska Native","userSelected":true}},{"url":"text","valueString":"American Indian or Alaska Native"}]},{"url":"http://hl7.org/fhir/us/core/StructureDefinition/us-core-ethnicity","extension":[{"url":"ombCategory","valueCoding":{"system":"urn:oid:2.16.840.1.113883.6.238","code":"2135-2","display":"Hispanic or Latino","userSelected":true}},{"url":"text","valueString":"Hispanic or Latino"}]}],"identifier":[{"type":{"coding":[{"system":"http://terminology.hl7.org/CodeSystem/v2-0203","code":"MR"}]},"system":"https://bonnie-fhir.healthit.gov","value":"62bc61713e113102f8cedc8b"}],"active":true,"name":[{"family":"DENOMPass","given":["EncounterInMPNoDexa"]}],"gender":"male","birthDate":"1951-10-10"},"request":{"method":"PUT","url":"Patient/a1b4a442-e924-4565-a942-42ad54d2b14f"}},{"fullUrl":"https://madie.cms.gov/Encounter/3adsf13adf13","resource":{"resourceType":"Encounter","id":"1c60db3b-6aa8-4e46-954d-30543d59b217","meta":{"profile":["http://hl7.org/fhir/us/qicore/StructureDefinition/qicore-encounter"]},"status":"finished","class":{"system":"http://terminology.hl7.org/CodeSystem/v3-ActCode","code":"AMB","display":"ambulatory"},"type":[{"coding":[{"system":"http://www.ama-assn.org/go/cpt","code":"99203"}]}],"subject":{"reference":"Patient/a1b4a442-e924-4565-a942-42ad54d2b14f"},"period":{"start":"2025-02-01T08:00:00+00:00","end":"2025-02-01T08:15:00+00:00"}},"request":{"method":"PUT","url":"Encounter/1c60db3b-6aa8-4e46-954d-30543d59b217"}},{"fullUrl":"https://madie.cms.gov/Condition/3a213543211","resource":{"resourceType":"Condition","id":"df93acca-746b-42b6-9965-0cbe9c3ad560","meta":{"profile":["http://hl7.org/fhir/us/qicore/StructureDefinition/qicore-condition"]},"clinicalStatus":{"coding":[{"system":"http://terminology.hl7.org/CodeSystem/condition-clinical","code":"active"}]},"verificationStatus":{"coding":[{"system":"http://terminology.hl7.org/CodeSystem/condition-ver-status","code":"confirmed"}]},"category":[{"coding":[{"system":"http://terminology.hl7.org/CodeSystem/condition-category","code":"problem-list-item","display":"Problem List Item"}]}],"code":{"coding":[{"system":"http://snomed.info/sct","version":"http://snomed.info/sct/731000124108/version/20240401","code":"254900004","display":"Carcinoma of prostate (disorder)"}]},"subject":{"reference":"Patient/a1b4a442-e924-4565-a942-42ad54d2b14f"},"onsetPeriod":{"start":"2025-03-15T08:00:00.000+00:00"}},"request":{"method":"PUT","url":"Condition/df93acca-746b-42b6-9965-0cbe9c3ad560"}},{"fullUrl":"https://madie.cms.gov/MedicationRequest/3216351asdf3","resource":{"resourceType":"MedicationRequest","id":"09a5dfad-7b89-4e3a-b808-90969a1e694f","meta":{"profile":["http://hl7.org/fhir/us/qicore/StructureDefinition/qicore-medicationrequest"]},"status":"active","intent":"order","medicationCodeableConcept":{"coding":[{"system":"http://www.nlm.nih.gov/research/umls/rxnorm","code":"1115257","display":"1.5 ML leuprolide acetate 30 MG/ML Prefilled Syringe"}]},"subject":{"reference":"Patient/a1b4a442-e924-4565-a942-42ad54d2b14f"},"authoredOn":"2025-03-15T08:00:00.000+00:00","requester":{"reference":"http://myGoodHealthcare.com/fhir/Practitioner/646346"},"dosageInstruction":[{"timing":{"repeat":{"boundsPeriod":{"start":"2025-03-15T08:00:00.000+00:00","end":"2025-04-15T08:15:00.000+00:00"}}}}]},"request":{"method":"PUT","url":"MedicationRequest/09a5dfad-7b89-4e3a-b808-90969a1e694f"}},{"fullUrl":"https://madie.cms.gov/ServiceRequest/13213517454","resource":{"resourceType":"ServiceRequest","id":"34e1dc74-bcc9-43a2-b6b7-e2326c90aca7","meta":{"profile":["http://hl7.org/fhir/us/qicore/StructureDefinition/qicore-servicerequest"]},"status":"active","intent":"order","code":{"coding":[{"system":"http://snomed.info/sct","code":"456381000124102","display":"Injection of leuprolide acetate for twelve month period (regime/therapy)"}]},"subject":{"reference":"Patient/a1b4a442-e924-4565-a942-42ad54d2b14f"},"authoredOn":"2025-03-15T08:00:00.000+00:00"},"request":{"method":"PUT","url":"ServiceRequest/34e1dc74-bcc9-43a2-b6b7-e2326c90aca7"}},{"fullUrl":"https://madie.cms.gov/Practitioner/646346","resource":{"resourceType":"Practitioner","id":"a9f270da-7109-49a8-a67d-7d4523885f42","meta":{"profile":["http://hl7.org/fhir/us/qicore/StructureDefinition/qicore-practitioner"]},"identifier":[{"use":"temp","system":"urn:oid:2.16.840.1.113883.4.336","value":"Practitioner-23"}],"active":true,"name":[{"family":"Careful","given":["Adam"],"prefix":["Dr"]}],"address":[{"use":"home","line":["534 Erewhon St"],"city":"PleasantVille","state":"UT","postalCode":"84414"}],"qualification":[{"identifier":[{"system":"http://example.org/UniversityIdentifier","value":"12345"}],"code":{"coding":[{"system":"http://terminology.hl7.org/CodeSystem/v2-0360|2.7","code":"BS","display":"Bachelor of Science"}],"text":"Bachelor of Science"},"period":{"start":"1995"},"issuer":{"display":"Example University"}}]},"request":{"method":"PUT","url":"Practitioner/a9f270da-7109-49a8-a67d-7d4523885f42"}},{"fullUrl":"https://madie.cms.gov/MeasureReport/108cd49d-1a37-4079-a1e9-4d226828170c","resource":{"resourceType":"MeasureReport","id":"108cd49d-1a37-4079-a1e9-4d226828170c","meta":{"profile":["http://hl7.org/fhir/us/cqfmeasures/StructureDefinition/test-case-cqfm"]},"contained":[{"resourceType":"Parameters","id":"0a196013-6edb-4244-8df3-f0f039827a8b-parameters","parameter":[{"name":"subject","valueString":"a1b4a442-e924-4565-a942-42ad54d2b14f"}]}],"extension":[{"url":"http://hl7.org/fhir/us/cqfmeasures/StructureDefinition/cqfm-inputParameters","valueReference":{"reference":"#0a196013-6edb-4244-8df3-f0f039827a8b-parameters"}},{"url":"http://hl7.org/fhir/us/cqfmeasures/StructureDefinition/cqfm-testCaseDescription","valueMarkdown":"Male patient with prostate cancer.  ADT in MP, but no Dexa. Should pass IPP and DENOM. "}],"modifierExtension":[{"url":"http://hl7.org/fhir/us/cqfmeasures/StructureDefinition/cqfm-isTestCase","valueBoolean":true}],"status":"complete","type":"individual","measure":"https://madie.cms.gov/Measure/BoneDensityProstateCancerAndrogenDeprivationTherapyFHIR","period":{"start":"2025-01-01","end":"2025-12-31"},"group":[{"population":[{"code":{"coding":[{"system":"http://terminology.hl7.org/CodeSystem/measure-population","code":"initial-population","display":"Initial Population"}]},"count":1},{"code":{"coding":[{"system":"http://terminology.hl7.org/CodeSystem/measure-population","code":"denominator","display":"Denominator"}]},"count":1},{"code":{"coding":[{"system":"http://terminology.hl7.org/CodeSystem/measure-population","code":"numerator","display":"Numerator"}]},"count":0},{"code":{"coding":[{"system":"http://terminology.hl7.org/CodeSystem/measure-population","code":"denominator-exception","display":"Denominator Exception"}]},"count":0}]}]},"request":{"method":"PUT","url":"MeasureReport/108cd49d-1a37-4079-a1e9-4d226828170c"}}]}