{
  "resourceType": "Bundle",
  "id": "6464613468133615",
  "type": "transaction",
  "entry": [ {
    "fullUrl": "https://madie.cms.gov/Patient/06e9249d-bd74-4cce-a809-b02892b19a5f",
    "resource": {
      "resourceType": "Patient",
      "id": "06e9249d-bd74-4cce-a809-b02892b19a5f",
      "meta": {
        "profile": [ "http://hl7.org/fhir/us/qicore/StructureDefinition/qicore-patient" ]
      },
      "extension": [ {
        "url": "http://hl7.org/fhir/us/core/StructureDefinition/us-core-race",
        "extension": [ {
          "url": "ombCategory",
          "valueCoding": {
            "system": "urn:oid:2.16.840.1.113883.6.238",
            "code": "2076-8",
            "display": "Native Hawaiian or Other Pacific Islander"
          }
        }, {
          "url": "text",
          "valueString": "Native Hawaiian or Other Pacific Islander"
        } ]
      }, {
        "url": "http://hl7.org/fhir/us/core/StructureDefinition/us-core-ethnicity",
        "extension": [ {
          "url": "ombCategory",
          "valueCoding": {
            "system": "urn:oid:2.16.840.1.113883.6.238",
            "code": "2186-5",
            "display": "Not Hispanic or Latino"
          }
        }, {
          "url": "text",
          "valueString": "Not Hispanic or Latino"
        } ]
      } ],
      "identifier": [ {
        "type": {
          "coding": [ {
            "system": "http://terminology.hl7.org/CodeSystem/v2-0203",
            "code": "MR"
          } ]
        },
        "system": "https://bonnie-fhir.healthit.gov/",
        "value": "498431661361361"
      } ],
      "active": true,
      "name": [ {
        "use": "usual",
        "family": "DENEXPass",
        "given": [ "LVDeviceComplicationsRecordedDate" ]
      } ],
      "gender": "male",
      "birthDate": "1974-02-10"
    },
    "request": {
      "method": "POST",
      "url": "Patient/06e9249d-bd74-4cce-a809-b02892b19a5f"
    }
  }, {
    "fullUrl": "https://madie.cms.gov/Encounter/54654gf6515316C3516132",
    "resource": {
      "resourceType": "Encounter",
      "id": "54654gf6515316C3516132",
      "meta": {
        "profile": [ "http://hl7.org/fhir/us/qicore/StructureDefinition/qicore-encounter" ]
      },
      "status": "finished",
      "class": {
        "system": "http://terminology.hl7.org/CodeSystem/v3-ActCode",
        "code": "AMB",
        "display": "ambulatory"
      },
      "type": [ {
        "coding": [ {
          "system": "http://www.ama-assn.org/go/cpt",
          "version": "2024",
          "code": "99213"
        } ]
      } ],
      "subject": {
        "reference": "Patient/06e9249d-bd74-4cce-a809-b02892b19a5f"
      },
      "period": {
        "start": "2025-04-14T14:40:00.000+00:00",
        "end": "2025-04-14T14:50:00.000+00:00"
      },
      "length": {
        "value": 0,
        "unit": "days"
      }
    },
    "request": {
      "method": "POST",
      "url": "Encounter/54654gf6515316C3516132"
    }
  }, {
    "fullUrl": "https://madie.cms.gov/Condition/3b945ae6b502462de0ab123e",
    "resource": {
      "resourceType": "Condition",
      "id": "3b945ae6b502462de0ab123e",
      "meta": {
        "profile": [ "http://hl7.org/fhir/us/qicore/StructureDefinition/qicore-condition" ]
      },
      "clinicalStatus": {
        "coding": [ {
          "system": "http://terminology.hl7.org/CodeSystem/condition-clinical",
          "code": "active",
          "display": "Active"
        } ]
      },
      "verificationStatus": {
        "coding": [ {
          "system": "http://terminology.hl7.org/CodeSystem/condition-ver-status",
          "code": "confirmed",
          "display": "Confirmed"
        } ]
      },
      "category": [ {
        "coding": [ {
          "system": "http://terminology.hl7.org/CodeSystem/condition-category",
          "code": "problem-list-item",
          "display": "Problem List Item"
        } ]
      } ],
      "code": {
        "coding": [ {
          "system": "http://snomed.info/sct",
          "version": "http://snomed.info/sct/731000124108/version/20240301",
          "code": "764680009",
          "display": "Infection of left ventricular assist device driveline (disorder)"
        } ]
      },
      "subject": {
        "reference": "Patient/06e9249d-bd74-4cce-a809-b02892b19a5f"
      },
      "recordedDate": "2024-07-11T08:00:00+00:00"
    },
    "request": {
      "method": "POST",
      "url": "Condition/3b945ae6b502462de0ab123e"
    }
  }, {
    "fullUrl": "https://madie.cms.gov/Encounter/64adf6516541651d35146",
    "resource": {
      "resourceType": "Encounter",
      "id": "64adf6516541651d35146",
      "meta": {
        "profile": [ "http://hl7.org/fhir/us/qicore/StructureDefinition/qicore-encounter" ]
      },
      "status": "finished",
      "class": {
        "system": "http://terminology.hl7.org/CodeSystem/v3-ActCode",
        "code": "AMB",
        "display": "ambulatory"
      },
      "type": [ {
        "coding": [ {
          "system": "http://www.ama-assn.org/go/cpt",
          "version": "2024",
          "code": "99212"
        } ]
      } ],
      "subject": {
        "reference": "Patient/06e9249d-bd74-4cce-a809-b02892b19a5f"
      },
      "period": {
        "start": "2025-07-20T11:50:00+00:00",
        "end": "2025-07-20T11:50:00+00:00"
      },
      "length": {
        "value": 0,
        "unit": "days"
      }
    },
    "request": {
      "method": "POST",
      "url": "Encounter/64adf6516541651d35146"
    }
  }, {
    "fullUrl": "https://madie.cms.gov/Condition/684adf65416816351d331",
    "resource": {
      "resourceType": "Condition",
      "id": "684adf65416816351d331",
      "meta": {
        "profile": [ "http://hl7.org/fhir/us/qicore/StructureDefinition/qicore-condition" ]
      },
      "clinicalStatus": {
        "coding": [ {
          "system": "http://terminology.hl7.org/CodeSystem/condition-clinical",
          "code": "active",
          "display": "Active"
        } ]
      },
      "verificationStatus": {
        "coding": [ {
          "system": "http://terminology.hl7.org/CodeSystem/condition-ver-status",
          "code": "confirmed",
          "display": "Confirmed"
        } ]
      },
      "category": [ {
        "coding": [ {
          "system": "http://terminology.hl7.org/CodeSystem/condition-category",
          "code": "problem-list-item",
          "display": "Problem List Item"
        } ]
      } ],
      "code": {
        "coding": [ {
          "system": "http://hl7.org/fhir/sid/icd-10-cm",
          "version": "2024",
          "code": "I11.0"
        } ]
      },
      "subject": {
        "reference": "Patient/06e9249d-bd74-4cce-a809-b02892b19a5f"
      },
      "onsetPeriod": {
        "start": "2025-04-11T10:00:00+00:00"
      }
    },
    "request": {
      "method": "POST",
      "url": "Condition/684adf65416816351d331"
    }
  }, {
    "fullUrl": "https://madie.cms.gov/Condition/1654a6f51654dsa3513546f",
    "resource": {
      "resourceType": "Condition",
      "id": "1654a6f51654dsa3513546f",
      "meta": {
        "profile": [ "http://hl7.org/fhir/us/qicore/StructureDefinition/qicore-condition" ]
      },
      "clinicalStatus": {
        "coding": [ {
          "system": "http://terminology.hl7.org/CodeSystem/condition-clinical",
          "code": "active",
          "display": "Active"
        } ]
      },
      "verificationStatus": {
        "coding": [ {
          "system": "http://terminology.hl7.org/CodeSystem/condition-ver-status",
          "code": "confirmed",
          "display": "Confirmed"
        } ]
      },
      "category": [ {
        "coding": [ {
          "system": "http://terminology.hl7.org/CodeSystem/condition-category",
          "code": "problem-list-item",
          "display": "Problem List Item"
        } ]
      } ],
      "severity": {
        "coding": [ {
          "system": "http://snomed.info/sct",
          "version": "http://snomed.info/sct/731000124108/version/20240301",
          "code": "24484000",
          "display": "Severe (severity modifier) (qualifier value)"
        } ]
      },
      "code": {
        "coding": [ {
          "system": "http://snomed.info/sct",
          "version": "http://snomed.info/sct/731000124108/version/20240301",
          "code": "134401001",
          "display": "Left ventricular systolic dysfunction (disorder)"
        } ]
      },
      "subject": {
        "reference": "Patient/06e9249d-bd74-4cce-a809-b02892b19a5f"
      },
      "onsetPeriod": {
        "start": "2025-04-14T14:41:00.000+00:00"
      }
    },
    "request": {
      "method": "POST",
      "url": "Condition/1654a6f51654dsa3513546f"
    }
  }, {
    "fullUrl": "https://madie.cms.gov/MeasureReport/c0030104-5478-4e53-9da2-f90e3bdf7be2",
    "resource": {
      "resourceType": "MeasureReport",
      "id": "c0030104-5478-4e53-9da2-f90e3bdf7be2",
      "meta": {
        "profile": [ "http://hl7.org/fhir/us/cqfmeasures/StructureDefinition/test-case-cqfm" ]
      },
      "contained": [ {
        "resourceType": "Parameters",
        "id": "669703be-197a-4349-b093-1cd759dcfb3c-parameters",
        "parameter": [ {
          "name": "subject",
          "valueString": "06e9249d-bd74-4cce-a809-b02892b19a5f"
        } ]
      } ],
      "extension": [ {
        "url": "http://hl7.org/fhir/us/cqfmeasures/StructureDefinition/cqfm-inputParameters",
        "valueReference": {
          "reference": "#669703be-197a-4349-b093-1cd759dcfb3c-parameters"
        }
      }, {
        "url": "http://hl7.org/fhir/us/cqfmeasures/StructureDefinition/cqfm-testCaseDescription",
        "valueMarkdown": "Meeting denominator exclusions for active history of Left Ventricular Device Complication based on recordedDate"
      } ],
      "modifierExtension": [ {
        "url": "http://hl7.org/fhir/us/cqfmeasures/StructureDefinition/cqfm-isTestCase",
        "valueBoolean": true
      } ],
      "status": "complete",
      "type": "individual",
      "measure": "https://madie.cms.gov/Measure/HFBetaBlockerTherapyforLVSDFHIR",
      "period": {
        "start": "2025-01-01",
        "end": "2025-12-31"
      },
      "group": [ {
        "population": [ {
          "code": {
            "coding": [ {
              "system": "http://terminology.hl7.org/CodeSystem/measure-population",
              "code": "initial-population",
              "display": "Initial Population"
            } ]
          },
          "count": 1
        }, {
          "code": {
            "coding": [ {
              "system": "http://terminology.hl7.org/CodeSystem/measure-population",
              "code": "denominator",
              "display": "Denominator"
            } ]
          },
          "count": 1
        }, {
          "code": {
            "coding": [ {
              "system": "http://terminology.hl7.org/CodeSystem/measure-population",
              "code": "denominator-exclusion",
              "display": "Denominator Exclusion"
            } ]
          },
          "count": 1
        }, {
          "code": {
            "coding": [ {
              "system": "http://terminology.hl7.org/CodeSystem/measure-population",
              "code": "numerator",
              "display": "Numerator"
            } ]
          },
          "count": 0
        }, {
          "code": {
            "coding": [ {
              "system": "http://terminology.hl7.org/CodeSystem/measure-population",
              "code": "denominator-exception",
              "display": "Denominator Exception"
            } ]
          },
          "count": 0
        } ]
      } ],
      "evaluatedResource": [ {
        "reference": "https://madie.cms.gov/Patient/06e9249d-bd74-4cce-a809-b02892b19a5f"
      }, {
        "reference": "https://madie.cms.gov/Encounter/54654gf6515316C3516132"
      }, {
        "reference": "https://madie.cms.gov/Condition/3b945ae6b502462de0ab123e"
      }, {
        "reference": "https://madie.cms.gov/Encounter/64adf6516541651d35146"
      }, {
        "reference": "https://madie.cms.gov/Condition/684adf65416816351d331"
      }, {
        "reference": "https://madie.cms.gov/Condition/1654a6f51654dsa3513546f"
      } ]
    },
    "request": {
      "method": "POST",
      "url": "MeasureReport/c0030104-5478-4e53-9da2-f90e3bdf7be2"
    }
  } ]
}