{
  "resourceType": "Bundle",
  "id": "630307cf0968f8012247895d",
  "type": "transaction",
  "entry": [ {
    "fullUrl": "https://madie.cms.gov/Patient/3900270d-e047-4ecf-9b26-7bac7625b328",
    "resource": {
      "resourceType": "Patient",
      "id": "3900270d-e047-4ecf-9b26-7bac7625b328",
      "meta": {
        "profile": [ "http://hl7.org/fhir/us/qicore/StructureDefinition/qicore-patient" ]
      },
      "extension": [ {
        "url": "http://hl7.org/fhir/us/core/StructureDefinition/us-core-race",
        "extension": [ {
          "url": "ombCategory",
          "valueCoding": {
            "system": "urn:oid:2.16.840.1.113883.6.238",
            "code": "2106-3",
            "display": "White"
          }
        }, {
          "url": "text",
          "valueString": "White"
        } ]
      }, {
        "url": "http://hl7.org/fhir/us/core/StructureDefinition/us-core-ethnicity",
        "extension": [ {
          "url": "ombCategory",
          "valueCoding": {
            "system": "urn:oid:2.16.840.1.113883.6.238",
            "code": "2186-5",
            "display": "Not Hispanic or Latino"
          }
        }, {
          "url": "text",
          "valueString": "Not Hispanic or Latino"
        } ]
      } ],
      "identifier": [ {
        "type": {
          "coding": [ {
            "system": "http://terminology.hl7.org/CodeSystem/v2-0203",
            "code": "MR"
          } ]
        },
        "system": "https://bonnie-fhir.healthit.gov/",
        "value": "6546841651641616513421"
      } ],
      "name": [ {
        "family": "DENEXPopStrat1Pass",
        "given": [ "Patientis17" ]
      } ],
      "gender": "female",
      "birthDate": "2007-01-01"
    },
    "request": {
      "method": "POST",
      "url": "Patient/3900270d-e047-4ecf-9b26-7bac7625b328"
    }
  }, {
    "fullUrl": "https://madie.cms.gov/Encounter/846816468613163156",
    "resource": {
      "resourceType": "Encounter",
      "id": "846816468613163156",
      "meta": {
        "profile": [ "http://hl7.org/fhir/us/qicore/StructureDefinition/qicore-encounter" ]
      },
      "status": "finished",
      "class": {
        "system": "http://terminology.hl7.org/CodeSystem/v3-ActCode",
        "code": "AMB",
        "display": "ambulatory"
      },
      "type": [ {
        "coding": [ {
          "system": "http://www.ama-assn.org/go/cpt",
          "version": "2024",
          "code": "90791",
          "display": "An integrated biopsychosocial assessment, including history, mental status, and recommendations"
        } ]
      } ],
      "subject": {
        "reference": "Patient/3900270d-e047-4ecf-9b26-7bac7625b328"
      },
      "period": {
        "start": "2024-02-25T14:30:00+00:00",
        "end": "2024-02-25T14:50:00+00:00"
      }
    },
    "request": {
      "method": "POST",
      "url": "Encounter/846816468613163156"
    }
  }, {
    "fullUrl": "https://madie.cms.gov/Condition/3514561321351351",
    "resource": {
      "resourceType": "Condition",
      "id": "3514561321351351",
      "meta": {
        "profile": [ "http://hl7.org/fhir/us/qicore/StructureDefinition/qicore-condition" ]
      },
      "clinicalStatus": {
        "coding": [ {
          "system": "http://terminology.hl7.org/CodeSystem/condition-clinical",
          "code": "active"
        } ]
      },
      "verificationStatus": {
        "coding": [ {
          "system": "http://terminology.hl7.org/CodeSystem/condition-ver-status",
          "code": "confirmed"
        } ]
      },
      "category": [ {
        "coding": [ {
          "system": "http://terminology.hl7.org/CodeSystem/condition-category",
          "code": "problem-list-item",
          "display": "Problem List Item"
        } ]
      } ],
      "code": {
        "coding": [ {
          "system": "http://snomed.info/sct",
          "version": "http://snomed.info/sct/731000124108/version/20230901",
          "code": "15193003",
          "display": "Severe recurrent major depression with psychotic features, mood-incongruent (disorder)"
        } ],
        "text": "Severe recurrent major depression with psychotic features, mood-incongruent (disorder)"
      },
      "subject": {
        "reference": "Patient/3900270d-e047-4ecf-9b26-7bac7625b328"
      },
      "onsetDateTime": "2023-05-24T00:00:00+00:00",
      "recordedDate": "2023-05-24T00:00:00+00:00"
    },
    "request": {
      "method": "POST",
      "url": "Condition/3514561321351351"
    }
  }, {
    "fullUrl": "https://madie.cms.gov/Observation/98778613516461352131315",
    "resource": {
      "resourceType": "Observation",
      "id": "98778613516461352131315",
      "meta": {
        "profile": [ "http://hl7.org/fhir/us/qicore/StructureDefinition/qicore-observation" ]
      },
      "status": "final",
      "category": [ {
        "coding": [ {
          "system": "http://terminology.hl7.org/CodeSystem/observation-category",
          "code": "survey",
          "display": "Survey"
        } ]
      } ],
      "code": {
        "coding": [ {
          "system": "http://loinc.org",
          "version": "2.76",
          "code": "44261-6"
        } ]
      },
      "subject": {
        "reference": "Patient/3900270d-e047-4ecf-9b26-7bac7625b328"
      },
      "effectiveDateTime": "2024-02-25T14:35:00+00:00",
      "valueInteger": 10
    },
    "request": {
      "method": "POST",
      "url": "Observation/98778613516461352131315"
    }
  }, {
    "fullUrl": "https://madie.cms.gov/MeasureReport/338246cb-b22c-44a7-b075-2cee8cbddfa6",
    "resource": {
      "resourceType": "MeasureReport",
      "id": "338246cb-b22c-44a7-b075-2cee8cbddfa6",
      "meta": {
        "profile": [ "http://hl7.org/fhir/us/cqfmeasures/StructureDefinition/test-case-cqfm" ]
      },
      "contained": [ {
        "resourceType": "Parameters",
        "id": "e24f3c55-8b69-4099-ace4-7c0a687b2bac-parameters",
        "parameter": [ {
          "name": "subject",
          "valueString": "3900270d-e047-4ecf-9b26-7bac7625b328"
        } ]
      } ],
      "extension": [ {
        "url": "http://hl7.org/fhir/us/cqfmeasures/StructureDefinition/cqfm-inputParameters",
        "valueReference": {
          "reference": "#e24f3c55-8b69-4099-ace4-7c0a687b2bac-parameters"
        }
      }, {
        "url": "http://hl7.org/fhir/us/cqfmeasures/StructureDefinition/cqfm-testCaseDescription",
        "valueMarkdown": "Patient is 17 years old (edge case of stratification 1). Passes IP for strat 1, fails IP for strat 2. Note: Stratification issue; see Guidance."
      } ],
      "modifierExtension": [ {
        "url": "http://hl7.org/fhir/us/cqfmeasures/StructureDefinition/cqfm-isTestCase",
        "valueBoolean": true
      } ],
      "status": "complete",
      "type": "individual",
      "measure": "https://madie.cms.gov/Measure/DepressionRemissionatTwelveMonthsFHIR",
      "period": {
        "start": "2025-01-01",
        "end": "2025-12-31"
      },
      "group": [ {
        "population": [ {
          "code": {
            "coding": [ {
              "system": "http://terminology.hl7.org/CodeSystem/measure-population",
              "code": "initial-population",
              "display": "Initial Population"
            } ]
          },
          "count": 1
        }, {
          "code": {
            "coding": [ {
              "system": "http://terminology.hl7.org/CodeSystem/measure-population",
              "code": "denominator",
              "display": "Denominator"
            } ]
          },
          "count": 1
        }, {
          "code": {
            "coding": [ {
              "system": "http://terminology.hl7.org/CodeSystem/measure-population",
              "code": "denominator-exclusion",
              "display": "Denominator Exclusion"
            } ]
          },
          "count": 0
        }, {
          "code": {
            "coding": [ {
              "system": "http://terminology.hl7.org/CodeSystem/measure-population",
              "code": "numerator",
              "display": "Numerator"
            } ]
          },
          "count": 0
        } ]
      } ],
      "evaluatedResource": [ {
        "reference": "https://madie.cms.gov/Patient/3900270d-e047-4ecf-9b26-7bac7625b328"
      }, {
        "reference": "https://madie.cms.gov/Encounter/846816468613163156"
      }, {
        "reference": "https://madie.cms.gov/Condition/3514561321351351"
      }, {
        "reference": "https://madie.cms.gov/Observation/98778613516461352131315"
      } ]
    },
    "request": {
      "method": "POST",
      "url": "MeasureReport/338246cb-b22c-44a7-b075-2cee8cbddfa6"
    }
  } ]
}