{
  "resourceType": "Bundle",
  "id": "649f3dcc585d003d2ac643cd",
  "type": "transaction",
  "entry": [ {
    "fullUrl": "https://madie.cms.gov/Patient/b7cb0363-3581-4627-a684-a4a1e2f34f42",
    "resource": {
      "resourceType": "Patient",
      "id": "b7cb0363-3581-4627-a684-a4a1e2f34f42",
      "meta": {
        "profile": [ "http://hl7.org/fhir/us/qicore/StructureDefinition/qicore-patient" ]
      },
      "extension": [ {
        "url": "http://hl7.org/fhir/us/core/StructureDefinition/us-core-race",
        "extension": [ {
          "url": "ombCategory",
          "valueCoding": {
            "system": "urn:oid:2.16.840.1.113883.6.238",
            "code": "2054-5",
            "display": "Black or African American",
            "userSelected": true
          }
        }, {
          "url": "text",
          "valueString": "Black or African American"
        } ]
      }, {
        "url": "http://hl7.org/fhir/us/core/StructureDefinition/us-core-ethnicity",
        "extension": [ {
          "url": "ombCategory",
          "valueCoding": {
            "system": "urn:oid:2.16.840.1.113883.6.238",
            "code": "2186-5",
            "display": "Not Hispanic or Latino",
            "userSelected": true
          }
        }, {
          "url": "text",
          "valueString": "Not Hispanic or Latino"
        } ]
      } ],
      "identifier": [ {
        "type": {
          "coding": [ {
            "system": "http://terminology.hl7.org/CodeSystem/v2-0203",
            "code": "MR"
          } ]
        },
        "system": "https://bonnie-fhir.healthit.gov/",
        "value": "649f3dcc585d003d2ac643cd"
      } ],
      "name": [ {
        "family": "NUMFail",
        "given": [ "3LabAfterMP" ]
      } ],
      "gender": "female",
      "birthDate": "2000-02-04"
    },
    "request": {
      "method": "POST",
      "url": "Patient/b7cb0363-3581-4627-a684-a4a1e2f34f42"
    }
  }, {
    "fullUrl": "https://madie.cms.gov/Condition/hiv-43ce",
    "resource": {
      "resourceType": "Condition",
      "id": "hiv-43ce",
      "meta": {
        "profile": [ "http://hl7.org/fhir/us/qicore/StructureDefinition/qicore-condition" ]
      },
      "clinicalStatus": {
        "coding": [ {
          "system": "http://terminology.hl7.org/CodeSystem/condition-clinical",
          "code": "active",
          "display": "active",
          "userSelected": true
        } ]
      },
      "category": [ {
        "coding": [ {
          "system": "http://terminology.hl7.org/CodeSystem/condition-category",
          "code": "problem-list-item",
          "display": "Problem List Item"
        } ]
      } ],
      "code": {
        "coding": [ {
          "system": "http://hl7.org/fhir/sid/icd-9-cm",
          "version": "2013",
          "code": "042",
          "display": "Human immunodeficiency virus [HIV] disease",
          "userSelected": true
        }, {
          "system": "http://snomed.info/sct",
          "code": "165816005",
          "userSelected": true
        } ]
      },
      "subject": {
        "reference": "Patient/b7cb0363-3581-4627-a684-a4a1e2f34f42"
      },
      "onsetDateTime": "2017-09-28T08:00:00.000+00:00",
      "recordedDate": "2017-09-28T08:00:00.000+00:00"
    },
    "request": {
      "method": "POST",
      "url": "Condition/hiv-43ce"
    }
  }, {
    "fullUrl": "https://madie.cms.gov/Encounter/preventive-care-services-initial-office-visit-0-to-17-43cf",
    "resource": {
      "resourceType": "Encounter",
      "id": "preventive-care-services-initial-office-visit-0-to-17-43cf",
      "meta": {
        "profile": [ "http://hl7.org/fhir/us/qicore/StructureDefinition/qicore-encounter" ]
      },
      "status": "finished",
      "class": {
        "system": "http://terminology.hl7.org/CodeSystem/v3-ActCode",
        "code": "AMB",
        "display": "ambulatory"
      },
      "type": [ {
        "coding": [ {
          "system": "http://www.ama-assn.org/go/cpt",
          "version": "2023",
          "code": "99381",
          "display": "Initial comprehensive preventive medicine evaluation and management of an individual including an age and gender appropriate history, examination, counseling/anticipatory guidance/risk factor reduction interventions, and the ordering of laboratory/diagnostic procedures, new patient; infant (age younger than 1 year)",
          "userSelected": true
        } ]
      } ],
      "subject": {
        "reference": "Patient/b7cb0363-3581-4627-a684-a4a1e2f34f42"
      },
      "period": {
        "start": "2025-09-28T08:00:00.000+00:00",
        "end": "2025-09-28T08:30:00.000+00:00"
      }
    },
    "request": {
      "method": "POST",
      "url": "Encounter/preventive-care-services-initial-office-visit-0-to-17-43cf"
    }
  }, {
    "fullUrl": "https://madie.cms.gov/Observation/syphilis-tests-43d0",
    "resource": {
      "resourceType": "Observation",
      "id": "syphilis-tests-43d0",
      "meta": {
        "profile": [ "http://hl7.org/fhir/us/qicore/StructureDefinition/qicore-observation" ]
      },
      "status": "final",
      "category": [ {
        "coding": [ {
          "system": "http://terminology.hl7.org/CodeSystem/observation-category"
        } ]
      } ],
      "code": {
        "coding": [ {
          "system": "http://loinc.org",
          "version": "2.73",
          "code": "11084-1",
          "display": "Reagin Ab [Titer] in Serum",
          "userSelected": true
        } ]
      },
      "subject": {
        "reference": "Patient/b7cb0363-3581-4627-a684-a4a1e2f34f42"
      },
      "effectiveDateTime": "2026-10-31T08:16:00.000+00:00",
      "issued": "2026-10-31T08:16:00.000+00:00",
      "valueQuantity": {
        "value": 18.0
      }
    },
    "request": {
      "method": "POST",
      "url": "Observation/syphilis-tests-43d0"
    }
  }, {
    "fullUrl": "https://madie.cms.gov/Observation/gonorrhea-screening-43d1",
    "resource": {
      "resourceType": "Observation",
      "id": "gonorrhea-screening-43d1",
      "meta": {
        "profile": [ "http://hl7.org/fhir/us/qicore/StructureDefinition/qicore-observation" ]
      },
      "status": "final",
      "category": [ {
        "coding": [ {
          "system": "http://terminology.hl7.org/CodeSystem/observation-category"
        } ]
      } ],
      "code": {
        "coding": [ {
          "system": "http://loinc.org",
          "version": "2.73",
          "code": "21414-8",
          "display": "Neisseria gonorrhoeae DNA [Presence] in Cervical mucus by NAA with probe detection",
          "userSelected": true
        } ]
      },
      "subject": {
        "reference": "Patient/b7cb0363-3581-4627-a684-a4a1e2f34f42"
      },
      "effectiveDateTime": "2026-01-31T08:00:00.000+00:00",
      "issued": "2026-01-31T08:00:00.000+00:00",
      "valueQuantity": {
        "value": 18.0
      }
    },
    "request": {
      "method": "POST",
      "url": "Observation/gonorrhea-screening-43d1"
    }
  }, {
    "fullUrl": "https://madie.cms.gov/Observation/chlamydia-screening-43d2",
    "resource": {
      "resourceType": "Observation",
      "id": "chlamydia-screening-43d2",
      "meta": {
        "profile": [ "http://hl7.org/fhir/us/qicore/StructureDefinition/qicore-observation" ]
      },
      "status": "final",
      "category": [ {
        "coding": [ {
          "system": "http://terminology.hl7.org/CodeSystem/observation-category"
        } ]
      } ],
      "code": {
        "coding": [ {
          "system": "http://loinc.org",
          "version": "2.73",
          "code": "14463-4",
          "display": "Chlamydia trachomatis [Presence] in Cervix by Organism specific culture",
          "userSelected": true
        } ]
      },
      "subject": {
        "reference": "Patient/b7cb0363-3581-4627-a684-a4a1e2f34f42"
      },
      "effectivePeriod": {
        "start": "2026-10-31T08:16:00.000+00:00",
        "end": "2026-10-31T08:17:00.000+00:00"
      },
      "issued": "2025-10-31T08:16:00.000+00:00",
      "valueQuantity": {
        "value": 18.0
      }
    },
    "request": {
      "method": "POST",
      "url": "Observation/chlamydia-screening-43d2"
    }
  }, {
    "fullUrl": "https://madie.cms.gov/Coverage/1",
    "resource": {
      "resourceType": "Coverage",
      "id": "1",
      "meta": {
        "profile": [ "http://hl7.org/fhir/us/qicore/StructureDefinition/qicore-coverage" ]
      },
      "status": "active",
      "beneficiary": {
        "reference": "Patient/b7cb0363-3581-4627-a684-a4a1e2f34f42"
      },
      "payor": [ {
        "reference": "Organization/123456"
      } ]
    },
    "request": {
      "method": "POST",
      "url": "Coverage/1"
    }
  }, {
    "fullUrl": "https://madie.cms.gov/Organization/123456",
    "resource": {
      "resourceType": "Organization",
      "id": "123456",
      "meta": {
        "profile": [ "http://hl7.org/fhir/us/qicore/StructureDefinition/qicore-organization" ]
      },
      "identifier": [ {
        "use": "temp",
        "system": "urn:oid:2.16.840.1.113883.4.4",
        "value": "21-3259825"
      } ],
      "active": true,
      "type": [ {
        "coding": [ {
          "system": "http://terminology.hl7.org/CodeSystem/organization-type",
          "code": "pay",
          "display": "Payer"
        } ]
      } ],
      "name": "Blue Cross Blue Shield of Texas",
      "telecom": [ {
        "system": "phone",
        "value": "(+1) 972-766-6900"
      } ],
      "address": [ {
        "use": "billing",
        "type": "postal",
        "line": [ "P.O. Box 660044" ],
        "city": "Dallas",
        "state": "TX",
        "postalCode": "75266-0044",
        "country": "USA"
      } ]
    },
    "request": {
      "method": "POST",
      "url": "Organization/123456"
    }
  }, {
    "fullUrl": "https://madie.cms.gov/Practitioner/practitioner-123456",
    "resource": {
      "resourceType": "Practitioner",
      "id": "practitioner-123456",
      "meta": {
        "profile": [ "http://hl7.org/fhir/us/qicore/StructureDefinition/qicore-practitioner" ]
      },
      "identifier": [ {
        "system": "http://hl7.org/fhir/sid/us-npi",
        "value": "123456"
      } ],
      "name": [ {
        "family": "Evil",
        "prefix": [ "Dr" ]
      } ]
    },
    "request": {
      "method": "POST",
      "url": "Practitioner/practitioner-123456"
    }
  }, {
    "fullUrl": "https://madie.cms.gov/MeasureReport/4c6fc621-ccd3-4cee-909a-7fd0fc0d1712",
    "resource": {
      "resourceType": "MeasureReport",
      "id": "4c6fc621-ccd3-4cee-909a-7fd0fc0d1712",
      "meta": {
        "profile": [ "http://hl7.org/fhir/us/cqfmeasures/StructureDefinition/test-case-cqfm" ]
      },
      "contained": [ {
        "resourceType": "Parameters",
        "id": "0b9c3ca4-15c4-4ff3-abb2-ffdd045a4911-parameters",
        "parameter": [ {
          "name": "subject",
          "valueString": "b7cb0363-3581-4627-a684-a4a1e2f34f42"
        } ]
      } ],
      "extension": [ {
        "url": "http://hl7.org/fhir/us/cqfmeasures/StructureDefinition/cqfm-inputParameters",
        "valueReference": {
          "reference": "#0b9c3ca4-15c4-4ff3-abb2-ffdd045a4911-parameters"
        }
      }, {
        "url": "http://hl7.org/fhir/us/cqfmeasures/StructureDefinition/cqfm-testCaseDescription",
        "valueMarkdown": "Patient is over 13 years old with an encounter - 3 STI screen after MP, 0 STI screen during MP"
      } ],
      "modifierExtension": [ {
        "url": "http://hl7.org/fhir/us/cqfmeasures/StructureDefinition/cqfm-isTestCase",
        "valueBoolean": true
      } ],
      "status": "complete",
      "type": "individual",
      "measure": "https://madie.cms.gov/Measure/HIVSTITestingFHIR",
      "period": {
        "start": "2025-01-01",
        "end": "2025-12-31"
      },
      "group": [ {
        "population": [ {
          "code": {
            "coding": [ {
              "system": "http://terminology.hl7.org/CodeSystem/measure-population",
              "code": "initial-population",
              "display": "Initial Population"
            } ]
          },
          "count": 1
        }, {
          "code": {
            "coding": [ {
              "system": "http://terminology.hl7.org/CodeSystem/measure-population",
              "code": "denominator",
              "display": "Denominator"
            } ]
          },
          "count": 1
        }, {
          "code": {
            "coding": [ {
              "system": "http://terminology.hl7.org/CodeSystem/measure-population",
              "code": "numerator",
              "display": "Numerator"
            } ]
          },
          "count": 0
        } ]
      } ],
      "evaluatedResource": [ {
        "reference": "Patient/b7cb0363-3581-4627-a684-a4a1e2f34f42"
      }, {
        "reference": "Condition/hiv-43ce"
      }, {
        "reference": "Encounter/preventive-care-services-initial-office-visit-0-to-17-43cf"
      }, {
        "reference": "Observation/syphilis-tests-43d0"
      }, {
        "reference": "Observation/gonorrhea-screening-43d1"
      }, {
        "reference": "Observation/chlamydia-screening-43d2"
      }, {
        "reference": "Coverage/1"
      }, {
        "reference": "Organization/123456"
      }, {
        "reference": "Practitioner/practitioner-123456"
      } ]
    },
    "request": {
      "method": "POST",
      "url": "MeasureReport/4c6fc621-ccd3-4cee-909a-7fd0fc0d1712"
    }
  } ]
}