{"resourceType":"Bundle","id":"tests-b8dd3c0c-bc5c-4858-9f96-9faabbbaad45-bundle","type":"transaction","entry":[{"fullUrl":"https://madie.cms.gov/Patient/b8dd3c0c-bc5c-4858-9f96-9faabbbaad45","resource":{"resourceType":"Patient","id":"b8dd3c0c-bc5c-4858-9f96-9faabbbaad45","meta":{"profile":["http://hl7.org/fhir/us/qicore/StructureDefinition/qicore-patient"]},"extension":[{"url":"http://hl7.org/fhir/us/core/StructureDefinition/us-core-race","extension":[{"url":"ombCategory","valueCoding":{"system":"urn:oid:2.16.840.1.113883.6.238","code":"2106-3","display":"White"}},{"url":"text","valueString":"White"}]},{"url":"http://hl7.org/fhir/us/core/StructureDefinition/us-core-ethnicity","extension":[{"url":"ombCategory","valueCoding":{"system":"urn:oid:2.16.840.1.113883.6.238","code":"2135-2","display":"Hispanic or Latino"}},{"url":"text","valueString":"Hispanic or Latino"}]}],"identifier":[{"system":"http://hospital.smarthealthit.org","value":"999999999"}],"name":[{"family":"Example","given":["Patient"]}],"gender":"other","birthDate":"1955-01-01"},"request":{"method":"PUT","url":"Patient/b8dd3c0c-bc5c-4858-9f96-9faabbbaad45"}},{"fullUrl":"https://madie.cms.gov/Encounter/5e8cccc8931f9c0000abd5b9","resource":{"resourceType":"Encounter","id":"48141ef3-9096-4e3e-ad03-5bb989b9625e","meta":{"profile":["http://hl7.org/fhir/us/qicore/StructureDefinition/qicore-encounter"]},"status":"finished","class":{"system":"http://terminology.hl7.org/CodeSystem/v3-ActCode","code":"IMP","display":"inpatient encounter"},"type":[{"coding":[{"system":"http://snomed.info/sct","code":"183452005"}]}],"subject":{"reference":"Patient/b8dd3c0c-bc5c-4858-9f96-9faabbbaad45"},"period":{"start":"2025-04-07T08:00:00.000Z","end":"2025-04-11T08:15:00.000Z"}},"request":{"method":"PUT","url":"Encounter/48141ef3-9096-4e3e-ad03-5bb989b9625e"}},{"fullUrl":"https://madie.cms.gov/Observation/glucose-lab-test-mass-per-volume-22f6","resource":{"resourceType":"Observation","id":"8f659839-ccd5-47ea-ade5-745c85339420","meta":{"profile":["http://hl7.org/fhir/us/qicore/StructureDefinition/qicore-observation"]},"status":"final","category":[{"coding":[{"system":"http://terminology.hl7.org/CodeSystem/observation-category","code":"laboratory","display":"Laboratory"}]}],"code":{"coding":[{"system":"http://loinc.org","version":"2.72","code":"1556-0","display":"Fasting glucose [Mass/volume] in Capillary blood","userSelected":true}]},"subject":{"reference":"Patient/b8dd3c0c-bc5c-4858-9f96-9faabbbaad45"},"effectiveDateTime":"2025-04-07T07:30:00.000+00:00","valueQuantity":{"value":999,"unit":"mg/dL"}},"request":{"method":"PUT","url":"Observation/8f659839-ccd5-47ea-ade5-745c85339420"}},{"fullUrl":"https://madie.cms.gov/Observation/glucose-lab-test-mass-per-volume-22f7","resource":{"resourceType":"Observation","id":"de39a320-23c7-4e08-8c85-e59b1c2d34bf","meta":{"profile":["http://hl7.org/fhir/us/qicore/StructureDefinition/qicore-observation"]},"status":"final","category":[{"coding":[{"system":"http://terminology.hl7.org/CodeSystem/observation-category","code":"laboratory","display":"Laboratory"}]}],"code":{"coding":[{"system":"http://loinc.org","version":"2.72","code":"1556-0","display":"Fasting glucose [Mass/volume] in Capillary blood","userSelected":true}]},"subject":{"reference":"Patient/b8dd3c0c-bc5c-4858-9f96-9faabbbaad45"},"effectiveDateTime":"2025-04-07T08:00:00.000+00:00","valueQuantity":{"value":1001,"unit":"mg/dL"}},"request":{"method":"PUT","url":"Observation/de39a320-23c7-4e08-8c85-e59b1c2d34bf"}},{"fullUrl":"https://madie.cms.gov/MeasureReport/08bb24f2-b181-4483-a74d-a5c6a47d9d52","resource":{"resourceType":"MeasureReport","id":"08bb24f2-b181-4483-a74d-a5c6a47d9d52","meta":{"profile":["http://hl7.org/fhir/us/cqfmeasures/StructureDefinition/test-case-cqfm"]},"contained":[{"resourceType":"Parameters","id":"a70e0404-6d2e-40e0-a0fe-c0aafbecb87a-parameters","parameter":[{"name":"subject","valueString":"b8dd3c0c-bc5c-4858-9f96-9faabbbaad45"}]}],"extension":[{"url":"http://hl7.org/fhir/us/cqfmeasures/StructureDefinition/cqfm-inputParameters","valueReference":{"reference":"#a70e0404-6d2e-40e0-a0fe-c0aafbecb87a-parameters"}},{"url":"http://hl7.org/fhir/us/cqfmeasures/StructureDefinition/cqfm-testCaseDescription","valueMarkdown":"IP encounter where there is a glucose >1000mg/dL within 7-hr interval, but there is a glucose test done before it, so does not meet denom exclusion. The glucose >1000 must be the initial test. "}],"modifierExtension":[{"url":"http://hl7.org/fhir/us/cqfmeasures/StructureDefinition/cqfm-isTestCase","valueBoolean":true}],"status":"complete","type":"individual","measure":"https://madie.cms.gov/Measure/HospitalHarmHyperglycemiainHospitalizedPatientsFHIR","period":{"start":"2025-01-01","end":"2025-12-31"},"group":[{"population":[{"code":{"coding":[{"system":"http://terminology.hl7.org/CodeSystem/measure-population","code":"initial-population","display":"Initial Population"}]},"count":1},{"code":{"coding":[{"system":"http://terminology.hl7.org/CodeSystem/measure-population","code":"denominator","display":"Denominator"}]},"count":1},{"code":{"coding":[{"system":"http://terminology.hl7.org/CodeSystem/measure-population","code":"denominator-exclusion","display":"Denominator Exclusion"}]},"count":0},{"code":{"coding":[{"system":"http://terminology.hl7.org/CodeSystem/measure-population","code":"numerator","display":"Numerator"}]},"count":0},{"code":{"coding":[{"system":"http://terminology.hl7.org/CodeSystem/measure-population","code":"denominator-observation","display":"DenominatorObservation"}]},"count":3}]}]},"request":{"method":"PUT","url":"MeasureReport/08bb24f2-b181-4483-a74d-a5c6a47d9d52"}}]}