{"resourceType":"Bundle","id":"tests-7637e69b-5481-4edf-b186-334d4367f740-bundle","type":"transaction","entry":[{"fullUrl":"https://madie.cms.gov/Patient/7637e69b-5481-4edf-b186-334d4367f740","resource":{"resourceType":"Patient","id":"7637e69b-5481-4edf-b186-334d4367f740","meta":{"profile":["http://hl7.org/fhir/us/qicore/StructureDefinition/qicore-patient"]},"extension":[{"url":"http://hl7.org/fhir/us/core/StructureDefinition/us-core-race","extension":[{"url":"ombCategory","valueCoding":{"system":"urn:oid:2.16.840.1.113883.6.238","code":"2106-3","display":"White"}},{"url":"text","valueString":"White"}]},{"url":"http://hl7.org/fhir/us/core/StructureDefinition/us-core-ethnicity","extension":[{"url":"ombCategory","valueCoding":{"system":"urn:oid:2.16.840.1.113883.6.238","code":"2135-2","display":"Hispanic or Latino"}},{"url":"text","valueString":"Hispanic or Latino"}]}],"identifier":[{"system":"http://hospital.smarthealthit.org","value":"999999999"}],"name":[{"family":"Example","given":["Patient"]}],"gender":"male","birthDate":"1955-01-01"},"request":{"method":"PUT","url":"Patient/7637e69b-5481-4edf-b186-334d4367f740"}},{"fullUrl":"https://madie.cms.gov/Encounter/5e8cccc8931f9c0000abd5b9","resource":{"resourceType":"Encounter","id":"4756679f-205e-4736-bdb1-e968eb6fea5f","meta":{"profile":["http://hl7.org/fhir/us/qicore/StructureDefinition/qicore-encounter"]},"status":"finished","class":{"system":"http://terminology.hl7.org/CodeSystem/v3-ActCode","code":"IMP","display":"inpatient encounter"},"type":[{"coding":[{"system":"http://snomed.info/sct","code":"183452005"}]}],"subject":{"reference":"Patient/7637e69b-5481-4edf-b186-334d4367f740"},"period":{"start":"2025-04-07T08:00:00.000Z","end":"2025-04-11T08:15:00.000Z"}},"request":{"method":"PUT","url":"Encounter/4756679f-205e-4736-bdb1-e968eb6fea5f"}},{"fullUrl":"https://madie.cms.gov/Observation/glucose-lab-test-mass-per-volume-22f7","resource":{"resourceType":"Observation","id":"75c0c8a1-c9fd-49fb-810f-c9ca39947cc2","meta":{"profile":["http://hl7.org/fhir/us/qicore/StructureDefinition/qicore-observation"]},"status":"final","category":[{"coding":[{"system":"http://terminology.hl7.org/CodeSystem/observation-category","code":"laboratory","display":"Laboratory"}]}],"code":{"coding":[{"system":"http://loinc.org","version":"2.72","code":"1556-0","display":"Fasting glucose [Mass/volume] in Capillary blood","userSelected":true}]},"subject":{"reference":"Patient/7637e69b-5481-4edf-b186-334d4367f740"},"effectiveDateTime":"2025-04-08T07:00:00.000+00:00","valueQuantity":{"value":210.0,"unit":"mg/dL"}},"request":{"method":"PUT","url":"Observation/75c0c8a1-c9fd-49fb-810f-c9ca39947cc2"}},{"fullUrl":"https://madie.cms.gov/MeasureReport/9201a10d-37fa-40c8-9a24-54809206b794","resource":{"resourceType":"MeasureReport","id":"9201a10d-37fa-40c8-9a24-54809206b794","meta":{"profile":["http://hl7.org/fhir/us/cqfmeasures/StructureDefinition/test-case-cqfm"]},"contained":[{"resourceType":"Parameters","id":"e55278d8-97f4-4698-899a-888a35da1433-parameters","parameter":[{"name":"subject","valueString":"7637e69b-5481-4edf-b186-334d4367f740"}]}],"extension":[{"url":"http://hl7.org/fhir/us/cqfmeasures/StructureDefinition/cqfm-inputParameters","valueReference":{"reference":"#e55278d8-97f4-4698-899a-888a35da1433-parameters"}},{"url":"http://hl7.org/fhir/us/cqfmeasures/StructureDefinition/cqfm-testCaseDescription","valueMarkdown":"Inpatient hospitalization where patient has glucose 210 mg/dL on day 3 of stay. Meets denominator criteria"}],"modifierExtension":[{"url":"http://hl7.org/fhir/us/cqfmeasures/StructureDefinition/cqfm-isTestCase","valueBoolean":true}],"status":"complete","type":"individual","measure":"https://madie.cms.gov/Measure/HospitalHarmHyperglycemiainHospitalizedPatientsFHIR","period":{"start":"2025-01-01","end":"2025-12-31"},"group":[{"population":[{"code":{"coding":[{"system":"http://terminology.hl7.org/CodeSystem/measure-population","code":"initial-population","display":"Initial Population"}]},"count":1},{"code":{"coding":[{"system":"http://terminology.hl7.org/CodeSystem/measure-population","code":"denominator","display":"Denominator"}]},"count":1},{"code":{"coding":[{"system":"http://terminology.hl7.org/CodeSystem/measure-population","code":"denominator-exclusion","display":"Denominator Exclusion"}]},"count":0},{"code":{"coding":[{"system":"http://terminology.hl7.org/CodeSystem/measure-population","code":"numerator","display":"Numerator"}]},"count":0},{"code":{"coding":[{"system":"http://terminology.hl7.org/CodeSystem/measure-population","code":"denominator-observation","display":"DenominatorObservation"}]},"count":3}]}]},"request":{"method":"PUT","url":"MeasureReport/9201a10d-37fa-40c8-9a24-54809206b794"}}]}