{
  "resourceType": "Bundle",
  "id": "617bff451289f5673c8ceffe",
  "type": "transaction",
  "entry": [ {
    "fullUrl": "https://madie.cms.gov/Patient/64c8c187-6a67-49c4-b6cc-bb4f746fbc51",
    "resource": {
      "resourceType": "Patient",
      "id": "64c8c187-6a67-49c4-b6cc-bb4f746fbc51",
      "meta": {
        "profile": [ "http://hl7.org/fhir/us/qicore/StructureDefinition/qicore-patient" ]
      },
      "extension": [ {
        "url": "http://hl7.org/fhir/us/core/StructureDefinition/us-core-race",
        "extension": [ {
          "url": "ombCategory",
          "valueCoding": {
            "system": "urn:oid:2.16.840.1.113883.6.238",
            "code": "2028-9",
            "display": "Asian",
            "userSelected": true
          }
        }, {
          "url": "text",
          "valueString": "Asian"
        } ]
      }, {
        "url": "http://hl7.org/fhir/us/core/StructureDefinition/us-core-ethnicity",
        "extension": [ {
          "url": "ombCategory",
          "valueCoding": {
            "system": "urn:oid:2.16.840.1.113883.6.238",
            "code": "2186-5",
            "display": "Not Hispanic or Latino",
            "userSelected": true
          }
        }, {
          "url": "text",
          "valueString": "Not Hispanic or Latino"
        } ]
      } ],
      "identifier": [ {
        "type": {
          "coding": [ {
            "system": "http://terminology.hl7.org/CodeSystem/v2-0203",
            "code": "MR"
          } ]
        },
        "system": "https://bonnie-fhir.healthit.gov/",
        "value": "617bff451289f5673c8ceffe"
      } ],
      "name": [ {
        "family": "DenExclPass",
        "given": [ "Expired" ]
      } ],
      "gender": "female",
      "birthDate": "1984-12-02"
    },
    "request": {
      "method": "POST",
      "url": "Patient/64c8c187-6a67-49c4-b6cc-bb4f746fbc51"
    }
  }, {
    "fullUrl": "https://madie.cms.gov/Encounter/emergency-department-visit-e632",
    "resource": {
      "resourceType": "Encounter",
      "id": "emergency-department-visit-e632",
      "meta": {
        "profile": [ "http://hl7.org/fhir/us/qicore/StructureDefinition/qicore-encounter" ]
      },
      "status": "finished",
      "class": {
        "system": "http://terminology.hl7.org/CodeSystem/v3-ActCode",
        "code": "EMER",
        "display": "emergency",
        "userSelected": true
      },
      "type": [ {
        "coding": [ {
          "system": "http://snomed.info/sct",
          "version": "2020-09",
          "code": "4525004",
          "display": "Emergency department patient visit (procedure)",
          "userSelected": true
        } ]
      } ],
      "subject": {
        "reference": "Patient/64c8c187-6a67-49c4-b6cc-bb4f746fbc51"
      },
      "period": {
        "start": "2025-10-09T08:05:00.000+00:00",
        "end": "2025-10-10T07:15:00.000+00:00"
      },
      "diagnosis": [ {
        "condition": {
          "reference": "Condition/f0022fbf-5ea4-4930-bddd-ee4312cd2b90"
        }
      } ],
      "hospitalization": {
        "dischargeDisposition": {
          "coding": [ {
            "system": "http://snomed.info/sct",
            "code": "371828006",
            "display": "Patient deceased during stay (discharge status = dead) (finding)",
            "userSelected": true
          } ]
        }
      }
    },
    "request": {
      "method": "POST",
      "url": "Encounter/emergency-department-visit-e632"
    }
  }, {
    "fullUrl": "https://madie.cms.gov/Condition/stemi-e633",
    "resource": {
      "resourceType": "Condition",
      "id": "f0022fbf-5ea4-4930-bddd-ee4312cd2b90",
      "meta": {
        "profile": [ "http://hl7.org/fhir/us/qicore/StructureDefinition/qicore-condition" ]
      },
      "clinicalStatus": {
        "coding": [ {
          "system": "http://terminology.hl7.org/CodeSystem/condition-clinical",
          "code": "active",
          "display": "active",
          "userSelected": true
        } ]
      },
      "category": [ {
        "coding": [ {
          "system": "http://terminology.hl7.org/CodeSystem/condition-category",
          "code": "encounter-diagnosis",
          "display": "Encounter Diagnosis",
          "userSelected": true
        } ]
      } ],
      "code": {
        "coding": [ {
          "system": "http://hl7.org/fhir/sid/icd-10-cm",
          "code": "I21.19",
          "userSelected": true
        } ]
      },
      "subject": {
        "reference": "Patient/64c8c187-6a67-49c4-b6cc-bb4f746fbc51"
      },
      "onsetDateTime": "2025-10-09T08:27:00.000+00:00"
    },
    "request": {
      "method": "POST",
      "url": "Condition/f0022fbf-5ea4-4930-bddd-ee4312cd2b90"
    }
  }, {
    "fullUrl": "https://madie.cms.gov/MeasureReport/74c2356c-c97e-4e9c-b487-32d6876dc8fc",
    "resource": {
      "resourceType": "MeasureReport",
      "id": "74c2356c-c97e-4e9c-b487-32d6876dc8fc",
      "meta": {
        "profile": [ "http://hl7.org/fhir/us/cqfmeasures/StructureDefinition/test-case-cqfm" ]
      },
      "contained": [ {
        "resourceType": "Parameters",
        "id": "8df5730e-8da2-477f-a4a6-a98c3eb8072b-parameters",
        "parameter": [ {
          "name": "subject",
          "valueString": "64c8c187-6a67-49c4-b6cc-bb4f746fbc51"
        } ]
      } ],
      "extension": [ {
        "url": "http://hl7.org/fhir/us/cqfmeasures/StructureDefinition/cqfm-inputParameters",
        "valueReference": {
          "reference": "#8df5730e-8da2-477f-a4a6-a98c3eb8072b-parameters"
        }
      }, {
        "url": "http://hl7.org/fhir/us/cqfmeasures/StructureDefinition/cqfm-testCaseDescription",
        "valueMarkdown": "Patient expired during ED"
      } ],
      "modifierExtension": [ {
        "url": "http://hl7.org/fhir/us/cqfmeasures/StructureDefinition/cqfm-isTestCase",
        "valueBoolean": true
      } ],
      "status": "complete",
      "type": "individual",
      "measure": "https://madie.cms.gov/Measure/AppropriateTreatmentforSTEMIFHIR",
      "period": {
        "start": "2025-01-01",
        "end": "2025-12-31"
      },
      "group": [ {
        "population": [ {
          "code": {
            "coding": [ {
              "system": "http://terminology.hl7.org/CodeSystem/measure-population",
              "code": "initial-population",
              "display": "Initial Population"
            } ]
          },
          "count": 1
        }, {
          "code": {
            "coding": [ {
              "system": "http://terminology.hl7.org/CodeSystem/measure-population",
              "code": "denominator",
              "display": "Denominator"
            } ]
          },
          "count": 1
        }, {
          "code": {
            "coding": [ {
              "system": "http://terminology.hl7.org/CodeSystem/measure-population",
              "code": "denominator-exclusion",
              "display": "Denominator Exclusion"
            } ]
          },
          "count": 1
        }, {
          "code": {
            "coding": [ {
              "system": "http://terminology.hl7.org/CodeSystem/measure-population",
              "code": "numerator",
              "display": "Numerator"
            } ]
          },
          "count": 0
        }, {
          "code": {
            "coding": [ {
              "system": "http://terminology.hl7.org/CodeSystem/measure-population",
              "code": "denominator-exception",
              "display": "Denominator Exception"
            } ]
          },
          "count": 0
        } ]
      } ],
      "evaluatedResource": [ {
        "reference": "Patient/64c8c187-6a67-49c4-b6cc-bb4f746fbc51"
      }, {
        "reference": "Encounter/emergency-department-visit-e632"
      }, {
        "reference": "Condition/stemi-e633"
      } ]
    },
    "request": {
      "method": "POST",
      "url": "MeasureReport/74c2356c-c97e-4e9c-b487-32d6876dc8fc"
    }
  } ]
}