{
  "resourceType": "Bundle",
  "id": "Patient-12-DENEXPass-FrailtyEncOverlapsMP",
  "type": "transaction",
  "entry": [ {
    "fullUrl": "https://madie.cms.gov/Patient/9cba6cfa-9671-4850-803d-e286c7d59ee7",
    "resource": {
      "resourceType": "Patient",
      "id": "9cba6cfa-9671-4850-803d-e286c7d59ee7",
      "meta": {
        "profile": [ "http://hl7.org/fhir/us/qicore/StructureDefinition/qicore-patient" ]
      },
      "extension": [ {
        "url": "http://hl7.org/fhir/us/core/StructureDefinition/us-core-race",
        "extension": [ {
          "url": "ombCategory",
          "valueCoding": {
            "system": "urn:oid:2.16.840.1.113883.6.238",
            "code": "2028-9",
            "display": "Asian"
          }
        }, {
          "url": "text",
          "valueString": "Asian"
        } ]
      }, {
        "url": "http://hl7.org/fhir/us/core/StructureDefinition/us-core-ethnicity",
        "extension": [ {
          "url": "ombCategory",
          "valueCoding": {
            "system": "urn:oid:2.16.840.1.113883.6.238",
            "code": "2135-2",
            "display": "Hispanic or Latino"
          }
        }, {
          "url": "text",
          "valueString": "Hispanic or Latino"
        } ]
      } ],
      "identifier": [ {
        "system": "http://hospital.smarthealthit.org",
        "value": "999999995"
      } ],
      "name": [ {
        "family": "Bertha",
        "given": [ "Betty" ]
      } ],
      "gender": "female",
      "birthDate": "1958-12-31"
    },
    "request": {
      "method": "POST",
      "url": "Patient/9cba6cfa-9671-4850-803d-e286c7d59ee7"
    }
  }, {
    "fullUrl": "https://madie.cms.gov/Encounter/Encounter-17",
    "resource": {
      "resourceType": "Encounter",
      "id": "Encounter-17",
      "meta": {
        "profile": [ "http://hl7.org/fhir/us/qicore/StructureDefinition/qicore-encounter" ]
      },
      "status": "finished",
      "class": {
        "system": "http://terminology.hl7.org/CodeSystem/v3-ActCode",
        "code": "AMB",
        "display": "ambulatory"
      },
      "type": [ {
        "coding": [ {
          "system": "http://snomed.info/sct",
          "code": "185460008",
          "display": "Home visit request by patient (procedure)"
        } ]
      } ],
      "subject": {
        "reference": "Patient/9cba6cfa-9671-4850-803d-e286c7d59ee7"
      },
      "period": {
        "start": "2025-01-01T00:00:00.000Z",
        "end": "2025-01-01T00:15:00.000Z"
      }
    },
    "request": {
      "method": "POST",
      "url": "Encounter/Encounter-17"
    }
  }, {
    "fullUrl": "https://madie.cms.gov/Condition/Condition-14",
    "resource": {
      "resourceType": "Condition",
      "id": "Condition-14",
      "meta": {
        "profile": [ "http://hl7.org/fhir/us/qicore/StructureDefinition/qicore-condition" ]
      },
      "clinicalStatus": {
        "coding": [ {
          "system": "http://terminology.hl7.org/CodeSystem/condition-clinical",
          "code": "active"
        } ]
      },
      "category": [ {
        "coding": [ {
          "system": "http://terminology.hl7.org/CodeSystem/condition-category",
          "code": "problem-list-item",
          "display": "Problem List Item"
        } ]
      } ],
      "code": {
        "coding": [ {
          "system": "http://snomed.info/sct",
          "code": "102781000119107",
          "display": "Sensory neuropathy due to type 1 diabetes mellitus (disorder)"
        } ]
      },
      "subject": {
        "reference": "Patient/9cba6cfa-9671-4850-803d-e286c7d59ee7"
      },
      "onsetDateTime": "2025-01-01T23:59:00.000Z"
    },
    "request": {
      "method": "POST",
      "url": "Condition/Condition-14"
    }
  }, {
    "fullUrl": "https://madie.cms.gov/MedicationRequest/MedicationRequest-3",
    "resource": {
      "resourceType": "MedicationRequest",
      "id": "MedicationRequest-3",
      "meta": {
        "profile": [ "http://hl7.org/fhir/us/qicore/StructureDefinition/qicore-medicationrequest" ]
      },
      "status": "active",
      "intent": "order",
      "doNotPerform": false,
      "medicationCodeableConcept": {
        "coding": [ {
          "system": "http://www.nlm.nih.gov/research/umls/rxnorm",
          "code": "312836",
          "display": "rivastigmine 6 MG Oral Capsule"
        } ]
      },
      "subject": {
        "reference": "Patient/9cba6cfa-9671-4850-803d-e286c7d59ee7"
      },
      "authoredOn": "2025-01-01T00:00:00.000Z",
      "requester": {
        "reference": "Practitioner/example"
      },
      "dispenseRequest": {
        "expectedSupplyDuration": {
          "value": 90,
          "system": "http://unitsofmeasure.org",
          "code": "days"
        }
      }
    },
    "request": {
      "method": "POST",
      "url": "MedicationRequest/MedicationRequest-3"
    }
  }, {
    "fullUrl": "https://madie.cms.gov/Encounter/Encounter-18",
    "resource": {
      "resourceType": "Encounter",
      "id": "Encounter-18",
      "meta": {
        "profile": [ "http://hl7.org/fhir/us/qicore/StructureDefinition/qicore-encounter" ]
      },
      "status": "finished",
      "class": {
        "system": "http://terminology.hl7.org/CodeSystem/v3-ActCode",
        "code": "AMB",
        "display": "ambulatory"
      },
      "type": [ {
        "coding": [ {
          "system": "http://www.ama-assn.org/go/cpt",
          "code": "99509",
          "display": "Home visit for assistance with activities of daily living and personal care"
        } ]
      } ],
      "subject": {
        "reference": "Patient/9cba6cfa-9671-4850-803d-e286c7d59ee7"
      },
      "period": {
        "start": "2025-01-01T00:00:00.000Z",
        "end": "2025-01-02T00:00:00.000Z"
      }
    },
    "request": {
      "method": "POST",
      "url": "Encounter/Encounter-18"
    }
  }, {
    "fullUrl": "https://madie.cms.gov/MeasureReport/296f5215-9731-4480-9fbe-828d63442668",
    "resource": {
      "resourceType": "MeasureReport",
      "id": "296f5215-9731-4480-9fbe-828d63442668",
      "meta": {
        "profile": [ "http://hl7.org/fhir/us/cqfmeasures/StructureDefinition/test-case-cqfm" ]
      },
      "contained": [ {
        "resourceType": "Parameters",
        "id": "e21aff6b-8fa5-4d2b-b69d-0808fb43a128-parameters",
        "parameter": [ {
          "name": "subject",
          "valueString": "9cba6cfa-9671-4850-803d-e286c7d59ee7"
        } ]
      } ],
      "extension": [ {
        "url": "http://hl7.org/fhir/us/cqfmeasures/StructureDefinition/cqfm-inputParameters",
        "valueReference": {
          "reference": "#e21aff6b-8fa5-4d2b-b69d-0808fb43a128-parameters"
        }
      }, {
        "url": "http://hl7.org/fhir/us/cqfmeasures/StructureDefinition/cqfm-testCaseDescription",
        "valueMarkdown": "Frailty encounter overlaps the MP"
      } ],
      "modifierExtension": [ {
        "url": "http://hl7.org/fhir/us/cqfmeasures/StructureDefinition/cqfm-isTestCase",
        "valueBoolean": true
      } ],
      "status": "complete",
      "type": "individual",
      "measure": "https://madie.cms.gov/Measure/DiabetesGlycemicStatusAssessmentGreaterThan9PercentFHIR",
      "period": {
        "start": "2025-01-01",
        "end": "2025-12-31"
      },
      "group": [ {
        "population": [ {
          "code": {
            "coding": [ {
              "system": "http://terminology.hl7.org/CodeSystem/measure-population",
              "code": "initial-population",
              "display": "Initial Population"
            } ]
          },
          "count": 1
        }, {
          "code": {
            "coding": [ {
              "system": "http://terminology.hl7.org/CodeSystem/measure-population",
              "code": "denominator",
              "display": "Denominator"
            } ]
          },
          "count": 1
        }, {
          "code": {
            "coding": [ {
              "system": "http://terminology.hl7.org/CodeSystem/measure-population",
              "code": "denominator-exclusion",
              "display": "Denominator Exclusion"
            } ]
          },
          "count": 1
        }, {
          "code": {
            "coding": [ {
              "system": "http://terminology.hl7.org/CodeSystem/measure-population",
              "code": "numerator",
              "display": "Numerator"
            } ]
          },
          "count": 0
        } ]
      } ],
      "evaluatedResource": [ {
        "reference": "https://madie.cms.gov/Patient/9cba6cfa-9671-4850-803d-e286c7d59ee7"
      }, {
        "reference": "https://madie.cms.gov/Encounter/Encounter-17"
      }, {
        "reference": "https://madie.cms.gov/Condition/Condition-14"
      }, {
        "reference": "https://madie.cms.gov/MedicationRequest/MedicationRequest-3"
      }, {
        "reference": "https://madie.cms.gov/Encounter/Encounter-18"
      } ]
    },
    "request": {
      "method": "POST",
      "url": "MeasureReport/296f5215-9731-4480-9fbe-828d63442668"
    }
  } ]
}