{
  "resourceType": "Bundle",
  "id": "62bc69333e113102f8cedca6",
  "type": "transaction",
  "entry": [ {
    "fullUrl": "https://madie.cms.gov/Patient/02d9a61a-6315-45e9-b45b-c08d4b55d39e",
    "resource": {
      "resourceType": "Patient",
      "id": "02d9a61a-6315-45e9-b45b-c08d4b55d39e",
      "meta": {
        "profile": [ "http://hl7.org/fhir/us/qicore/StructureDefinition/qicore-patient" ]
      },
      "extension": [ {
        "url": "http://hl7.org/fhir/us/core/StructureDefinition/us-core-race",
        "extension": [ {
          "url": "ombCategory",
          "valueCoding": {
            "system": "urn:oid:2.16.840.1.113883.6.238",
            "code": "1002-5",
            "display": "American Indian or Alaska Native"
          }
        }, {
          "url": "text",
          "valueString": "American Indian or Alaska Native"
        } ]
      }, {
        "url": "http://hl7.org/fhir/us/core/StructureDefinition/us-core-ethnicity",
        "extension": [ {
          "url": "ombCategory",
          "valueCoding": {
            "system": "urn:oid:2.16.840.1.113883.6.238",
            "code": "2135-2",
            "display": "Hispanic or Latino"
          }
        }, {
          "url": "text",
          "valueString": "Hispanic or Latino"
        } ]
      } ],
      "identifier": [ {
        "type": {
          "coding": [ {
            "system": "http://terminology.hl7.org/CodeSystem/v2-0203",
            "code": "MR"
          } ]
        },
        "system": "https://bonnie-fhir.healthit.gov/",
        "value": "62bc69333e113102f8cedca6"
      } ],
      "name": [ {
        "family": "DENEXFail",
        "given": [ "RadiationAfterStaging" ]
      } ],
      "gender": "female",
      "birthDate": "1946-02-01"
    },
    "request": {
      "method": "POST",
      "url": "Patient/02d9a61a-6315-45e9-b45b-c08d4b55d39e"
    }
  }, {
    "fullUrl": "https://madie.cms.gov/Encounter/office-visit-dca7",
    "resource": {
      "resourceType": "Encounter",
      "id": "office-visit-dca7",
      "meta": {
        "profile": [ "http://hl7.org/fhir/us/qicore/StructureDefinition/qicore-encounter" ]
      },
      "status": "finished",
      "class": {
        "system": "http://terminology.hl7.org/CodeSystem/v3-ActCode",
        "code": "AMB",
        "display": "ambulatory"
      },
      "type": [ {
        "coding": [ {
          "system": "http://snomed.info/sct",
          "version": "http://snomed.info/sct/731000124108/version/20240301",
          "code": "185463005",
          "display": "Visit out of hours (procedure)"
        } ]
      } ],
      "subject": {
        "reference": "Patient/02d9a61a-6315-45e9-b45b-c08d4b55d39e"
      },
      "period": {
        "start": "2025-06-30T08:00:00.000+00:00",
        "end": "2025-06-30T09:15:00.000+00:00"
      }
    },
    "request": {
      "method": "POST",
      "url": "Encounter/office-visit-dca7"
    }
  }, {
    "fullUrl": "https://madie.cms.gov/Procedure/denex-pass-CMS646v0QICore4-3",
    "resource": {
      "resourceType": "Procedure",
      "id": "denex-pass-CMS646v0QICore4-3",
      "meta": {
        "profile": [ "http://hl7.org/fhir/us/qicore/StructureDefinition/qicore-procedure" ]
      },
      "extension": [ {
        "url": "http://hl7.org/fhir/us/qicore/StructureDefinition/qicore-recorded",
        "valueDateTime": "2025-08-30T08:00:00.000+00:00"
      } ],
      "status": "completed",
      "code": {
        "coding": [ {
          "system": "http://snomed.info/sct",
          "version": "http://snomed.info/sct/731000124108/version/20240301",
          "code": "169331000",
          "display": "Combined radiotherapy (procedure)",
          "userSelected": true
        } ]
      },
      "subject": {
        "reference": "Patient/02d9a61a-6315-45e9-b45b-c08d4b55d39e"
      },
      "performedPeriod": {
        "start": "2025-08-30T08:00:00.000+00:00",
        "end": "2025-08-30T08:15:00.000+00:00"
      }
    },
    "request": {
      "method": "POST",
      "url": "Procedure/denex-pass-CMS646v0QICore4-3"
    }
  }, {
    "fullUrl": "https://madie.cms.gov/Condition/prostate-cancer-dca8",
    "resource": {
      "resourceType": "Condition",
      "id": "prostate-cancer-dca8",
      "meta": {
        "profile": [ "http://hl7.org/fhir/us/qicore/StructureDefinition/qicore-condition" ]
      },
      "clinicalStatus": {
        "coding": [ {
          "system": "http://terminology.hl7.org/CodeSystem/condition-clinical",
          "code": "active",
          "display": "Active"
        } ]
      },
      "verificationStatus": {
        "coding": [ {
          "system": "http://terminology.hl7.org/CodeSystem/condition-ver-status",
          "code": "confirmed",
          "display": "Confirmed"
        } ]
      },
      "category": [ {
        "coding": [ {
          "system": "http://terminology.hl7.org/CodeSystem/condition-category",
          "code": "problem-list-item",
          "display": "Problem List Item"
        } ]
      } ],
      "code": {
        "coding": [ {
          "system": "http://hl7.org/fhir/sid/icd-10-cm",
          "version": "2024",
          "code": "C67.3",
          "display": "Malignant neoplasm of anterior wall of bladder"
        } ]
      },
      "subject": {
        "reference": "Patient/02d9a61a-6315-45e9-b45b-c08d4b55d39e"
      },
      "onsetDateTime": "2025-06-30T08:00:00.000+00:00"
    },
    "request": {
      "method": "POST",
      "url": "Condition/prostate-cancer-dca8"
    }
  }, {
    "fullUrl": "https://madie.cms.gov/Observation/denex-pass-CMS646v0QICore4-4",
    "resource": {
      "resourceType": "Observation",
      "id": "denex-pass-CMS646v0QICore4-4",
      "meta": {
        "profile": [ "http://hl7.org/fhir/us/qicore/StructureDefinition/qicore-observation" ]
      },
      "partOf": [ {
        "reference": "Procedure/denex-pass-CMS646v0QICore4-3"
      } ],
      "status": "final",
      "category": [ {
        "coding": [ {
          "system": "http://terminology.hl7.org/CodeSystem/observation-category",
          "code": "procedure",
          "display": "Procedure"
        } ]
      } ],
      "code": {
        "coding": [ {
          "system": "http://loinc.org",
          "version": "2.76",
          "code": "21902-2",
          "display": "Stage group.pathology Cancer"
        } ]
      },
      "subject": {
        "reference": "Patient/02d9a61a-6315-45e9-b45b-c08d4b55d39e"
      },
      "effectivePeriod": {
        "start": "2025-06-30T08:00:00.000+00:00",
        "end": "2025-06-30T08:15:00.000+00:00"
      },
      "issued": "2025-06-30T08:15:00.000+00:00",
      "valueCodeableConcept": {
        "coding": [ {
          "system": "http://snomed.info/sct",
          "version": "http://snomed.info/sct/731000124108/version/20240301",
          "code": "1228884006",
          "display": "American Joint Committee on Cancer cTis (qualifier value)"
        } ]
      }
    },
    "request": {
      "method": "POST",
      "url": "Observation/denex-pass-CMS646v0QICore4-4"
    }
  }, {
    "fullUrl": "https://madie.cms.gov/Practitioner/13143134531634",
    "resource": {
      "resourceType": "Practitioner",
      "id": "13143134531634",
      "meta": {
        "profile": [ "http://hl7.org/fhir/us/qicore/StructureDefinition/qicore-practitioner" ]
      },
      "identifier": [ {
        "use": "temp",
        "system": "urn:oid:2.16.840.1.113883.4.336",
        "value": "Practitioner-23"
      } ],
      "active": true,
      "name": [ {
        "family": "Careful",
        "given": [ "Adam" ],
        "prefix": [ "Dr" ]
      } ],
      "address": [ {
        "use": "home",
        "line": [ "534 Erewhon St" ],
        "city": "PleasantVille",
        "state": "UT",
        "postalCode": "84414"
      } ],
      "qualification": [ {
        "identifier": [ {
          "system": "http://example.org/UniversityIdentifier",
          "value": "12345"
        } ],
        "code": {
          "coding": [ {
            "system": "http://terminology.hl7.org/CodeSystem/v2-0360",
            "code": "BS",
            "display": "Bachelor of Science"
          } ],
          "text": "Bachelor of Science"
        },
        "period": {
          "start": "1995"
        },
        "issuer": {
          "display": "Example University"
        }
      } ]
    },
    "request": {
      "method": "POST",
      "url": "Practitioner/13143134531634"
    }
  }, {
    "fullUrl": "https://madie.cms.gov/Procedure/denex-pass-CMS646v0QICore4-5",
    "resource": {
      "resourceType": "Procedure",
      "id": "denex-pass-CMS646v0QICore4-5",
      "meta": {
        "profile": [ "http://hl7.org/fhir/us/qicore/StructureDefinition/qicore-procedure" ]
      },
      "extension": [ {
        "url": "http://hl7.org/fhir/us/qicore/StructureDefinition/qicore-recorded",
        "valueDateTime": "2025-06-30T08:00:00.000+00:00"
      } ],
      "status": "completed",
      "code": {
        "coding": [ {
          "system": "http://snomed.info/sct",
          "version": "http://snomed.info/sct/731000124108/version/20240301",
          "code": "254292007",
          "display": "Tumor staging"
        } ]
      },
      "subject": {
        "reference": "Patient/02d9a61a-6315-45e9-b45b-c08d4b55d39e"
      },
      "performedPeriod": {
        "start": "2025-06-30T08:00:00.000+00:00",
        "end": "2025-06-30T08:15:00.000+00:00"
      }
    },
    "request": {
      "method": "POST",
      "url": "Procedure/denex-pass-CMS646v0QICore4-5"
    }
  }, {
    "fullUrl": "https://madie.cms.gov/MeasureReport/e43eb914-e1fe-4885-a43a-ec5637906748",
    "resource": {
      "resourceType": "MeasureReport",
      "id": "e43eb914-e1fe-4885-a43a-ec5637906748",
      "meta": {
        "profile": [ "http://hl7.org/fhir/us/cqfmeasures/StructureDefinition/test-case-cqfm" ]
      },
      "contained": [ {
        "resourceType": "Parameters",
        "id": "da810bab-8be5-458d-b0f7-5edda4ae1a79-parameters",
        "parameter": [ {
          "name": "subject",
          "valueString": "02d9a61a-6315-45e9-b45b-c08d4b55d39e"
        } ]
      } ],
      "extension": [ {
        "url": "http://hl7.org/fhir/us/cqfmeasures/StructureDefinition/cqfm-inputParameters",
        "valueReference": {
          "reference": "#da810bab-8be5-458d-b0f7-5edda4ae1a79-parameters"
        }
      }, {
        "url": "http://hl7.org/fhir/us/cqfmeasures/StructureDefinition/cqfm-testCaseDescription",
        "valueMarkdown": "Patient with OV in MP. Bladder cancer diagnosis and cancer staging in MP.  Pt had radiation 2 months after bladder cancer staging and should not be excluded. "
      } ],
      "modifierExtension": [ {
        "url": "http://hl7.org/fhir/us/cqfmeasures/StructureDefinition/cqfm-isTestCase",
        "valueBoolean": true
      } ],
      "status": "complete",
      "type": "individual",
      "measure": "https://madie.cms.gov/Measure/IntravesicalBacillusCalmetteGuerinForBladderCancerFHIR",
      "period": {
        "start": "2025-01-01",
        "end": "2025-12-31"
      },
      "group": [ {
        "population": [ {
          "code": {
            "coding": [ {
              "system": "http://terminology.hl7.org/CodeSystem/measure-population",
              "code": "initial-population",
              "display": "Initial Population"
            } ]
          },
          "count": 1
        }, {
          "code": {
            "coding": [ {
              "system": "http://terminology.hl7.org/CodeSystem/measure-population",
              "code": "denominator",
              "display": "Denominator"
            } ]
          },
          "count": 1
        }, {
          "code": {
            "coding": [ {
              "system": "http://terminology.hl7.org/CodeSystem/measure-population",
              "code": "denominator-exclusion",
              "display": "Denominator Exclusion"
            } ]
          },
          "count": 0
        }, {
          "code": {
            "coding": [ {
              "system": "http://terminology.hl7.org/CodeSystem/measure-population",
              "code": "numerator",
              "display": "Numerator"
            } ]
          },
          "count": 0
        }, {
          "code": {
            "coding": [ {
              "system": "http://terminology.hl7.org/CodeSystem/measure-population",
              "code": "denominator-exception",
              "display": "Denominator Exception"
            } ]
          },
          "count": 0
        } ]
      } ],
      "evaluatedResource": [ {
        "reference": "https://madie.cms.gov/Patient/02d9a61a-6315-45e9-b45b-c08d4b55d39e"
      }, {
        "reference": "https://madie.cms.gov/Encounter/office-visit-dca7"
      }, {
        "reference": "https://madie.cms.gov/Procedure/denex-pass-CMS646v0QICore4-3"
      }, {
        "reference": "https://madie.cms.gov/Condition/prostate-cancer-dca8"
      }, {
        "reference": "https://madie.cms.gov/Observation/denex-pass-CMS646v0QICore4-4"
      }, {
        "reference": "https://madie.cms.gov/Practitioner/13143134531634"
      }, {
        "reference": "https://madie.cms.gov/Procedure/denex-pass-CMS646v0QICore4-5"
      } ]
    },
    "request": {
      "method": "POST",
      "url": "MeasureReport/e43eb914-e1fe-4885-a43a-ec5637906748"
    }
  } ]
}