{
  "resourceType": "Bundle",
  "id": "NUMPass-InitPROMISameDayAsTHAFUPROMIS300DaysAfterTHA",
  "type": "transaction",
  "entry": [ {
    "fullUrl": "https://madie.cms.gov/Patient/3a64c2c2-d15d-4468-ace2-89cd12d6064f",
    "resource": {
      "resourceType": "Patient",
      "id": "3a64c2c2-d15d-4468-ace2-89cd12d6064f",
      "meta": {
        "profile": [ "http://hl7.org/fhir/us/qicore/StructureDefinition/qicore-patient" ]
      },
      "extension": [ {
        "url": "http://hl7.org/fhir/us/core/StructureDefinition/us-core-race",
        "extension": [ {
          "url": "ombCategory",
          "valueCoding": {
            "system": "urn:oid:2.16.840.1.113883.6.238",
            "code": "2028-9",
            "display": "Asian"
          }
        }, {
          "url": "text",
          "valueString": "Asian"
        } ]
      }, {
        "url": "http://hl7.org/fhir/us/core/StructureDefinition/us-core-ethnicity",
        "extension": [ {
          "url": "ombCategory",
          "valueCoding": {
            "system": "urn:oid:2.16.840.1.113883.6.238",
            "code": "2135-2",
            "display": "Hispanic or Latino"
          }
        }, {
          "url": "text",
          "valueString": "Hispanic or Latino"
        } ]
      } ],
      "identifier": [ {
        "system": "http://hospital.smarthealthit.org",
        "value": "999999995"
      } ],
      "name": [ {
        "family": "Bertha",
        "given": [ "Betty" ]
      } ],
      "gender": "female",
      "birthDate": "2006-01-01"
    },
    "request": {
      "method": "POST",
      "url": "Patient/3a64c2c2-d15d-4468-ace2-89cd12d6064f"
    }
  }, {
    "fullUrl": "https://madie.cms.gov/Procedure/Procedure-39",
    "resource": {
      "resourceType": "Procedure",
      "id": "Procedure-39",
      "meta": {
        "profile": [ "http://hl7.org/fhir/us/qicore/StructureDefinition/qicore-procedure" ]
      },
      "extension": [ {
        "url": "http://hl7.org/fhir/us/qicore/StructureDefinition/qicore-recorded",
        "valueDateTime": "2023-11-01T00:00:00.000Z"
      } ],
      "status": "completed",
      "code": {
        "coding": [ {
          "system": "http://www.cms.gov/Medicare/Coding/ICD10",
          "code": "0SR9019",
          "display": "Replacement of Right Hip Joint with Metal Synthetic Substitute, Cemented, Open Approach"
        } ]
      },
      "subject": {
        "reference": "Patient/3a64c2c2-d15d-4468-ace2-89cd12d6064f"
      },
      "performedPeriod": {
        "start": "2023-11-01T00:00:00.000Z",
        "end": "2023-11-01T01:00:00.000Z"
      }
    },
    "request": {
      "method": "POST",
      "url": "Procedure/Procedure-39"
    }
  }, {
    "fullUrl": "https://madie.cms.gov/Encounter/Encounter-39",
    "resource": {
      "resourceType": "Encounter",
      "id": "Encounter-39",
      "meta": {
        "profile": [ "http://hl7.org/fhir/us/qicore/StructureDefinition/qicore-encounter" ]
      },
      "status": "finished",
      "class": {
        "system": "http://terminology.hl7.org/CodeSystem/v3-ActCode",
        "code": "AMB",
        "display": "ambulatory"
      },
      "type": [ {
        "coding": [ {
          "system": "http://snomed.info/sct",
          "code": "281036007",
          "display": "Follow-up consultation (procedure)"
        } ]
      } ],
      "subject": {
        "reference": "Patient/3a64c2c2-d15d-4468-ace2-89cd12d6064f"
      },
      "period": {
        "start": "2024-11-01T00:00:00.000Z",
        "end": "2024-11-01T01:15:00.000Z"
      }
    },
    "request": {
      "method": "POST",
      "url": "Encounter/Encounter-39"
    }
  }, {
    "fullUrl": "https://madie.cms.gov/Observation/Observation-39.1-1",
    "resource": {
      "resourceType": "Observation",
      "id": "Observation-39.1-1",
      "meta": {
        "profile": [ "http://hl7.org/fhir/us/qicore/StructureDefinition/qicore-observation" ]
      },
      "status": "final",
      "category": [ {
        "coding": [ {
          "system": "http://terminology.hl7.org/CodeSystem/observation-category",
          "code": "survey"
        } ]
      } ],
      "code": {
        "coding": [ {
          "system": "http://loinc.org",
          "code": "71969-0",
          "display": "PROMIS-10 Global Mental Health (GMH) score T-score"
        } ]
      },
      "subject": {
        "reference": "Patient/3a64c2c2-d15d-4468-ace2-89cd12d6064f"
      },
      "effectivePeriod": {
        "start": "2023-11-01T00:00:00.000Z",
        "end": "2023-11-01T01:00:00.000Z"
      },
      "valueInteger": 60
    },
    "request": {
      "method": "POST",
      "url": "Observation/Observation-39.1-1"
    }
  }, {
    "fullUrl": "https://madie.cms.gov/Observation/Observation-39.1-2",
    "resource": {
      "resourceType": "Observation",
      "id": "Observation-39.1-2",
      "meta": {
        "profile": [ "http://hl7.org/fhir/us/qicore/StructureDefinition/qicore-observation" ]
      },
      "status": "final",
      "category": [ {
        "coding": [ {
          "system": "http://terminology.hl7.org/CodeSystem/observation-category",
          "code": "survey"
        } ]
      } ],
      "code": {
        "coding": [ {
          "system": "http://loinc.org",
          "code": "71971-6",
          "display": "PROMIS-10 Global Physical Health (GPH) score T-score"
        } ]
      },
      "subject": {
        "reference": "Patient/3a64c2c2-d15d-4468-ace2-89cd12d6064f"
      },
      "effectivePeriod": {
        "start": "2023-11-01T00:00:00.000Z",
        "end": "2023-11-01T01:00:00.000Z"
      },
      "valueInteger": 60
    },
    "request": {
      "method": "POST",
      "url": "Observation/Observation-39.1-2"
    }
  }, {
    "fullUrl": "https://madie.cms.gov/Observation/Observation-39.2-1",
    "resource": {
      "resourceType": "Observation",
      "id": "Observation-39.2-1",
      "meta": {
        "profile": [ "http://hl7.org/fhir/us/qicore/StructureDefinition/qicore-observation" ]
      },
      "status": "final",
      "category": [ {
        "coding": [ {
          "system": "http://terminology.hl7.org/CodeSystem/observation-category",
          "code": "survey"
        } ]
      } ],
      "code": {
        "coding": [ {
          "system": "http://loinc.org",
          "code": "71969-0",
          "display": "PROMIS-10 Global Mental Health (GMH) score T-score'"
        } ]
      },
      "subject": {
        "reference": "Patient/3a64c2c2-d15d-4468-ace2-89cd12d6064f"
      },
      "effectivePeriod": {
        "start": "2024-08-27T00:00:00.000Z",
        "end": "2024-08-27T01:00:00.000Z"
      },
      "valueInteger": 60
    },
    "request": {
      "method": "POST",
      "url": "Observation/Observation-39.2-1"
    }
  }, {
    "fullUrl": "https://madie.cms.gov/Observation/Observation-39.2-2",
    "resource": {
      "resourceType": "Observation",
      "id": "Observation-39.2-2",
      "meta": {
        "profile": [ "http://hl7.org/fhir/us/qicore/StructureDefinition/qicore-observation" ]
      },
      "status": "final",
      "category": [ {
        "coding": [ {
          "system": "http://terminology.hl7.org/CodeSystem/observation-category",
          "code": "survey"
        } ]
      } ],
      "code": {
        "coding": [ {
          "system": "http://loinc.org",
          "code": "71971-6",
          "display": "PROMIS-10 Global Physical Health (GPH) score T-score"
        } ]
      },
      "subject": {
        "reference": "Patient/3a64c2c2-d15d-4468-ace2-89cd12d6064f"
      },
      "effectivePeriod": {
        "start": "2024-08-27T00:00:00.000Z",
        "end": "2024-08-27T01:00:00.000Z"
      },
      "valueInteger": 60
    },
    "request": {
      "method": "POST",
      "url": "Observation/Observation-39.2-2"
    }
  }, {
    "fullUrl": "https://madie.cms.gov/MeasureReport/c7e06937-82d8-4a15-ae12-7b2c5ce24f1b",
    "resource": {
      "resourceType": "MeasureReport",
      "id": "c7e06937-82d8-4a15-ae12-7b2c5ce24f1b",
      "meta": {
        "profile": [ "http://hl7.org/fhir/us/cqfmeasures/StructureDefinition/test-case-cqfm" ]
      },
      "contained": [ {
        "resourceType": "Parameters",
        "id": "bf8a5b4b-c746-4492-a95e-3c5317e99dd6-parameters",
        "parameter": [ {
          "name": "subject",
          "valueString": "3a64c2c2-d15d-4468-ace2-89cd12d6064f"
        } ]
      } ],
      "extension": [ {
        "url": "http://hl7.org/fhir/us/cqfmeasures/StructureDefinition/cqfm-inputParameters",
        "valueReference": {
          "reference": "#bf8a5b4b-c746-4492-a95e-3c5317e99dd6-parameters"
        }
      }, {
        "url": "http://hl7.org/fhir/us/cqfmeasures/StructureDefinition/cqfm-testCaseDescription",
        "valueMarkdown": "Patient w/ a THA Procedure 11/1, Initial Hip Assessment PROMIS10 Same day as THA Procedure(11/1), and FollowUp Hip Assessment PROMIS10 300 days after THA Procedure (8/27)"
      } ],
      "modifierExtension": [ {
        "url": "http://hl7.org/fhir/us/cqfmeasures/StructureDefinition/cqfm-isTestCase",
        "valueBoolean": true
      } ],
      "status": "complete",
      "type": "individual",
      "measure": "https://madie.cms.gov/Measure/FunctionalStatusAssessmentforTotalHipReplacementFHIR",
      "period": {
        "start": "2025-01-01",
        "end": "2025-12-31"
      },
      "group": [ {
        "population": [ {
          "code": {
            "coding": [ {
              "system": "http://terminology.hl7.org/CodeSystem/measure-population",
              "code": "initial-population",
              "display": "Initial Population"
            } ]
          },
          "count": 1
        }, {
          "code": {
            "coding": [ {
              "system": "http://terminology.hl7.org/CodeSystem/measure-population",
              "code": "denominator",
              "display": "Denominator"
            } ]
          },
          "count": 1
        }, {
          "code": {
            "coding": [ {
              "system": "http://terminology.hl7.org/CodeSystem/measure-population",
              "code": "denominator-exclusion",
              "display": "Denominator Exclusion"
            } ]
          },
          "count": 0
        }, {
          "code": {
            "coding": [ {
              "system": "http://terminology.hl7.org/CodeSystem/measure-population",
              "code": "numerator",
              "display": "Numerator"
            } ]
          },
          "count": 1
        } ]
      } ],
      "evaluatedResource": [ {
        "reference": "https://madie.cms.gov/Patient/3a64c2c2-d15d-4468-ace2-89cd12d6064f"
      }, {
        "reference": "https://madie.cms.gov/Procedure/Procedure-39"
      }, {
        "reference": "https://madie.cms.gov/Encounter/Encounter-39"
      }, {
        "reference": "https://madie.cms.gov/Observation/Observation-39.1-1"
      }, {
        "reference": "https://madie.cms.gov/Observation/Observation-39.1-2"
      }, {
        "reference": "https://madie.cms.gov/Observation/Observation-39.2-1"
      }, {
        "reference": "https://madie.cms.gov/Observation/Observation-39.2-2"
      } ]
    },
    "request": {
      "method": "POST",
      "url": "MeasureReport/c7e06937-82d8-4a15-ae12-7b2c5ce24f1b"
    }
  } ]
}