{
  "resourceType": "Bundle",
  "id": "632368e98d26c655c5601f01",
  "type": "transaction",
  "entry": [ {
    "fullUrl": "https://madie.cms.gov/Patient/26b12d5b-823a-4a45-9f1d-d52aa26d27a7",
    "resource": {
      "resourceType": "Patient",
      "id": "26b12d5b-823a-4a45-9f1d-d52aa26d27a7",
      "meta": {
        "profile": [ "http://hl7.org/fhir/us/qicore/StructureDefinition/qicore-patient" ]
      },
      "extension": [ {
        "url": "http://hl7.org/fhir/us/core/StructureDefinition/us-core-race",
        "extension": [ {
          "url": "ombCategory",
          "valueCoding": {
            "system": "urn:oid:2.16.840.1.113883.6.238",
            "code": "2054-5",
            "display": "Black or African American",
            "userSelected": true
          }
        }, {
          "url": "text",
          "valueString": "Black or African American"
        } ]
      }, {
        "url": "http://hl7.org/fhir/us/core/StructureDefinition/us-core-ethnicity",
        "extension": [ {
          "url": "ombCategory",
          "valueCoding": {
            "system": "urn:oid:2.16.840.1.113883.6.238",
            "code": "2186-5",
            "display": "Not Hispanic or Latino",
            "userSelected": true
          }
        }, {
          "url": "text",
          "valueString": "Not Hispanic or Latino"
        } ]
      } ],
      "identifier": [ {
        "type": {
          "coding": [ {
            "system": "http://terminology.hl7.org/CodeSystem/v2-0203",
            "code": "MR"
          } ]
        },
        "system": "https://bonnie-fhir.healthit.gov/",
        "value": "632368e98d26c655c5601f01"
      } ],
      "name": [ {
        "family": "NUMERFail",
        "given": [ "OpioidDuringEncBenzoAtDC" ]
      } ],
      "gender": "female",
      "birthDate": "2005-12-31"
    },
    "request": {
      "method": "POST",
      "url": "Patient/26b12d5b-823a-4a45-9f1d-d52aa26d27a7"
    }
  }, {
    "fullUrl": "https://madie.cms.gov/Encounter/encounter-inpatient-53ef",
    "resource": {
      "resourceType": "Encounter",
      "id": "encounter-inpatient-53ef",
      "meta": {
        "profile": [ "http://hl7.org/fhir/us/qicore/StructureDefinition/qicore-encounter" ]
      },
      "status": "finished",
      "class": {
        "system": "http://terminology.hl7.org/CodeSystem/v3-ActCode",
        "code": "IMP",
        "display": "inpatient"
      },
      "type": [ {
        "coding": [ {
          "system": "http://snomed.info/sct",
          "version": "2022-03",
          "code": "183452005",
          "display": "Emergency hospital admission (procedure)",
          "userSelected": true
        } ]
      } ],
      "subject": {
        "reference": "Patient/26b12d5b-823a-4a45-9f1d-d52aa26d27a7"
      },
      "period": {
        "start": "2025-01-01T00:00:00.000+00:00",
        "end": "2025-01-02T00:15:00.000+00:00"
      }
    },
    "request": {
      "method": "POST",
      "url": "Encounter/encounter-inpatient-53ef"
    }
  }, {
    "fullUrl": "https://madie.cms.gov/MedicationRequest/schedule-ii-iii-opioid-medications-53f1",
    "resource": {
      "resourceType": "MedicationRequest",
      "id": "schedule-ii-iii-opioid-medications-53f1",
      "meta": {
        "profile": [ "http://hl7.org/fhir/us/qicore/StructureDefinition/qicore-medicationrequest" ]
      },
      "status": "active",
      "intent": "order",
      "category": [ {
        "coding": [ {
          "system": "http://terminology.hl7.org/CodeSystem/medicationrequest-category",
          "code": "inpatient",
          "display": "Inpatient",
          "userSelected": true
        } ]
      } ],
      "doNotPerform": false,
      "medicationCodeableConcept": {
        "coding": [ {
          "system": "http://www.nlm.nih.gov/research/umls/rxnorm",
          "version": "2022-08",
          "code": "1014632",
          "display": "acetaminophen 300 MG / oxycodone hydrochloride 7.5 MG Oral Tablet",
          "userSelected": true
        } ]
      },
      "subject": {
        "reference": "Patient/26b12d5b-823a-4a45-9f1d-d52aa26d27a7"
      },
      "authoredOn": "2025-01-02T00:15:00.000+00:00",
      "requester": {
        "reference": "Practitioner/example",
        "display": "Patrick Pump"
      }
    },
    "request": {
      "method": "POST",
      "url": "MedicationRequest/schedule-ii-iii-opioid-medications-53f1"
    }
  }, {
    "fullUrl": "https://madie.cms.gov/MedicationRequest/schedule-iv-benzodiazepines-1f02",
    "resource": {
      "resourceType": "MedicationRequest",
      "id": "schedule-iv-benzodiazepines-1f02",
      "meta": {
        "profile": [ "http://hl7.org/fhir/us/qicore/StructureDefinition/qicore-medicationrequest" ]
      },
      "status": "active",
      "intent": "order",
      "category": [ {
        "coding": [ {
          "system": "http://terminology.hl7.org/CodeSystem/medicationrequest-category",
          "code": "community",
          "display": "Community",
          "userSelected": true
        } ]
      } ],
      "doNotPerform": false,
      "medicationCodeableConcept": {
        "coding": [ {
          "system": "http://www.nlm.nih.gov/research/umls/rxnorm",
          "code": "1298088",
          "display": "flurazepam hydrochloride 15 MG Oral Capsule",
          "userSelected": true
        } ]
      },
      "subject": {
        "reference": "Patient/26b12d5b-823a-4a45-9f1d-d52aa26d27a7"
      },
      "authoredOn": "2025-01-02T00:10:00.000+00:00",
      "requester": {
        "reference": "Practitioner/example",
        "display": "Patrick Pump"
      }
    },
    "request": {
      "method": "POST",
      "url": "MedicationRequest/schedule-iv-benzodiazepines-1f02"
    }
  }, {
    "fullUrl": "https://madie.cms.gov/Coverage/1",
    "resource": {
      "resourceType": "Coverage",
      "id": "1",
      "meta": {
        "profile": [ "http://hl7.org/fhir/us/qicore/StructureDefinition/qicore-coverage" ]
      },
      "status": "active",
      "beneficiary": {
        "reference": "Patient/26b12d5b-823a-4a45-9f1d-d52aa26d27a7"
      },
      "payor": [ {
        "reference": "Organization/123456"
      } ]
    },
    "request": {
      "method": "POST",
      "url": "Coverage/1"
    }
  }, {
    "fullUrl": "https://madie.cms.gov/Organization/123456",
    "resource": {
      "resourceType": "Organization",
      "id": "123456",
      "meta": {
        "profile": [ "http://hl7.org/fhir/us/qicore/StructureDefinition/qicore-organization" ]
      },
      "identifier": [ {
        "use": "temp",
        "system": "urn:oid:2.16.840.1.113883.4.4",
        "value": "21-3259825"
      } ],
      "active": true,
      "type": [ {
        "coding": [ {
          "system": "http://terminology.hl7.org/CodeSystem/organization-type",
          "code": "pay",
          "display": "Payer"
        } ]
      } ],
      "name": "Blue Cross Blue Shield of Texas",
      "telecom": [ {
        "system": "phone",
        "value": "(+1) 972-766-6900"
      } ],
      "address": [ {
        "use": "billing",
        "type": "postal",
        "line": [ "P.O. Box 660044" ],
        "city": "Dallas",
        "state": "TX",
        "postalCode": "75266-0044",
        "country": "USA"
      } ]
    },
    "request": {
      "method": "POST",
      "url": "Organization/123456"
    }
  }, {
    "fullUrl": "https://madie.cms.gov/MeasureReport/cc559cb1-14dd-4085-869c-607ba4e2780f",
    "resource": {
      "resourceType": "MeasureReport",
      "id": "cc559cb1-14dd-4085-869c-607ba4e2780f",
      "meta": {
        "profile": [ "http://hl7.org/fhir/us/cqfmeasures/StructureDefinition/test-case-cqfm" ]
      },
      "contained": [ {
        "resourceType": "Parameters",
        "id": "ae587a33-511a-4841-b192-be8e4e9e04cf-parameters",
        "parameter": [ {
          "name": "subject",
          "valueString": "26b12d5b-823a-4a45-9f1d-d52aa26d27a7"
        } ]
      } ],
      "extension": [ {
        "url": "http://hl7.org/fhir/us/cqfmeasures/StructureDefinition/cqfm-inputParameters",
        "valueReference": {
          "reference": "#ae587a33-511a-4841-b192-be8e4e9e04cf-parameters"
        }
      }, {
        "url": "http://hl7.org/fhir/us/cqfmeasures/StructureDefinition/cqfm-testCaseDescription",
        "valueMarkdown": "Inpatient enc first day of MP. Opioid category \"inpatient\" (consumed in inpatient setting) and Benzo prescribed at discharge. "
      } ],
      "modifierExtension": [ {
        "url": "http://hl7.org/fhir/us/cqfmeasures/StructureDefinition/cqfm-isTestCase",
        "valueBoolean": true
      } ],
      "status": "complete",
      "type": "individual",
      "measure": "https://madie.cms.gov/Measure/SafeUseofOpioidsConcurrentPrescribingFHIR",
      "period": {
        "start": "2025-01-01",
        "end": "2025-12-31"
      },
      "group": [ {
        "population": [ {
          "code": {
            "coding": [ {
              "system": "http://terminology.hl7.org/CodeSystem/measure-population",
              "code": "initial-population",
              "display": "Initial Population"
            } ]
          },
          "count": 1
        }, {
          "code": {
            "coding": [ {
              "system": "http://terminology.hl7.org/CodeSystem/measure-population",
              "code": "denominator",
              "display": "Denominator"
            } ]
          },
          "count": 1
        }, {
          "code": {
            "coding": [ {
              "system": "http://terminology.hl7.org/CodeSystem/measure-population",
              "code": "denominator-exclusion",
              "display": "Denominator Exclusion"
            } ]
          },
          "count": 0
        }, {
          "code": {
            "coding": [ {
              "system": "http://terminology.hl7.org/CodeSystem/measure-population",
              "code": "numerator",
              "display": "Numerator"
            } ]
          },
          "count": 0
        } ]
      } ],
      "evaluatedResource": [ {
        "reference": "https://madie.cms.gov/Patient/26b12d5b-823a-4a45-9f1d-d52aa26d27a7"
      }, {
        "reference": "https://madie.cms.gov/Encounter/encounter-inpatient-53ef"
      }, {
        "reference": "https://madie.cms.gov/MedicationRequest/schedule-ii-iii-opioid-medications-53f1"
      }, {
        "reference": "https://madie.cms.gov/MedicationRequest/schedule-iv-benzodiazepines-1f02"
      }, {
        "reference": "https://madie.cms.gov/Coverage/1"
      }, {
        "reference": "https://madie.cms.gov/Organization/123456"
      } ]
    },
    "request": {
      "method": "POST",
      "url": "MeasureReport/cc559cb1-14dd-4085-869c-607ba4e2780f"
    }
  } ]
}