{"resourceType":"Bundle","id":"tests-f702444c-4d8c-43f3-a9d7-f420e10d6c4d-bundle","type":"transaction","entry":[{"fullUrl":"https://madie.cms.gov/Patient/c3754e06-0483-4d4b-ba42-9d858f8cf26e","resource":{"resourceType":"Patient","id":"c3754e06-0483-4d4b-ba42-9d858f8cf26e","meta":{"profile":["http://hl7.org/fhir/us/core/StructureDefinition/us-core-patient","http://hl7.org/fhir/us/qicore/StructureDefinition/qicore-patient"]},"extension":[{"url":"http://hl7.org/fhir/us/core/StructureDefinition/us-core-race","extension":[{"url":"ombCategory","valueCoding":{"system":"urn:oid:2.16.840.1.113883.6.238","code":"2028-9","display":"Asian"}},{"url":"text","valueString":"Asian"}]},{"url":"http://hl7.org/fhir/us/core/StructureDefinition/us-core-ethnicity","extension":[{"url":"ombCategory","valueCoding":{"system":"urn:oid:2.16.840.1.113883.6.238","code":"2135-2","display":"Hispanic or Latino"}},{"url":"text","valueString":"Hispanic or Latino"}]}],"identifier":[{"system":"http://hospital.smarthealthit.org","value":"999999995"}],"name":[{"family":"InvalidUnits","given":["DENOMFail"]}],"gender":"female","birthDate":"1984-06-12"},"request":{"method":"PUT","url":"Patient/c3754e06-0483-4d4b-ba42-9d858f8cf26e"}},{"fullUrl":"https://madie.cms.gov/Encounter/ba32a7ed-6a8a-4a35-810a-78d88a93f49e","resource":{"resourceType":"Encounter","id":"ba32a7ed-6a8a-4a35-810a-78d88a93f49e","meta":{"profile":["http://hl7.org/fhir/us/qicore/StructureDefinition/qicore-encounter"]},"status":"finished","class":{"system":"http://terminology.hl7.org/CodeSystem/v3-ActCode","code":"IMP","display":"inpatient encounter"},"type":[{"coding":[{"system":"http://snomed.info/sct","code":"183452005","display":"Emergency hospital admission"}]}],"subject":{"reference":"Patient/c3754e06-0483-4d4b-ba42-9d858f8cf26e"},"period":{"start":"2025-05-01T00:00:00.000Z","end":"2025-05-03T01:00:00.000Z"}},"request":{"method":"PUT","url":"Encounter/ba32a7ed-6a8a-4a35-810a-78d88a93f49e"}},{"fullUrl":"https://madie.cms.gov/Observation/5e3aac40-f4b6-4680-8430-e4680aefc4bf","resource":{"resourceType":"Observation","id":"5e3aac40-f4b6-4680-8430-e4680aefc4bf","meta":{"profile":["http://hl7.org/fhir/us/qicore/StructureDefinition/qicore-observation"]},"status":"final","category":[{"coding":[{"system":"http://terminology.hl7.org/CodeSystem/observation-category","code":"imaging","display":"Imaging"}]}],"code":{"coding":[{"system":"http://loinc.org","code":"96914-7","display":"CT dose and image quality category"}],"text":"CT dose and image quality category"},"subject":{"reference":"Patient/c3754e06-0483-4d4b-ba42-9d858f8cf26e"},"encounter":{"reference":"Encounter/ba32a7ed-6a8a-4a35-810a-78d88a93f49e"},"effectiveDateTime":"2025-05-02T00:00:00.000Z","valueCodeableConcept":{"coding":[{"system":"http://loinc.org","code":"LA31752-1","display":"Abdomen and Pelvis Low Dose"}]},"component":[{"code":{"coding":[{"system":"http://loinc.org","code":"96912-1","display":"Calculated CT global noise"}]},"valueQuantity":{"value":63,"unit":"cm","system":"http://unitsofmeasure.org","code":"cm"}},{"code":{"coding":[{"system":"http://loinc.org","code":"96913-9","display":"Calculated CT size-adjusted dose"}]},"valueQuantity":{"value":597,"unit":"cm","system":"http://unitsofmeasure.org","code":"cm"}}]},"request":{"method":"PUT","url":"Observation/5e3aac40-f4b6-4680-8430-e4680aefc4bf"}},{"fullUrl":"https://madie.cms.gov/MeasureReport/bd456585-61f6-4c82-92fa-8a2e913058e4","resource":{"resourceType":"MeasureReport","id":"bd456585-61f6-4c82-92fa-8a2e913058e4","meta":{"profile":["http://hl7.org/fhir/us/cqfmeasures/StructureDefinition/test-case-cqfm"]},"contained":[{"resourceType":"Parameters","id":"17f8b4a6-71f1-4323-80c7-9811c91487fc-parameters","parameter":[{"name":"subject","valueString":"c3754e06-0483-4d4b-ba42-9d858f8cf26e"}]}],"extension":[{"url":"http://hl7.org/fhir/us/cqfmeasures/StructureDefinition/cqfm-inputParameters","valueReference":{"reference":"#17f8b4a6-71f1-4323-80c7-9811c91487fc-parameters"}},{"url":"http://hl7.org/fhir/us/cqfmeasures/StructureDefinition/cqfm-testCaseDescription","valueMarkdown":"Patient has valid CT scan but with invalid units"}],"modifierExtension":[{"url":"http://hl7.org/fhir/us/cqfmeasures/StructureDefinition/cqfm-isTestCase","valueBoolean":true}],"status":"complete","type":"individual","measure":"https://madie.cms.gov/Measure/AlaraCTIQRFHIR","period":{"start":"2025-01-01","end":"2025-12-31"},"group":[{"population":[{"code":{"coding":[{"system":"http://terminology.hl7.org/CodeSystem/measure-population","code":"initial-population","display":"Initial Population"}]},"count":1},{"code":{"coding":[{"system":"http://terminology.hl7.org/CodeSystem/measure-population","code":"denominator","display":"Denominator"}]},"count":0},{"code":{"coding":[{"system":"http://terminology.hl7.org/CodeSystem/measure-population","code":"denominator-exclusion","display":"Denominator Exclusion"}]},"count":0},{"code":{"coding":[{"system":"http://terminology.hl7.org/CodeSystem/measure-population","code":"numerator","display":"Numerator"}]},"count":0}]}]},"request":{"method":"PUT","url":"MeasureReport/bd456585-61f6-4c82-92fa-8a2e913058e4"}}]}