{"resourceType":"Bundle","id":"tests-b39185cc-754c-4c8e-85bc-497c2e6a37aa-bundle","type":"transaction","entry":[{"fullUrl":"https://madie.cms.gov/Patient/588e59d6-42e3-4c37-8505-cb2794e1bc19","resource":{"resourceType":"Patient","id":"588e59d6-42e3-4c37-8505-cb2794e1bc19","meta":{"profile":["http://hl7.org/fhir/us/core/StructureDefinition/us-core-patient","http://hl7.org/fhir/us/qicore/StructureDefinition/qicore-patient"]},"extension":[{"url":"http://hl7.org/fhir/us/core/StructureDefinition/us-core-race","extension":[{"url":"ombCategory","valueCoding":{"system":"urn:oid:2.16.840.1.113883.6.238","code":"2028-9","display":"Asian"}},{"url":"text","valueString":"Asian"}]},{"url":"http://hl7.org/fhir/us/core/StructureDefinition/us-core-ethnicity","extension":[{"url":"ombCategory","valueCoding":{"system":"urn:oid:2.16.840.1.113883.6.238","code":"2135-2","display":"Hispanic or Latino"}},{"url":"text","valueString":"Hispanic or Latino"}]}],"identifier":[{"system":"http://hospital.smarthealthit.org","value":"999999995"}],"name":[{"family":"NotDuringEncounter","given":["IPPFail"]}],"gender":"unknown","birthDate":"1991-06-12"},"request":{"method":"PUT","url":"Patient/588e59d6-42e3-4c37-8505-cb2794e1bc19"}},{"fullUrl":"https://madie.cms.gov/Encounter/d8bdb436-44b4-4bea-847b-45f86ab80b43","resource":{"resourceType":"Encounter","id":"d8bdb436-44b4-4bea-847b-45f86ab80b43","meta":{"profile":["http://hl7.org/fhir/us/qicore/StructureDefinition/qicore-encounter"]},"status":"finished","class":{"system":"http://terminology.hl7.org/CodeSystem/v3-ActCode","code":"IMP","display":"inpatient encounter"},"type":[{"coding":[{"system":"http://snomed.info/sct","code":"183452005","display":"Emergency hospital admission"}]}],"subject":{"reference":"Patient/588e59d6-42e3-4c37-8505-cb2794e1bc19"},"period":{"start":"2025-02-01T00:00:00.000Z","end":"2025-02-03T01:00:00.000Z"}},"request":{"method":"PUT","url":"Encounter/d8bdb436-44b4-4bea-847b-45f86ab80b43"}},{"fullUrl":"https://madie.cms.gov/Observation/845b2bb6-6959-4777-adc5-2f2a50dd10c8","resource":{"resourceType":"Observation","id":"845b2bb6-6959-4777-adc5-2f2a50dd10c8","meta":{"profile":["http://hl7.org/fhir/us/qicore/StructureDefinition/qicore-observation"]},"status":"final","category":[{"coding":[{"system":"http://terminology.hl7.org/CodeSystem/observation-category","code":"imaging","display":"Imaging"}]}],"code":{"coding":[{"system":"http://loinc.org","code":"96914-7","display":"CT dose and image quality category"}],"text":"CT dose and image quality category"},"subject":{"reference":"Patient/588e59d6-42e3-4c37-8505-cb2794e1bc19"},"encounter":{"reference":"Encounter/d8bdb436-44b4-4bea-847b-45f86ab80b43"},"effectiveDateTime":"2025-03-02T00:00:00.000Z","valueCodeableConcept":{"coding":[{"system":"http://loinc.org","code":"LA31753-9","display":"Abdomen and Pelvis Routine Dose"}]},"component":[{"code":{"coding":[{"system":"http://loinc.org","code":"96912-1","display":"Calculated CT global noise"}]},"valueQuantity":{"value":63,"unit":"[hnsf'U]","system":"http://unitsofmeasure.org","code":"[hnsf'U]"}},{"code":{"coding":[{"system":"http://loinc.org","code":"96913-9","display":"Calculated CT size-adjusted dose"}]},"valueQuantity":{"value":597,"unit":"mGy.cm","system":"http://unitsofmeasure.org","code":"mGy.cm"}}]},"request":{"method":"PUT","url":"Observation/845b2bb6-6959-4777-adc5-2f2a50dd10c8"}},{"fullUrl":"https://madie.cms.gov/MeasureReport/9ce3fc85-d963-4e55-805e-2e5a98bdaf0d","resource":{"resourceType":"MeasureReport","id":"9ce3fc85-d963-4e55-805e-2e5a98bdaf0d","meta":{"profile":["http://hl7.org/fhir/us/cqfmeasures/StructureDefinition/test-case-cqfm"]},"contained":[{"resourceType":"Parameters","id":"da957ed8-908d-40bb-a4eb-208932f962c2-parameters","parameter":[{"name":"subject","valueString":"588e59d6-42e3-4c37-8505-cb2794e1bc19"}]}],"extension":[{"url":"http://hl7.org/fhir/us/cqfmeasures/StructureDefinition/cqfm-inputParameters","valueReference":{"reference":"#da957ed8-908d-40bb-a4eb-208932f962c2-parameters"}},{"url":"http://hl7.org/fhir/us/cqfmeasures/StructureDefinition/cqfm-testCaseDescription","valueMarkdown":"Patient has a CT scan with results but not during the encounter"}],"modifierExtension":[{"url":"http://hl7.org/fhir/us/cqfmeasures/StructureDefinition/cqfm-isTestCase","valueBoolean":true}],"status":"complete","type":"individual","measure":"https://madie.cms.gov/Measure/AlaraCTIQRFHIR","period":{"start":"2025-01-01","end":"2025-12-31"},"group":[{"population":[{"code":{"coding":[{"system":"http://terminology.hl7.org/CodeSystem/measure-population","code":"initial-population","display":"Initial Population"}]},"count":0},{"code":{"coding":[{"system":"http://terminology.hl7.org/CodeSystem/measure-population","code":"denominator","display":"Denominator"}]},"count":0},{"code":{"coding":[{"system":"http://terminology.hl7.org/CodeSystem/measure-population","code":"denominator-exclusion","display":"Denominator Exclusion"}]},"count":0},{"code":{"coding":[{"system":"http://terminology.hl7.org/CodeSystem/measure-population","code":"numerator","display":"Numerator"}]},"count":0}]}]},"request":{"method":"PUT","url":"MeasureReport/9ce3fc85-d963-4e55-805e-2e5a98bdaf0d"}}]}