{
  "resourceType": "Bundle",
  "id": "62fa58e4f4a8c3cd9f4553a4",
  "type": "transaction",
  "entry": [ {
    "fullUrl": "https://madie.cms.gov/Patient/b998e967-eb53-426b-a3a9-8226939efdb6",
    "resource": {
      "resourceType": "Patient",
      "id": "b998e967-eb53-426b-a3a9-8226939efdb6",
      "meta": {
        "profile": [ "http://hl7.org/fhir/us/qicore/StructureDefinition/qicore-patient" ]
      },
      "extension": [ {
        "url": "http://hl7.org/fhir/us/core/StructureDefinition/us-core-race",
        "extension": [ {
          "url": "ombCategory",
          "valueCoding": {
            "system": "urn:oid:2.16.840.1.113883.6.238",
            "code": "2106-3",
            "display": "White",
            "userSelected": true
          }
        }, {
          "url": "text",
          "valueString": "White"
        } ]
      }, {
        "url": "http://hl7.org/fhir/us/core/StructureDefinition/us-core-ethnicity",
        "extension": [ {
          "url": "ombCategory",
          "valueCoding": {
            "system": "urn:oid:2.16.840.1.113883.6.238",
            "code": "2186-5",
            "display": "Not Hispanic or Latino",
            "userSelected": true
          }
        }, {
          "url": "text",
          "valueString": "Not Hispanic or Latino"
        } ]
      } ],
      "identifier": [ {
        "type": {
          "coding": [ {
            "system": "http://terminology.hl7.org/CodeSystem/v2-0203",
            "code": "MR"
          } ]
        },
        "system": "https://bonnie-fhir.healthit.gov/",
        "value": "62fa58e4f4a8c3cd9f4553a4"
      } ],
      "name": [ {
        "family": "DenExPass",
        "given": [ "EndStageRenalHospiceAllVisits" ]
      } ],
      "gender": "male",
      "birthDate": "1989-12-01"
    },
    "request": {
      "method": "POST",
      "url": "Patient/b998e967-eb53-426b-a3a9-8226939efdb6"
    }
  }, {
    "fullUrl": "https://madie.cms.gov/Condition/diabetes-e2ba",
    "resource": {
      "resourceType": "Condition",
      "id": "diabetes-e2ba",
      "meta": {
        "profile": [ "http://hl7.org/fhir/us/qicore/StructureDefinition/qicore-condition" ]
      },
      "clinicalStatus": {
        "coding": [ {
          "system": "http://terminology.hl7.org/CodeSystem/condition-clinical",
          "code": "active",
          "display": "active",
          "userSelected": true
        } ]
      },
      "category": [ {
        "coding": [ {
          "system": "http://terminology.hl7.org/CodeSystem/condition-category",
          "code": "encounter-diagnosis",
          "display": "Encounter Diagnosis",
          "userSelected": true
        } ]
      } ],
      "code": {
        "coding": [ {
          "system": "http://snomed.info/sct",
          "version": "2021-09",
          "code": "102781000119107",
          "display": "Sensory neuropathy due to type 1 diabetes mellitus (disorder)",
          "userSelected": true
        } ]
      },
      "subject": {
        "reference": "Patient/b998e967-eb53-426b-a3a9-8226939efdb6"
      },
      "onsetDateTime": "2023-03-24T08:00:00.000+00:00"
    },
    "request": {
      "method": "POST",
      "url": "Condition/diabetes-e2ba"
    }
  }, {
    "fullUrl": "https://madie.cms.gov/Encounter/office-visit-e2bb",
    "resource": {
      "resourceType": "Encounter",
      "id": "office-visit-e2bb",
      "meta": {
        "profile": [ "http://hl7.org/fhir/us/qicore/StructureDefinition/qicore-encounter" ]
      },
      "status": "finished",
      "class": {
        "system": "http://terminology.hl7.org/CodeSystem/v3-ActCode",
        "code": "AMB",
        "display": "ambulatory",
        "userSelected": true
      },
      "type": [ {
        "coding": [ {
          "system": "http://snomed.info/sct",
          "version": "2021-09",
          "code": "185463005",
          "display": "Visit out of hours (procedure)",
          "userSelected": true
        } ]
      } ],
      "subject": {
        "reference": "Patient/b998e967-eb53-426b-a3a9-8226939efdb6"
      },
      "period": {
        "start": "2025-08-15T08:00:00.000+00:00",
        "end": "2025-08-15T08:15:00.000+00:00"
      }
    },
    "request": {
      "method": "POST",
      "url": "Encounter/office-visit-e2bb"
    }
  }, {
    "fullUrl": "https://madie.cms.gov/Observation/estimated-glomerular-filtration-rate-5397",
    "resource": {
      "resourceType": "Observation",
      "id": "estimated-glomerular-filtration-rate-5397",
      "meta": {
        "profile": [ "http://hl7.org/fhir/us/qicore/StructureDefinition/qicore-observation" ]
      },
      "status": "final",
      "category": [ {
        "coding": [ {
          "system": "http://terminology.hl7.org/CodeSystem/observation-category",
          "code": "laboratory",
          "display": "Laboratory",
          "userSelected": true
        } ]
      } ],
      "code": {
        "coding": [ {
          "system": "http://loinc.org",
          "version": "2.71",
          "code": "48642-3",
          "display": "Glomerular filtration rate/1.73 sq M.predicted among non-blacks [Volume Rate/Area] in Serum, Plasma or Blood by Creatinine-based formula (MDRD)",
          "userSelected": true
        } ]
      },
      "subject": {
        "reference": "Patient/b998e967-eb53-426b-a3a9-8226939efdb6"
      },
      "effectiveDateTime": "2025-08-15T08:00:00.000+00:00",
      "valueBoolean": true
    },
    "request": {
      "method": "POST",
      "url": "Observation/estimated-glomerular-filtration-rate-5397"
    }
  }, {
    "fullUrl": "https://madie.cms.gov/Observation/urine-albumin-creatinine-ratio-5398",
    "resource": {
      "resourceType": "Observation",
      "id": "urine-albumin-creatinine-ratio-5398",
      "meta": {
        "profile": [ "http://hl7.org/fhir/us/qicore/StructureDefinition/qicore-observation" ]
      },
      "status": "final",
      "category": [ {
        "coding": [ {
          "system": "http://terminology.hl7.org/CodeSystem/observation-category",
          "code": "laboratory",
          "display": "Laboratory",
          "userSelected": true
        } ]
      } ],
      "code": {
        "coding": [ {
          "system": "http://loinc.org",
          "version": "2.71",
          "code": "13705-9",
          "display": "Albumin/Creatinine [Mass Ratio] in 24 hour Urine",
          "userSelected": true
        } ]
      },
      "subject": {
        "reference": "Patient/b998e967-eb53-426b-a3a9-8226939efdb6"
      },
      "effectiveDateTime": "2025-08-15T08:00:00.000+00:00",
      "valueBoolean": true
    },
    "request": {
      "method": "POST",
      "url": "Observation/urine-albumin-creatinine-ratio-5398"
    }
  }, {
    "fullUrl": "https://madie.cms.gov/Condition/end-stage-renal-disease-539d",
    "resource": {
      "resourceType": "Condition",
      "id": "end-stage-renal-disease-539d",
      "meta": {
        "profile": [ "http://hl7.org/fhir/us/qicore/StructureDefinition/qicore-condition" ]
      },
      "clinicalStatus": {
        "coding": [ {
          "system": "http://terminology.hl7.org/CodeSystem/condition-clinical",
          "code": "active",
          "display": "active",
          "userSelected": true
        } ]
      },
      "category": [ {
        "coding": [ {
          "system": "http://terminology.hl7.org/CodeSystem/condition-category",
          "code": "problem-list-item",
          "display": "Problem List Item",
          "userSelected": true
        } ]
      } ],
      "code": {
        "coding": [ {
          "system": "http://snomed.info/sct",
          "version": "2021-09",
          "code": "236434000",
          "display": "End stage renal failure untreated by renal replacement therapy (disorder)",
          "userSelected": true
        } ]
      },
      "subject": {
        "reference": "Patient/b998e967-eb53-426b-a3a9-8226939efdb6"
      },
      "onsetDateTime": "2025-08-15T08:00:00.000+00:00",
      "recordedDate": "2025-08-15T08:00:00.000+00:00"
    },
    "request": {
      "method": "POST",
      "url": "Condition/end-stage-renal-disease-539d"
    }
  }, {
    "fullUrl": "https://madie.cms.gov/Encounter/annual-wellness-visit-53a1",
    "resource": {
      "resourceType": "Encounter",
      "id": "annual-wellness-visit-53a1",
      "meta": {
        "profile": [ "http://hl7.org/fhir/us/qicore/StructureDefinition/qicore-encounter" ]
      },
      "status": "finished",
      "class": {
        "system": "http://terminology.hl7.org/CodeSystem/v3-ActCode",
        "code": "AMB",
        "display": "ambulatory",
        "userSelected": true
      },
      "type": [ {
        "coding": [ {
          "system": "http://snomed.info/sct",
          "version": "2021-09",
          "code": "444971000124105",
          "display": "Annual wellness visit (procedure)",
          "userSelected": true
        } ]
      } ],
      "subject": {
        "reference": "Patient/b998e967-eb53-426b-a3a9-8226939efdb6"
      },
      "period": {
        "start": "2025-08-15T08:00:00.000+00:00",
        "end": "2025-08-15T08:15:00.000+00:00"
      }
    },
    "request": {
      "method": "POST",
      "url": "Encounter/annual-wellness-visit-53a1"
    }
  }, {
    "fullUrl": "https://madie.cms.gov/Encounter/outpatient-consultation-53a2",
    "resource": {
      "resourceType": "Encounter",
      "id": "outpatient-consultation-53a2",
      "meta": {
        "profile": [ "http://hl7.org/fhir/us/qicore/StructureDefinition/qicore-encounter" ]
      },
      "status": "finished",
      "class": {
        "system": "http://terminology.hl7.org/CodeSystem/v3-ActCode",
        "code": "AMB",
        "display": "ambulatory",
        "userSelected": true
      },
      "type": [ {
        "coding": [ {
          "system": "http://snomed.info/sct",
          "version": "2021-09",
          "code": "281036007",
          "display": "Follow-up consultation (procedure)",
          "userSelected": true
        } ]
      } ],
      "subject": {
        "reference": "Patient/b998e967-eb53-426b-a3a9-8226939efdb6"
      },
      "period": {
        "end": "2025-08-15T08:15:00.000+00:00"
      }
    },
    "request": {
      "method": "POST",
      "url": "Encounter/outpatient-consultation-53a2"
    }
  }, {
    "fullUrl": "https://madie.cms.gov/Encounter/hospice-encounter-53a3",
    "resource": {
      "resourceType": "Encounter",
      "id": "hospice-encounter-53a3",
      "meta": {
        "profile": [ "http://hl7.org/fhir/us/qicore/StructureDefinition/qicore-encounter" ]
      },
      "status": "finished",
      "class": {
        "system": "http://terminology.hl7.org/CodeSystem/v3-ActCode",
        "code": "AMB",
        "display": "ambulatory",
        "userSelected": true
      },
      "type": [ {
        "coding": [ {
          "system": "http://snomed.info/sct",
          "version": "2021-09",
          "code": "183919006",
          "display": "Urgent admission to hospice (procedure)",
          "userSelected": true
        } ]
      } ],
      "subject": {
        "reference": "Patient/b998e967-eb53-426b-a3a9-8226939efdb6"
      },
      "period": {
        "start": "2025-08-15T08:00:00.000+00:00",
        "end": "2025-08-15T08:15:00.000+00:00"
      }
    },
    "request": {
      "method": "POST",
      "url": "Encounter/hospice-encounter-53a3"
    }
  }, {
    "fullUrl": "https://madie.cms.gov/Encounter/home-healthcare-services-53a5",
    "resource": {
      "resourceType": "Encounter",
      "id": "home-healthcare-services-53a5",
      "meta": {
        "profile": [ "http://hl7.org/fhir/us/qicore/StructureDefinition/qicore-encounter" ]
      },
      "status": "finished",
      "class": {
        "system": "http://terminology.hl7.org/CodeSystem/v3-ActCode",
        "code": "AMB",
        "display": "ambulatory",
        "userSelected": true
      },
      "type": [ {
        "coding": [ {
          "system": "http://snomed.info/sct",
          "version": "2021-09",
          "code": "185460008",
          "display": "Home visit request by patient (procedure)",
          "userSelected": true
        } ]
      } ],
      "subject": {
        "reference": "Patient/b998e967-eb53-426b-a3a9-8226939efdb6"
      },
      "period": {
        "start": "2025-08-15T08:00:00.000+00:00",
        "end": "2025-08-15T08:15:00.000+00:00"
      }
    },
    "request": {
      "method": "POST",
      "url": "Encounter/home-healthcare-services-53a5"
    }
  }, {
    "fullUrl": "https://madie.cms.gov/Encounter/preventive-care-services-initial-office-visit-18-and-up-53a6",
    "resource": {
      "resourceType": "Encounter",
      "id": "preventive-care-services-initial-office-visit-18-and-up-53a6",
      "meta": {
        "profile": [ "http://hl7.org/fhir/us/qicore/StructureDefinition/qicore-encounter" ]
      },
      "status": "finished",
      "class": {
        "system": "http://terminology.hl7.org/CodeSystem/v3-ActCode",
        "code": "AMB",
        "display": "ambulatory",
        "userSelected": true
      },
      "type": [ {
        "coding": [ {
          "system": "http://www.ama-assn.org/go/cpt",
          "version": "2021",
          "code": "99385",
          "display": "Initial comprehensive preventive medicine evaluation and management of an individual including an age and gender appropriate history, examination, counseling/anticipatory guidance/risk factor reduction interventions, and the ordering of laboratory/diagnostic procedures, new patient; 18-39 years",
          "userSelected": true
        } ]
      } ],
      "subject": {
        "reference": "Patient/b998e967-eb53-426b-a3a9-8226939efdb6"
      },
      "period": {
        "start": "2025-08-15T08:00:00.000+00:00",
        "end": "2025-08-15T08:15:00.000+00:00"
      }
    },
    "request": {
      "method": "POST",
      "url": "Encounter/preventive-care-services-initial-office-visit-18-and-up-53a6"
    }
  }, {
    "fullUrl": "https://madie.cms.gov/Encounter/telephone-visits-53a7",
    "resource": {
      "resourceType": "Encounter",
      "id": "telephone-visits-53a7",
      "meta": {
        "profile": [ "http://hl7.org/fhir/us/qicore/StructureDefinition/qicore-encounter" ]
      },
      "status": "finished",
      "class": {
        "system": "http://terminology.hl7.org/CodeSystem/v3-ActCode",
        "code": "AMB",
        "display": "ambulatory",
        "userSelected": true
      },
      "type": [ {
        "coding": [ {
          "system": "http://snomed.info/sct",
          "version": "2021-09",
          "code": "185317003",
          "display": "Telephone encounter (procedure)",
          "userSelected": true
        } ]
      } ],
      "subject": {
        "reference": "Patient/b998e967-eb53-426b-a3a9-8226939efdb6"
      },
      "period": {
        "start": "2025-08-15T08:00:00.000+00:00",
        "end": "2025-08-15T08:15:00.000+00:00"
      }
    },
    "request": {
      "method": "POST",
      "url": "Encounter/telephone-visits-53a7"
    }
  }, {
    "fullUrl": "https://madie.cms.gov/Encounter/preventive-care-services-established-office-visit-18-and-up-53a8",
    "resource": {
      "resourceType": "Encounter",
      "id": "preventive-care-services-established-office-visit-18-and-up-53a8",
      "meta": {
        "profile": [ "http://hl7.org/fhir/us/qicore/StructureDefinition/qicore-encounter" ]
      },
      "status": "finished",
      "class": {
        "system": "http://terminology.hl7.org/CodeSystem/v3-ActCode",
        "code": "AMB",
        "display": "ambulatory",
        "userSelected": true
      },
      "type": [ {
        "coding": [ {
          "system": "http://www.ama-assn.org/go/cpt",
          "version": "2021",
          "code": "99395",
          "display": "Periodic comprehensive preventive medicine reevaluation and management of an individual including an age and gender appropriate history, examination, counseling/anticipatory guidance/risk factor reduction interventions, and the ordering of laboratory/diagnostic procedures, established patient; 18-39 years",
          "userSelected": true
        } ]
      } ],
      "subject": {
        "reference": "Patient/b998e967-eb53-426b-a3a9-8226939efdb6"
      },
      "period": {
        "start": "2025-08-15T08:00:00.000+00:00",
        "end": "2025-08-15T08:15:00.000+00:00"
      }
    },
    "request": {
      "method": "POST",
      "url": "Encounter/preventive-care-services-established-office-visit-18-and-up-53a8"
    }
  }, {
    "fullUrl": "https://madie.cms.gov/Encounter/palliative-care-encounter-53a9",
    "resource": {
      "resourceType": "Encounter",
      "id": "palliative-care-encounter-53a9",
      "meta": {
        "profile": [ "http://hl7.org/fhir/us/qicore/StructureDefinition/qicore-encounter" ]
      },
      "status": "finished",
      "class": {
        "system": "http://terminology.hl7.org/CodeSystem/v3-ActCode",
        "code": "AMB",
        "display": "ambulatory",
        "userSelected": true
      },
      "type": [ {
        "coding": [ {
          "system": "http://snomed.info/sct",
          "version": "2021-09",
          "code": "305284002",
          "display": "Admission by palliative care physician (procedure)",
          "userSelected": true
        } ]
      } ],
      "subject": {
        "reference": "Patient/b998e967-eb53-426b-a3a9-8226939efdb6"
      },
      "period": {
        "start": "2025-08-15T08:00:00.000+00:00",
        "end": "2025-08-15T08:15:00.000+00:00"
      }
    },
    "request": {
      "method": "POST",
      "url": "Encounter/palliative-care-encounter-53a9"
    }
  }, {
    "fullUrl": "https://madie.cms.gov/MeasureReport/4566fdaa-4f1b-45fa-b65e-0343a6e98467",
    "resource": {
      "resourceType": "MeasureReport",
      "id": "4566fdaa-4f1b-45fa-b65e-0343a6e98467",
      "meta": {
        "profile": [ "http://hl7.org/fhir/us/cqfmeasures/StructureDefinition/test-case-cqfm" ]
      },
      "contained": [ {
        "resourceType": "Parameters",
        "id": "a9a7a030-143e-4dea-b19c-57f8782d6c8d-parameters",
        "parameter": [ {
          "name": "subject",
          "valueString": "b998e967-eb53-426b-a3a9-8226939efdb6"
        } ]
      } ],
      "extension": [ {
        "url": "http://hl7.org/fhir/us/cqfmeasures/StructureDefinition/cqfm-inputParameters",
        "valueReference": {
          "reference": "#a9a7a030-143e-4dea-b19c-57f8782d6c8d-parameters"
        }
      }, {
        "url": "http://hl7.org/fhir/us/cqfmeasures/StructureDefinition/cqfm-testCaseDescription",
        "valueMarkdown": "This patient has diabetes and both labs, plus end stage renal disease and all possible hospice encounters. This case tests the denominator exclusions."
      } ],
      "modifierExtension": [ {
        "url": "http://hl7.org/fhir/us/cqfmeasures/StructureDefinition/cqfm-isTestCase",
        "valueBoolean": true
      } ],
      "status": "complete",
      "type": "individual",
      "measure": "https://madie.cms.gov/Measure/KidneyHealthEvaluationFHIR",
      "period": {
        "start": "2025-01-01",
        "end": "2025-12-31"
      },
      "group": [ {
        "population": [ {
          "code": {
            "coding": [ {
              "system": "http://terminology.hl7.org/CodeSystem/measure-population",
              "code": "initial-population",
              "display": "Initial Population"
            } ]
          },
          "count": 1
        }, {
          "code": {
            "coding": [ {
              "system": "http://terminology.hl7.org/CodeSystem/measure-population",
              "code": "denominator",
              "display": "Denominator"
            } ]
          },
          "count": 1
        }, {
          "code": {
            "coding": [ {
              "system": "http://terminology.hl7.org/CodeSystem/measure-population",
              "code": "denominator-exclusion",
              "display": "Denominator Exclusion"
            } ]
          },
          "count": 1
        }, {
          "code": {
            "coding": [ {
              "system": "http://terminology.hl7.org/CodeSystem/measure-population",
              "code": "numerator",
              "display": "Numerator"
            } ]
          },
          "count": 0
        } ]
      } ],
      "evaluatedResource": [ {
        "reference": "Patient/b998e967-eb53-426b-a3a9-8226939efdb6"
      }, {
        "reference": "Condition/diabetes-e2ba"
      }, {
        "reference": "Encounter/office-visit-e2bb"
      }, {
        "reference": "Observation/estimated-glomerular-filtration-rate-5397"
      }, {
        "reference": "Observation/urine-albumin-creatinine-ratio-5398"
      }, {
        "reference": "Condition/end-stage-renal-disease-539d"
      }, {
        "reference": "Encounter/annual-wellness-visit-53a1"
      }, {
        "reference": "Encounter/outpatient-consultation-53a2"
      }, {
        "reference": "Encounter/hospice-encounter-53a3"
      }, {
        "reference": "Encounter/home-healthcare-services-53a5"
      }, {
        "reference": "Encounter/preventive-care-services-initial-office-visit-18-and-up-53a6"
      }, {
        "reference": "Encounter/telephone-visits-53a7"
      }, {
        "reference": "Encounter/preventive-care-services-established-office-visit-18-and-up-53a8"
      }, {
        "reference": "Encounter/palliative-care-encounter-53a9"
      } ]
    },
    "request": {
      "method": "POST",
      "url": "MeasureReport/4566fdaa-4f1b-45fa-b65e-0343a6e98467"
    }
  } ]
}