{"resourceType":"Bundle","id":"tests-451b6853-3734-4c1c-b37e-5904629e0350-bundle","type":"transaction","entry":[{"fullUrl":"https://madie.cms.gov/Patient/451b6853-3734-4c1c-b37e-5904629e0350","resource":{"resourceType":"Patient","id":"451b6853-3734-4c1c-b37e-5904629e0350","meta":{"profile":["http://hl7.org/fhir/us/qicore/StructureDefinition/qicore-patient"]},"text":{"status":"generated","div":"<div xmlns=\"http://www.w3.org/1999/xhtml\"><div class=\"hapiHeaderText\">3Enc2WithAntithrombotic1WithExcep1Exclu <b>NUMER&amp;DENEXCEPPASS- LCG </b></div><table class=\"hapiPropertyTable\"><tbody><tr><td>Identifier</td><td>be14f222c0646cc5d7ac050774528f5e42a5a6df28c00c64454006e7ac2a1af3</td></tr><tr><td>Date of birth</td><td><span>31 May 1989</span></td></tr></tbody></table></div>"},"extension":[{"url":"http://hl7.org/fhir/us/core/StructureDefinition/us-core-race","extension":[{"url":"ombCategory","valueCoding":{"system":"urn:oid:2.16.840.1.113883.6.238","code":"1002-5","display":"American Indian or Alaska Native","userSelected":true}},{"url":"text","valueString":"American Indian or Alaska Native"}]},{"url":"http://hl7.org/fhir/us/core/StructureDefinition/us-core-ethnicity","extension":[{"url":"ombCategory","valueCoding":{"system":"urn:oid:2.16.840.1.113883.6.238","code":"2135-2","display":"Hispanic or Latino","userSelected":true}},{"url":"text","valueString":"Hispanic or Latino"}]}],"identifier":[{"type":{"coding":[{"system":"http://terminology.hl7.org/CodeSystem/v2-0203","code":"MR"}]},"system":"https://bonnie-fhir.healthit.gov/","value":"6129131b02c62a011f2e5c89"}],"active":true,"name":[{"use":"usual","family":"NUMER&DENEXCEPPass- LCG","given":["3Enc2WithAntithrombotic1WithExcep1Exclu"]}],"gender":"male","birthDate":"1998-05-31"},"request":{"method":"PUT","url":"Patient/451b6853-3734-4c1c-b37e-5904629e0350"}},{"fullUrl":"https://madie.cms.gov/Encounter/5c9e2f9fb8484633ef4dc0e5","resource":{"resourceType":"Encounter","id":"a9722d63-179a-44c8-8dad-9749ca927e8d","meta":{"profile":["http://hl7.org/fhir/us/qicore/StructureDefinition/qicore-encounter"]},"status":"finished","class":{"system":"http://terminology.hl7.org/CodeSystem/v3-ActCode","code":"IMP","display":"inpatient encounter","userSelected":true},"type":[{"coding":[{"system":"http://snomed.info/sct","code":"183452005"}]}],"subject":{"reference":"Patient/451b6853-3734-4c1c-b37e-5904629e0350"},"period":{"start":"2025-06-14T09:30:00.000+00:00","end":"2025-06-25T10:30:00.000+00:00"},"length":{"value":0,"unit":"days"},"diagnosis":[{"condition":{"reference":"Condition/ischemic-stroke-7f2a"},"use":{"coding":[{"system":"http://terminology.hl7.org/CodeSystem/diagnosis-role","code":"billing","display":"Billing"}]},"rank":1}]},"request":{"method":"PUT","url":"Encounter/a9722d63-179a-44c8-8dad-9749ca927e8d"}},{"fullUrl":"https://madie.cms.gov/Encounter/5c9e2f9fb8484633ef4dc0e6","resource":{"resourceType":"Encounter","id":"0e54cabb-d5d4-402f-9fdd-2add2a0e2230","meta":{"profile":["http://hl7.org/fhir/us/qicore/StructureDefinition/qicore-encounter"]},"status":"finished","class":{"system":"http://terminology.hl7.org/CodeSystem/v3-ActCode","code":"IMP","display":"inpatient encounter","userSelected":true},"type":[{"coding":[{"system":"http://snomed.info/sct","code":"32485007"}]}],"subject":{"reference":"Patient/451b6853-3734-4c1c-b37e-5904629e0350"},"period":{"start":"2025-06-26T09:30:00.000+00:00","end":"2025-10-12T10:30:00.000+00:00"},"length":{"value":119,"unit":"days"},"diagnosis":[{"condition":{"reference":"Condition/ischemic-stroke-7f2b"},"use":{"coding":[{"system":"http://terminology.hl7.org/CodeSystem/diagnosis-role","code":"billing","display":"Billing"}]},"rank":1}],"hospitalization":{"dischargeDisposition":{"coding":[{"system":"http://snomed.info/sct","code":"428361000124107","display":"Discharge to home for hospice care (procedure)"}]}}},"request":{"method":"PUT","url":"Encounter/0e54cabb-d5d4-402f-9fdd-2add2a0e2230"}},{"fullUrl":"https://madie.cms.gov/Encounter/5e1f8a9ee6bd0c00001007bd","resource":{"resourceType":"Encounter","id":"2eeb15c6-8ca1-4122-8ab3-0ce53697f539","meta":{"profile":["http://hl7.org/fhir/us/qicore/StructureDefinition/qicore-encounter"]},"status":"finished","class":{"system":"http://terminology.hl7.org/CodeSystem/v3-ActCode","code":"IMP","display":"inpatient encounter","userSelected":true},"type":[{"coding":[{"system":"http://snomed.info/sct","code":"183452005"}]}],"subject":{"reference":"Patient/451b6853-3734-4c1c-b37e-5904629e0350"},"period":{"start":"2025-01-15T11:00:00.000+00:00","end":"2025-01-20T22:15:00.000+00:00"},"diagnosis":[{"condition":{"reference":"Condition/ischemic-stroke-7f2c"},"use":{"coding":[{"system":"http://terminology.hl7.org/CodeSystem/diagnosis-role","code":"billing","display":"Billing"}]},"rank":1}]},"request":{"method":"PUT","url":"Encounter/2eeb15c6-8ca1-4122-8ab3-0ce53697f539"}},{"fullUrl":"https://madie.cms.gov/ServiceRequest/5e29d1a21ec3e2000016289b","resource":{"resourceType":"ServiceRequest","id":"8867be1c-6e17-42ec-8513-bebd9695f64e","meta":{"profile":["http://hl7.org/fhir/us/qicore/StructureDefinition/qicore-servicerequest"]},"status":"active","intent":"order","code":{"coding":[{"system":"http://snomed.info/sct","code":"133918004"}]},"subject":{"reference":"Patient/451b6853-3734-4c1c-b37e-5904629e0350"},"authoredOn":"2025-01-15T11:00:00.000+00:00"},"request":{"method":"PUT","url":"ServiceRequest/8867be1c-6e17-42ec-8513-bebd9695f64e"}},{"fullUrl":"https://madie.cms.gov/MedicationRequest/5c9e2f9fb8484633ef4dc0e7","resource":{"resourceType":"MedicationRequest","id":"54564c85-54cd-4a6c-ad2f-f636807eed04","meta":{"profile":["http://hl7.org/fhir/us/qicore/StructureDefinition/qicore-medicationrequest"]},"status":"active","intent":"order","category":[{"coding":[{"system":"http://terminology.hl7.org/CodeSystem/medicationrequest-category","code":"discharge","display":"Discharge","userSelected":true}]}],"medicationCodeableConcept":{"coding":[{"system":"http://www.nlm.nih.gov/research/umls/rxnorm","code":"1037045"}]},"subject":{"reference":"Patient/451b6853-3734-4c1c-b37e-5904629e0350"},"authoredOn":"2025-10-10T10:00:00.000+00:00","requester":{"reference":"Practitioner/example"}},"request":{"method":"PUT","url":"MedicationRequest/54564c85-54cd-4a6c-ad2f-f636807eed04"}},{"fullUrl":"https://madie.cms.gov/MedicationRequest/5e1f89b2e6bd0c0000100733","resource":{"resourceType":"MedicationRequest","id":"e3ccdeab-b41e-4c4f-9833-61a473eb9913","meta":{"profile":["http://hl7.org/fhir/us/qicore/StructureDefinition/qicore-medicationrequest"]},"status":"active","intent":"order","category":[{"coding":[{"system":"http://terminology.hl7.org/CodeSystem/medicationrequest-category","code":"discharge","display":"Discharge","userSelected":true}]}],"medicationCodeableConcept":{"coding":[{"system":"http://www.nlm.nih.gov/research/umls/rxnorm","code":"1037045"}]},"subject":{"reference":"Patient/451b6853-3734-4c1c-b37e-5904629e0350"},"authoredOn":"2025-06-14T09:30:00.000+00:00","requester":{"reference":"Practitioner/example"}},"request":{"method":"PUT","url":"MedicationRequest/e3ccdeab-b41e-4c4f-9833-61a473eb9913"}},{"fullUrl":"https://madie.cms.gov/MedicationRequest/5e1f8b59e6bd0c0000100883","resource":{"resourceType":"MedicationRequest","id":"a273d350-a1e6-4496-b12b-f3354371a014","meta":{"profile":["http://hl7.org/fhir/us/qicore/StructureDefinition/qicore-medicationrequest"]},"status":"active","intent":"order","category":[{"coding":[{"system":"http://terminology.hl7.org/CodeSystem/medicationrequest-category","code":"discharge","display":"Discharge","userSelected":true}]}],"medicationCodeableConcept":{"coding":[{"system":"http://www.nlm.nih.gov/research/umls/rxnorm","code":"1116635"}]},"subject":{"reference":"Patient/451b6853-3734-4c1c-b37e-5904629e0350"},"authoredOn":"2025-06-14T09:30:00.000+00:00","requester":{"reference":"Practitioner/example"}},"request":{"method":"PUT","url":"MedicationRequest/a273d350-a1e6-4496-b12b-f3354371a014"}},{"fullUrl":"https://madie.cms.gov/Condition/ischemic-stroke-7f2a","resource":{"resourceType":"Condition","id":"db430188-5306-47a1-adb1-270d5039003f","meta":{"profile":["http://hl7.org/fhir/us/qicore/StructureDefinition/qicore-condition"]},"clinicalStatus":{"coding":[{"system":"http://terminology.hl7.org/CodeSystem/condition-clinical","code":"active"}]},"verificationStatus":{"coding":[{"system":"http://terminology.hl7.org/CodeSystem/condition-ver-status","code":"confirmed"}]},"category":[{"coding":[{"system":"http://terminology.hl7.org/CodeSystem/condition-category","code":"encounter-diagnosis","display":"Encounter Diagnosis"}]}],"code":{"coding":[{"system":"http://snomed.info/sct","version":"2020-09","code":"111297002","display":"Nonparalytic stroke (disorder)","userSelected":true}]},"subject":{"reference":"Patient/451b6853-3734-4c1c-b37e-5904629e0350"},"recordedDate":"2025-07-15T08:00:00.000+00:00"},"request":{"method":"PUT","url":"Condition/db430188-5306-47a1-adb1-270d5039003f"}},{"fullUrl":"https://madie.cms.gov/Condition/ischemic-stroke-7f2b","resource":{"resourceType":"Condition","id":"6d6c29f0-aa13-45a3-97dc-04d2cff76c71","meta":{"profile":["http://hl7.org/fhir/us/qicore/StructureDefinition/qicore-condition"]},"clinicalStatus":{"coding":[{"system":"http://terminology.hl7.org/CodeSystem/condition-clinical","code":"active"}]},"verificationStatus":{"coding":[{"system":"http://terminology.hl7.org/CodeSystem/condition-ver-status","code":"confirmed"}]},"category":[{"coding":[{"system":"http://terminology.hl7.org/CodeSystem/condition-category","code":"encounter-diagnosis","display":"Encounter Diagnosis"}]}],"code":{"coding":[{"system":"http://snomed.info/sct","version":"2020-09","code":"111297002","display":"Nonparalytic stroke (disorder)","userSelected":true}]},"subject":{"reference":"Patient/451b6853-3734-4c1c-b37e-5904629e0350"},"recordedDate":"2025-07-15T08:00:00.000+00:00"},"request":{"method":"PUT","url":"Condition/6d6c29f0-aa13-45a3-97dc-04d2cff76c71"}},{"fullUrl":"https://madie.cms.gov/Condition/ischemic-stroke-7f2c","resource":{"resourceType":"Condition","id":"15bb1643-68cc-4995-8639-77a38813ac82","meta":{"profile":["http://hl7.org/fhir/us/qicore/StructureDefinition/qicore-condition"]},"clinicalStatus":{"coding":[{"system":"http://terminology.hl7.org/CodeSystem/condition-clinical","code":"active"}]},"verificationStatus":{"coding":[{"system":"http://terminology.hl7.org/CodeSystem/condition-ver-status","code":"confirmed"}]},"category":[{"coding":[{"system":"http://terminology.hl7.org/CodeSystem/condition-category","code":"encounter-diagnosis","display":"Encounter Diagnosis"}]}],"code":{"coding":[{"system":"http://snomed.info/sct","version":"2020-09","code":"111297002","display":"Nonparalytic stroke (disorder)","userSelected":true}]},"subject":{"reference":"Patient/451b6853-3734-4c1c-b37e-5904629e0350"},"recordedDate":"2025-07-15T08:00:00.000+00:00"},"request":{"method":"PUT","url":"Condition/15bb1643-68cc-4995-8639-77a38813ac82"}},{"fullUrl":"https://madie.cms.gov/Coverage/1","resource":{"resourceType":"Coverage","id":"10507f8b-b081-4a19-bf66-f04837f07c48","meta":{"profile":["http://hl7.org/fhir/us/qicore/StructureDefinition/qicore-coverage"]},"status":"active","beneficiary":{"reference":"Patient/451b6853-3734-4c1c-b37e-5904629e0350"},"payor":[{"reference":"Organization/4b5a882f-1f43-485c-85c6-f5ad2337d5b1"}]},"request":{"method":"PUT","url":"Coverage/10507f8b-b081-4a19-bf66-f04837f07c48"}},{"fullUrl":"https://madie.cms.gov/Organization/123456","resource":{"resourceType":"Organization","id":"4b5a882f-1f43-485c-85c6-f5ad2337d5b1","meta":{"profile":["http://hl7.org/fhir/us/qicore/StructureDefinition/qicore-organization"]},"identifier":[{"use":"temp","system":"urn:oid:2.16.840.1.113883.4.4","value":"21-3259825"}],"active":true,"type":[{"coding":[{"system":"http://terminology.hl7.org/CodeSystem/organization-type","code":"pay","display":"Payer"}]}],"name":"Blue Cross Blue Shield of Texas","telecom":[{"system":"phone","value":"(+1) 972-766-6900"}],"address":[{"use":"billing","type":"postal","line":["P.O. Box 660044"],"city":"Dallas","state":"TX","postalCode":"75266-0044","country":"USA"}]},"request":{"method":"PUT","url":"Organization/4b5a882f-1f43-485c-85c6-f5ad2337d5b1"}},{"fullUrl":"https://madie.cms.gov/MeasureReport/14d94a99-90dd-4747-add2-28c2b6d235c7","resource":{"resourceType":"MeasureReport","id":"14d94a99-90dd-4747-add2-28c2b6d235c7","meta":{"profile":["http://hl7.org/fhir/us/cqfmeasures/StructureDefinition/test-case-cqfm"]},"contained":[{"resourceType":"Parameters","id":"abcf35c8-b9b9-4213-9639-8319724a9b69-parameters","parameter":[{"name":"subject","valueString":"451b6853-3734-4c1c-b37e-5904629e0350"}]}],"extension":[{"url":"http://hl7.org/fhir/us/cqfmeasures/StructureDefinition/cqfm-inputParameters","valueReference":{"reference":"#abcf35c8-b9b9-4213-9639-8319724a9b69-parameters"}},{"url":"http://hl7.org/fhir/us/cqfmeasures/StructureDefinition/cqfm-testCaseDescription","valueMarkdown":"Multiple Episodes of Care:  NUMER, DENEX, DENEX\n"}],"modifierExtension":[{"url":"http://hl7.org/fhir/us/cqfmeasures/StructureDefinition/cqfm-isTestCase","valueBoolean":true}],"status":"complete","type":"individual","measure":"https://madie.cms.gov/Measure/DischargedonAntithromboticTherapyFHIR","period":{"start":"2025-01-01","end":"2025-12-31"},"group":[{"population":[{"code":{"coding":[{"system":"http://terminology.hl7.org/CodeSystem/measure-population","code":"initial-population","display":"Initial Population"}]},"count":3},{"code":{"coding":[{"system":"http://terminology.hl7.org/CodeSystem/measure-population","code":"denominator","display":"Denominator"}]},"count":3},{"code":{"coding":[{"system":"http://terminology.hl7.org/CodeSystem/measure-population","code":"denominator-exclusion","display":"Denominator Exclusion"}]},"count":2},{"code":{"coding":[{"system":"http://terminology.hl7.org/CodeSystem/measure-population","code":"numerator","display":"Numerator"}]},"count":1},{"code":{"coding":[{"system":"http://terminology.hl7.org/CodeSystem/measure-population","code":"denominator-exception","display":"Denominator Exception"}]},"count":0}]}]},"request":{"method":"PUT","url":"MeasureReport/14d94a99-90dd-4747-add2-28c2b6d235c7"}}]}