{"resourceType":"Bundle","id":"tests-8493a3fb-9501-4aa2-83a3-39fbafa6644c-bundle","type":"transaction","entry":[{"fullUrl":"https://madie.cms.gov/Patient/8493a3fb-9501-4aa2-83a3-39fbafa6644c","resource":{"resourceType":"Patient","id":"8493a3fb-9501-4aa2-83a3-39fbafa6644c","meta":{"profile":["http://hl7.org/fhir/us/qicore/StructureDefinition/qicore-patient"]},"text":{"status":"generated","div":"<div xmlns=\"http://www.w3.org/1999/xhtml\"><div class=\"hapiHeaderText\">NonEleInpEncounter_AgeGT18LOSLT120Race <b>IPPASS </b></div><table class=\"hapiPropertyTable\"><tbody><tr><td>Identifier</td><td>98bbafa0f3f0ba2f58ea7c825e2454d6</td></tr><tr><td>Date of birth</td><td><span>20 August 1993</span></td></tr></tbody></table></div>"},"extension":[{"url":"http://hl7.org/fhir/us/core/StructureDefinition/us-core-race","extension":[{"url":"ombCategory","valueCoding":{"system":"urn:oid:2.16.840.1.113883.6.238","code":"2054-5","display":"Black or African American","userSelected":true}},{"url":"text","valueString":"Black or African American"}]},{"url":"http://hl7.org/fhir/us/core/StructureDefinition/us-core-ethnicity","extension":[{"url":"ombCategory","valueCoding":{"system":"urn:oid:2.16.840.1.113883.6.238","code":"2186-5","display":"Not Hispanic or Latino","userSelected":true}},{"url":"text","valueString":"Not Hispanic or Latino"}]}],"identifier":[{"type":{"coding":[{"system":"http://terminology.hl7.org/CodeSystem/v2-0203","code":"MR"}]},"system":"https://bonnie-fhir.healthit.gov/","value":"6129135b02c62a011f2e77cf"}],"active":true,"name":[{"use":"usual","family":"IPPass","given":["NonEleInpEncounter_AgeGT18LOSLT120Race"]}],"gender":"female","birthDate":"2002-08-20"},"request":{"method":"PUT","url":"Patient/8493a3fb-9501-4aa2-83a3-39fbafa6644c"}},{"fullUrl":"https://madie.cms.gov/Encounter/5c954112b8484612c37f277f","resource":{"resourceType":"Encounter","id":"07ac009e-5215-4a13-a186-420918152bb2","meta":{"profile":["http://hl7.org/fhir/us/qicore/StructureDefinition/qicore-encounter"]},"status":"finished","class":{"system":"http://terminology.hl7.org/CodeSystem/v3-ActCode","code":"IMP","display":"inpatient encounter","userSelected":true},"type":[{"coding":[{"system":"http://snomed.info/sct","code":"32485007"}]}],"subject":{"reference":"Patient/8493a3fb-9501-4aa2-83a3-39fbafa6644c"},"period":{"start":"2025-08-21T00:00:00.000+00:00","end":"2025-12-18T23:59:00.000+00:00"},"length":{"value":119,"unit":"days"},"diagnosis":[{"condition":{"reference":"Condition/ischemic-stroke-7f1e"},"use":{"coding":[{"system":"http://terminology.hl7.org/CodeSystem/diagnosis-role","code":"billing","display":"Billing"}]},"rank":1}]},"request":{"method":"PUT","url":"Encounter/07ac009e-5215-4a13-a186-420918152bb2"}},{"fullUrl":"https://madie.cms.gov/Condition/ischemic-stroke-7f1e","resource":{"resourceType":"Condition","id":"335b5b47-59f7-4034-af6e-ef0ba9f750f8","meta":{"profile":["http://hl7.org/fhir/us/qicore/StructureDefinition/qicore-condition"]},"clinicalStatus":{"coding":[{"system":"http://terminology.hl7.org/CodeSystem/condition-clinical","code":"active"}]},"verificationStatus":{"coding":[{"system":"http://terminology.hl7.org/CodeSystem/condition-ver-status","code":"confirmed"}]},"category":[{"coding":[{"system":"http://terminology.hl7.org/CodeSystem/condition-category","code":"encounter-diagnosis","display":"Encounter Diagnosis"}]}],"code":{"coding":[{"system":"http://snomed.info/sct","version":"2020-09","code":"111297002","display":"Nonparalytic stroke (disorder)","userSelected":true}]},"subject":{"reference":"Patient/8493a3fb-9501-4aa2-83a3-39fbafa6644c"},"recordedDate":"2025-07-15T08:00:00.000+00:00"},"request":{"method":"PUT","url":"Condition/335b5b47-59f7-4034-af6e-ef0ba9f750f8"}},{"fullUrl":"https://madie.cms.gov/Coverage/1","resource":{"resourceType":"Coverage","id":"993975f1-6b77-4155-89d7-97d17f8acd6b","meta":{"profile":["http://hl7.org/fhir/us/qicore/StructureDefinition/qicore-coverage"]},"status":"active","beneficiary":{"reference":"Patient/8493a3fb-9501-4aa2-83a3-39fbafa6644c"},"payor":[{"reference":"Organization/4b5a882f-1f43-485c-85c6-f5ad2337d5b1"}]},"request":{"method":"PUT","url":"Coverage/993975f1-6b77-4155-89d7-97d17f8acd6b"}},{"fullUrl":"https://madie.cms.gov/Organization/123456","resource":{"resourceType":"Organization","id":"4b5a882f-1f43-485c-85c6-f5ad2337d5b1","meta":{"profile":["http://hl7.org/fhir/us/qicore/StructureDefinition/qicore-organization"]},"identifier":[{"use":"temp","system":"urn:oid:2.16.840.1.113883.4.4","value":"21-3259825"}],"active":true,"type":[{"coding":[{"system":"http://terminology.hl7.org/CodeSystem/organization-type","code":"pay","display":"Payer"}]}],"name":"Blue Cross Blue Shield of Texas","telecom":[{"system":"phone","value":"(+1) 972-766-6900"}],"address":[{"use":"billing","type":"postal","line":["P.O. Box 660044"],"city":"Dallas","state":"TX","postalCode":"75266-0044","country":"USA"}]},"request":{"method":"PUT","url":"Organization/4b5a882f-1f43-485c-85c6-f5ad2337d5b1"}},{"fullUrl":"https://madie.cms.gov/MeasureReport/feeb7b2c-f303-4f08-9bcf-b738376b48f5","resource":{"resourceType":"MeasureReport","id":"feeb7b2c-f303-4f08-9bcf-b738376b48f5","meta":{"profile":["http://hl7.org/fhir/us/cqfmeasures/StructureDefinition/test-case-cqfm"]},"contained":[{"resourceType":"Parameters","id":"5e610a98-49f5-477d-b017-9440246d6cca-parameters","parameter":[{"name":"subject","valueString":"8493a3fb-9501-4aa2-83a3-39fbafa6644c"}]}],"extension":[{"url":"http://hl7.org/fhir/us/cqfmeasures/StructureDefinition/cqfm-inputParameters","valueReference":{"reference":"#5e610a98-49f5-477d-b017-9440246d6cca-parameters"}},{"url":"http://hl7.org/fhir/us/cqfmeasures/StructureDefinition/cqfm-testCaseDescription","valueMarkdown":"Patient is greater than 18 with Non-Elective Inpatient Encounter (LOS 119 days) with principal diagnosis of ischemic stroke ends during MP and is female, with varied race. \n"}],"modifierExtension":[{"url":"http://hl7.org/fhir/us/cqfmeasures/StructureDefinition/cqfm-isTestCase","valueBoolean":true}],"status":"complete","type":"individual","measure":"https://madie.cms.gov/Measure/DischargedonAntithromboticTherapyFHIR","period":{"start":"2025-01-01","end":"2025-12-31"},"group":[{"population":[{"code":{"coding":[{"system":"http://terminology.hl7.org/CodeSystem/measure-population","code":"initial-population","display":"Initial Population"}]},"count":1},{"code":{"coding":[{"system":"http://terminology.hl7.org/CodeSystem/measure-population","code":"denominator","display":"Denominator"}]},"count":1},{"code":{"coding":[{"system":"http://terminology.hl7.org/CodeSystem/measure-population","code":"denominator-exclusion","display":"Denominator Exclusion"}]},"count":0},{"code":{"coding":[{"system":"http://terminology.hl7.org/CodeSystem/measure-population","code":"numerator","display":"Numerator"}]},"count":0},{"code":{"coding":[{"system":"http://terminology.hl7.org/CodeSystem/measure-population","code":"denominator-exception","display":"Denominator Exception"}]},"count":0}]}]},"request":{"method":"PUT","url":"MeasureReport/feeb7b2c-f303-4f08-9bcf-b738376b48f5"}}]}