{"resourceType":"Bundle","id":"tests-ba8bb5f1-966b-4ac1-a311-b2550c0e4858-bundle","type":"transaction","entry":[{"fullUrl":"https://madie.cms.gov/Patient/ba8bb5f1-966b-4ac1-a311-b2550c0e4858","resource":{"resourceType":"Patient","id":"ba8bb5f1-966b-4ac1-a311-b2550c0e4858","meta":{"profile":["http://hl7.org/fhir/us/qicore/StructureDefinition/qicore-patient"]},"text":{"status":"generated","div":"<div xmlns=\"http://www.w3.org/1999/xhtml\"><div class=\"hapiHeaderText\"> CMOdurObs_ED&lt;1hrObs=1hrBFEnc <b>DENEXPASS </b></div><table class=\"hapiPropertyTable\"><tbody><tr><td>Identifier</td><td>dc7e6049ea43f7ad31b61fb7a8136fca8505eb34b7c74639e804e4d17e525cbe</td></tr><tr><td>Date of birth</td><td><span>21 August 1994</span></td></tr></tbody></table></div>"},"extension":[{"url":"http://hl7.org/fhir/us/core/StructureDefinition/us-core-race","extension":[{"url":"ombCategory","valueCoding":{"system":"urn:oid:2.16.840.1.113883.6.238","code":"1002-5","display":"American Indian or Alaska Native","userSelected":true}},{"url":"text","valueString":"American Indian or Alaska Native"}]},{"url":"http://hl7.org/fhir/us/core/StructureDefinition/us-core-ethnicity","extension":[{"url":"ombCategory","valueCoding":{"system":"urn:oid:2.16.840.1.113883.6.238","code":"2135-2","display":"Hispanic or Latino","userSelected":true}},{"url":"text","valueString":"Hispanic or Latino"}]}],"identifier":[{"type":{"coding":[{"system":"http://terminology.hl7.org/CodeSystem/v2-0203","code":"MR"}]},"system":"https://bonnie-fhir.healthit.gov/","value":"6129134802c62a011f2e6ecd"}],"active":true,"name":[{"use":"usual","family":"DENEXPass","given":["CMOdurObs_ED<1hrObs=1hrBFEnc"]}],"gender":"male","birthDate":"1994-08-21"},"request":{"method":"PUT","url":"Patient/ba8bb5f1-966b-4ac1-a311-b2550c0e4858"}},{"fullUrl":"https://madie.cms.gov/Encounter/5c954113b8484612c37f27e6","resource":{"resourceType":"Encounter","id":"6f3dc1fe-c210-4eb7-863d-b5b03c3cb54f","meta":{"profile":["http://hl7.org/fhir/us/qicore/StructureDefinition/qicore-encounter"]},"status":"finished","class":{"system":"http://terminology.hl7.org/CodeSystem/v3-ActCode","code":"EMER","display":"emergency","userSelected":true},"type":[{"coding":[{"system":"http://snomed.info/sct","code":"4525004"}]}],"subject":{"reference":"Patient/ba8bb5f1-966b-4ac1-a311-b2550c0e4858"},"period":{"start":"2025-10-10T07:30:00.000+00:00","end":"2025-10-10T08:00:00.000+00:00"},"length":{"value":0,"unit":"days"}},"request":{"method":"PUT","url":"Encounter/6f3dc1fe-c210-4eb7-863d-b5b03c3cb54f"}},{"fullUrl":"https://madie.cms.gov/Encounter/5c954113b8484612c37f27e7","resource":{"resourceType":"Encounter","id":"91faf8e6-afd3-4ce8-bd53-c978efdd657a","meta":{"profile":["http://hl7.org/fhir/us/qicore/StructureDefinition/qicore-encounter"]},"status":"finished","class":{"system":"http://terminology.hl7.org/CodeSystem/v3-ActCode","code":"OBSENC","display":"observation encounter","userSelected":true},"type":[{"coding":[{"system":"http://snomed.info/sct","code":"448951000124107"}]}],"subject":{"reference":"Patient/ba8bb5f1-966b-4ac1-a311-b2550c0e4858"},"period":{"start":"2025-10-10T08:01:00.000+00:00","end":"2025-10-10T08:05:00.000+00:00"},"length":{"value":0,"unit":"days"}},"request":{"method":"PUT","url":"Encounter/91faf8e6-afd3-4ce8-bd53-c978efdd657a"}},{"fullUrl":"https://madie.cms.gov/Encounter/5c954113b8484612c37f27e8","resource":{"resourceType":"Encounter","id":"b581b1dc-e232-47b6-a04e-91091cf88810","meta":{"profile":["http://hl7.org/fhir/us/qicore/StructureDefinition/qicore-encounter"]},"status":"finished","class":{"system":"http://terminology.hl7.org/CodeSystem/v3-ActCode","code":"IMP","display":"inpatient encounter","userSelected":true},"type":[{"coding":[{"system":"http://snomed.info/sct","code":"32485007"}]}],"subject":{"reference":"Patient/ba8bb5f1-966b-4ac1-a311-b2550c0e4858"},"period":{"start":"2025-10-10T09:05:00.000+00:00","end":"2025-10-12T10:30:00.000+00:00"},"length":{"value":2,"unit":"days"},"diagnosis":[{"condition":{"reference":"Condition/ischemic-stroke-7efc"},"use":{"coding":[{"system":"http://terminology.hl7.org/CodeSystem/diagnosis-role","code":"billing","display":"Billing"}]},"rank":1}]},"request":{"method":"PUT","url":"Encounter/b581b1dc-e232-47b6-a04e-91091cf88810"}},{"fullUrl":"https://madie.cms.gov/ServiceRequest/5c954113b8484612c37f27ea","resource":{"resourceType":"ServiceRequest","id":"d8f68d13-53fe-41a7-b2a4-0ff13e51ad45","meta":{"profile":["http://hl7.org/fhir/us/qicore/StructureDefinition/qicore-servicerequest"]},"status":"active","intent":"order","code":{"coding":[{"system":"http://snomed.info/sct","code":"133918004"}]},"subject":{"reference":"Patient/ba8bb5f1-966b-4ac1-a311-b2550c0e4858"},"authoredOn":"2025-10-10T08:01:00.000+00:00"},"request":{"method":"PUT","url":"ServiceRequest/d8f68d13-53fe-41a7-b2a4-0ff13e51ad45"}},{"fullUrl":"https://madie.cms.gov/Condition/ischemic-stroke-7efc","resource":{"resourceType":"Condition","id":"27f1983c-f5d8-4d99-9588-509c71fe7893","meta":{"profile":["http://hl7.org/fhir/us/qicore/StructureDefinition/qicore-condition"]},"clinicalStatus":{"coding":[{"system":"http://terminology.hl7.org/CodeSystem/condition-clinical","code":"active"}]},"verificationStatus":{"coding":[{"system":"http://terminology.hl7.org/CodeSystem/condition-ver-status","code":"confirmed"}]},"category":[{"coding":[{"system":"http://terminology.hl7.org/CodeSystem/condition-category","code":"encounter-diagnosis","display":"Encounter Diagnosis"}]}],"code":{"coding":[{"system":"http://snomed.info/sct","version":"2020-09","code":"111297002","display":"Nonparalytic stroke (disorder)","userSelected":true}]},"subject":{"reference":"Patient/ba8bb5f1-966b-4ac1-a311-b2550c0e4858"},"recordedDate":"2025-07-14T08:00:00.000+00:00"},"request":{"method":"PUT","url":"Condition/27f1983c-f5d8-4d99-9588-509c71fe7893"}},{"fullUrl":"https://madie.cms.gov/MeasureReport/f6256b5a-6b22-47e9-8e97-5146998f0071","resource":{"resourceType":"MeasureReport","id":"f6256b5a-6b22-47e9-8e97-5146998f0071","meta":{"profile":["http://hl7.org/fhir/us/cqfmeasures/StructureDefinition/test-case-cqfm"]},"contained":[{"resourceType":"Parameters","id":"3470d2bb-f46a-4825-b1b3-96eebe33cf19-parameters","parameter":[{"name":"subject","valueString":"ba8bb5f1-966b-4ac1-a311-b2550c0e4858"}]}],"extension":[{"url":"http://hl7.org/fhir/us/cqfmeasures/StructureDefinition/cqfm-inputParameters","valueReference":{"reference":"#3470d2bb-f46a-4825-b1b3-96eebe33cf19-parameters"}},{"url":"http://hl7.org/fhir/us/cqfmeasures/StructureDefinition/cqfm-testCaseDescription","valueMarkdown":"Patient receives CMO during observation.ED ends 1 min before Obs. Obs ends 60 min before inpatient encounter start. Testing day of operator with HospitalizationWithObservation function."}],"modifierExtension":[{"url":"http://hl7.org/fhir/us/cqfmeasures/StructureDefinition/cqfm-isTestCase","valueBoolean":true}],"status":"complete","type":"individual","measure":"https://madie.cms.gov/Measure/DischargedonAntithromboticTherapyFHIR","period":{"start":"2025-01-01","end":"2025-12-31"},"group":[{"population":[{"code":{"coding":[{"system":"http://terminology.hl7.org/CodeSystem/measure-population","code":"initial-population","display":"Initial Population"}]},"count":1},{"code":{"coding":[{"system":"http://terminology.hl7.org/CodeSystem/measure-population","code":"denominator","display":"Denominator"}]},"count":1},{"code":{"coding":[{"system":"http://terminology.hl7.org/CodeSystem/measure-population","code":"denominator-exclusion","display":"Denominator Exclusion"}]},"count":1},{"code":{"coding":[{"system":"http://terminology.hl7.org/CodeSystem/measure-population","code":"numerator","display":"Numerator"}]},"count":0},{"code":{"coding":[{"system":"http://terminology.hl7.org/CodeSystem/measure-population","code":"denominator-exception","display":"Denominator Exception"}]},"count":0}]}]},"request":{"method":"PUT","url":"MeasureReport/f6256b5a-6b22-47e9-8e97-5146998f0071"}}]}