{"resourceType":"Bundle","id":"tests-b536acae-02c7-4c6e-914b-4ea199d98f79-bundle","type":"transaction","entry":[{"fullUrl":"https://madie.cms.gov/Patient/b536acae-02c7-4c6e-914b-4ea199d98f79","resource":{"resourceType":"Patient","id":"b536acae-02c7-4c6e-914b-4ea199d98f79","meta":{"profile":["http://hl7.org/fhir/us/qicore/StructureDefinition/qicore-patient"]},"text":{"status":"generated","div":"<div xmlns=\"http://www.w3.org/1999/xhtml\"><div class=\"hapiHeaderText\">CMOdurEncTM_EDEndTM=ObsTM_ObsEndTM=EncTM <b>DENEXPASS </b></div><table class=\"hapiPropertyTable\"><tbody><tr><td>Identifier</td><td>adf247755348532f73cb3b0d90981ec3</td></tr><tr><td>Date of birth</td><td><span>21 August 1994</span></td></tr></tbody></table></div>"},"extension":[{"url":"http://hl7.org/fhir/us/core/StructureDefinition/us-core-race","extension":[{"url":"ombCategory","valueCoding":{"system":"urn:oid:2.16.840.1.113883.6.238","code":"1002-5","display":"American Indian or Alaska Native","userSelected":true}},{"url":"text","valueString":"American Indian or Alaska Native"}]},{"url":"http://hl7.org/fhir/us/core/StructureDefinition/us-core-ethnicity","extension":[{"url":"ombCategory","valueCoding":{"system":"urn:oid:2.16.840.1.113883.6.238","code":"2135-2","display":"Hispanic or Latino","userSelected":true}},{"url":"text","valueString":"Hispanic or Latino"}]}],"identifier":[{"type":{"coding":[{"system":"http://terminology.hl7.org/CodeSystem/v2-0203","code":"MR"}]},"system":"https://bonnie-fhir.healthit.gov/","value":"6129132c02c62a011f2e628f"}],"active":true,"name":[{"use":"usual","family":"DENEXPass","given":["CMOdurEncTM_EDEndTM=ObsTM_ObsEndTM=EncTM"]}],"gender":"male","birthDate":"1994-08-21"},"request":{"method":"PUT","url":"Patient/b536acae-02c7-4c6e-914b-4ea199d98f79"}},{"fullUrl":"https://madie.cms.gov/Encounter/5c954112b8484612c37f27c8","resource":{"resourceType":"Encounter","id":"5efa6a34-bd94-4f61-b8db-5a3aea2050dc","meta":{"profile":["http://hl7.org/fhir/us/qicore/StructureDefinition/qicore-encounter"]},"status":"finished","class":{"system":"http://terminology.hl7.org/CodeSystem/v3-ActCode","code":"EMER","display":"emergency","userSelected":true},"type":[{"coding":[{"system":"http://snomed.info/sct","code":"4525004"}]}],"subject":{"reference":"Patient/b536acae-02c7-4c6e-914b-4ea199d98f79"},"period":{"start":"2025-10-10T08:30:00.000+00:00","end":"2025-10-10T09:30:00.000+00:00"},"length":{"value":0,"unit":"days"}},"request":{"method":"PUT","url":"Encounter/5efa6a34-bd94-4f61-b8db-5a3aea2050dc"}},{"fullUrl":"https://madie.cms.gov/Encounter/5c954112b8484612c37f27c9","resource":{"resourceType":"Encounter","id":"5a03888f-e605-424a-b96d-231d46d2bd29","meta":{"profile":["http://hl7.org/fhir/us/qicore/StructureDefinition/qicore-encounter"]},"status":"finished","class":{"system":"http://terminology.hl7.org/CodeSystem/v3-ActCode","code":"OBSENC","display":"observation encounter","userSelected":true},"type":[{"coding":[{"system":"http://snomed.info/sct","code":"448851000124103"}]}],"subject":{"reference":"Patient/b536acae-02c7-4c6e-914b-4ea199d98f79"},"period":{"start":"2025-10-10T09:30:00.000+00:00","end":"2025-10-10T09:35:00.000+00:00"},"length":{"value":0,"unit":"days"}},"request":{"method":"PUT","url":"Encounter/5a03888f-e605-424a-b96d-231d46d2bd29"}},{"fullUrl":"https://madie.cms.gov/Encounter/5c954112b8484612c37f27ca","resource":{"resourceType":"Encounter","id":"1bf183e7-3ba3-4448-8ad3-e2494f92f5c6","meta":{"profile":["http://hl7.org/fhir/us/qicore/StructureDefinition/qicore-encounter"]},"status":"finished","class":{"system":"http://terminology.hl7.org/CodeSystem/v3-ActCode","code":"IMP","display":"inpatient encounter","userSelected":true},"type":[{"coding":[{"system":"http://snomed.info/sct","code":"32485007"}]}],"subject":{"reference":"Patient/b536acae-02c7-4c6e-914b-4ea199d98f79"},"period":{"start":"2025-10-10T09:35:00.000+00:00","end":"2025-10-12T10:30:00.000+00:00"},"length":{"value":2,"unit":"days"},"diagnosis":[{"condition":{"reference":"Condition/ischemic-stroke-7f01"},"use":{"coding":[{"system":"http://terminology.hl7.org/CodeSystem/diagnosis-role","code":"billing","display":"Billing"}]},"rank":1}]},"request":{"method":"PUT","url":"Encounter/1bf183e7-3ba3-4448-8ad3-e2494f92f5c6"}},{"fullUrl":"https://madie.cms.gov/ServiceRequest/5c954112b8484612c37f27cc","resource":{"resourceType":"ServiceRequest","id":"dab3b8b6-ca9e-4ef3-a3dc-6f8b119a41db","meta":{"profile":["http://hl7.org/fhir/us/qicore/StructureDefinition/qicore-servicerequest"]},"status":"active","intent":"order","code":{"coding":[{"system":"http://snomed.info/sct","code":"133918004"}]},"subject":{"reference":"Patient/b536acae-02c7-4c6e-914b-4ea199d98f79"},"authoredOn":"2025-10-10T09:35:00.000+00:00"},"request":{"method":"PUT","url":"ServiceRequest/dab3b8b6-ca9e-4ef3-a3dc-6f8b119a41db"}},{"fullUrl":"https://madie.cms.gov/Condition/ischemic-stroke-7f01","resource":{"resourceType":"Condition","id":"88a506bc-e807-4fc0-9cb0-39a6fdbfd656","meta":{"profile":["http://hl7.org/fhir/us/qicore/StructureDefinition/qicore-condition"]},"clinicalStatus":{"coding":[{"system":"http://terminology.hl7.org/CodeSystem/condition-clinical","code":"active"}]},"verificationStatus":{"coding":[{"system":"http://terminology.hl7.org/CodeSystem/condition-ver-status","code":"confirmed"}]},"category":[{"coding":[{"system":"http://terminology.hl7.org/CodeSystem/condition-category","code":"encounter-diagnosis","display":"Encounter Diagnosis"}]}],"code":{"coding":[{"system":"http://snomed.info/sct","version":"2020-09","code":"111297002","display":"Nonparalytic stroke (disorder)","userSelected":true}]},"subject":{"reference":"Patient/b536acae-02c7-4c6e-914b-4ea199d98f79"},"recordedDate":"2025-07-14T08:00:00.000+00:00"},"request":{"method":"PUT","url":"Condition/88a506bc-e807-4fc0-9cb0-39a6fdbfd656"}},{"fullUrl":"https://madie.cms.gov/Coverage/1","resource":{"resourceType":"Coverage","id":"43e546d8-f481-4938-9dd1-9d5f250b0a4e","meta":{"profile":["http://hl7.org/fhir/us/qicore/StructureDefinition/qicore-coverage"]},"status":"active","beneficiary":{"reference":"Patient/b536acae-02c7-4c6e-914b-4ea199d98f79"},"payor":[{"reference":"Organization/4b5a882f-1f43-485c-85c6-f5ad2337d5b1"}]},"request":{"method":"PUT","url":"Coverage/43e546d8-f481-4938-9dd1-9d5f250b0a4e"}},{"fullUrl":"https://madie.cms.gov/Organization/123456","resource":{"resourceType":"Organization","id":"4b5a882f-1f43-485c-85c6-f5ad2337d5b1","meta":{"profile":["http://hl7.org/fhir/us/qicore/StructureDefinition/qicore-organization"]},"identifier":[{"use":"temp","system":"urn:oid:2.16.840.1.113883.4.4","value":"21-3259825"}],"active":true,"type":[{"coding":[{"system":"http://terminology.hl7.org/CodeSystem/organization-type","code":"pay","display":"Payer"}]}],"name":"Blue Cross Blue Shield of Texas","telecom":[{"system":"phone","value":"(+1) 972-766-6900"}],"address":[{"use":"billing","type":"postal","line":["P.O. Box 660044"],"city":"Dallas","state":"TX","postalCode":"75266-0044","country":"USA"}]},"request":{"method":"PUT","url":"Organization/4b5a882f-1f43-485c-85c6-f5ad2337d5b1"}},{"fullUrl":"https://madie.cms.gov/MeasureReport/5aca9742-b988-46aa-9c95-3ded66fdbf1f","resource":{"resourceType":"MeasureReport","id":"5aca9742-b988-46aa-9c95-3ded66fdbf1f","meta":{"profile":["http://hl7.org/fhir/us/cqfmeasures/StructureDefinition/test-case-cqfm"]},"contained":[{"resourceType":"Parameters","id":"c04d5703-7ef3-4697-9bfe-a7161ea405be-parameters","parameter":[{"name":"subject","valueString":"b536acae-02c7-4c6e-914b-4ea199d98f79"}]}],"extension":[{"url":"http://hl7.org/fhir/us/cqfmeasures/StructureDefinition/cqfm-inputParameters","valueReference":{"reference":"#c04d5703-7ef3-4697-9bfe-a7161ea405be-parameters"}},{"url":"http://hl7.org/fhir/us/cqfmeasures/StructureDefinition/cqfm-testCaseDescription","valueMarkdown":"Patient receives CMO on IP start. ED ends on OBS start and OBS ends on IP start. Testing day of operator with HospitalizationWithObservation function.\n"}],"modifierExtension":[{"url":"http://hl7.org/fhir/us/cqfmeasures/StructureDefinition/cqfm-isTestCase","valueBoolean":true}],"status":"complete","type":"individual","measure":"https://madie.cms.gov/Measure/DischargedonAntithromboticTherapyFHIR","period":{"start":"2025-01-01","end":"2025-12-31"},"group":[{"population":[{"code":{"coding":[{"system":"http://terminology.hl7.org/CodeSystem/measure-population","code":"initial-population","display":"Initial Population"}]},"count":1},{"code":{"coding":[{"system":"http://terminology.hl7.org/CodeSystem/measure-population","code":"denominator","display":"Denominator"}]},"count":1},{"code":{"coding":[{"system":"http://terminology.hl7.org/CodeSystem/measure-population","code":"denominator-exclusion","display":"Denominator Exclusion"}]},"count":1},{"code":{"coding":[{"system":"http://terminology.hl7.org/CodeSystem/measure-population","code":"numerator","display":"Numerator"}]},"count":0},{"code":{"coding":[{"system":"http://terminology.hl7.org/CodeSystem/measure-population","code":"denominator-exception","display":"Denominator Exception"}]},"count":0}]}]},"request":{"method":"PUT","url":"MeasureReport/5aca9742-b988-46aa-9c95-3ded66fdbf1f"}}]}