{"resourceType":"Bundle","id":"tests-a2b8327c-eaf4-4552-863e-851426e729d4-bundle","type":"transaction","entry":[{"fullUrl":"https://madie.cms.gov/Patient/a2b8327c-eaf4-4552-863e-851426e729d4","resource":{"resourceType":"Patient","id":"a2b8327c-eaf4-4552-863e-851426e729d4","meta":{"profile":["http://hl7.org/fhir/us/qicore/StructureDefinition/qicore-patient"]},"text":{"status":"generated","div":"<div xmlns=\"http://www.w3.org/1999/xhtml\"><div class=\"hapiHeaderText\">2Enc3WithAntithrombotic <b>NUMER&amp;DENEXCEPPASS- LCG </b></div><table class=\"hapiPropertyTable\"><tbody><tr><td>Identifier</td><td>be14f222c0646cc5d7ac050774528f5e42a5a6df28c00c64454006e7ac2a1af3</td></tr><tr><td>Date of birth</td><td><span>31 May 1989</span></td></tr></tbody></table></div>"},"extension":[{"url":"http://hl7.org/fhir/us/core/StructureDefinition/us-core-race","extension":[{"url":"ombCategory","valueCoding":{"system":"urn:oid:2.16.840.1.113883.6.238","code":"1002-5","display":"American Indian or Alaska Native","userSelected":true}},{"url":"text","valueString":"American Indian or Alaska Native"}]},{"url":"http://hl7.org/fhir/us/core/StructureDefinition/us-core-ethnicity","extension":[{"url":"ombCategory","valueCoding":{"system":"urn:oid:2.16.840.1.113883.6.238","code":"2135-2","display":"Hispanic or Latino","userSelected":true}},{"url":"text","valueString":"Hispanic or Latino"}]}],"identifier":[{"type":{"coding":[{"system":"http://terminology.hl7.org/CodeSystem/v2-0203","code":"MR"}]},"system":"https://bonnie-fhir.healthit.gov/","value":"6129131702c62a011f2e59fa"}],"active":true,"name":[{"use":"usual","family":"NUMER&DENEXCEPPass- LCG","given":["2Enc3WithAntithrombotic"]}],"gender":"male","birthDate":"1998-05-31"},"request":{"method":"PUT","url":"Patient/a2b8327c-eaf4-4552-863e-851426e729d4"}},{"fullUrl":"https://madie.cms.gov/Encounter/5c9e2f9fb8484633ef4dc0e5","resource":{"resourceType":"Encounter","id":"27eeddcd-f0cc-42e5-b011-821ca1ace776","meta":{"profile":["http://hl7.org/fhir/us/qicore/StructureDefinition/qicore-encounter"]},"status":"finished","class":{"system":"http://terminology.hl7.org/CodeSystem/v3-ActCode","code":"IMP","display":"inpatient encounter","userSelected":true},"type":[{"coding":[{"system":"http://snomed.info/sct","code":"183452005"}]}],"subject":{"reference":"Patient/a2b8327c-eaf4-4552-863e-851426e729d4"},"period":{"start":"2025-06-14T09:30:00.000+00:00","end":"2025-06-25T10:30:00.000+00:00"},"length":{"value":0,"unit":"days"},"diagnosis":[{"condition":{"reference":"Condition/ischemic-stroke-7f25"},"use":{"coding":[{"system":"http://terminology.hl7.org/CodeSystem/diagnosis-role","code":"billing","display":"Billing"}]},"rank":1}]},"request":{"method":"PUT","url":"Encounter/27eeddcd-f0cc-42e5-b011-821ca1ace776"}},{"fullUrl":"https://madie.cms.gov/Encounter/5c9e2f9fb8484633ef4dc0e6","resource":{"resourceType":"Encounter","id":"edbf8053-310d-4f54-900d-cf4567cc1af3","meta":{"profile":["http://hl7.org/fhir/us/qicore/StructureDefinition/qicore-encounter"]},"status":"finished","class":{"system":"http://terminology.hl7.org/CodeSystem/v3-ActCode","code":"IMP","display":"inpatient encounter","userSelected":true},"type":[{"coding":[{"system":"http://snomed.info/sct","code":"32485007"}]}],"subject":{"reference":"Patient/a2b8327c-eaf4-4552-863e-851426e729d4"},"period":{"start":"2025-06-15T09:30:00.000+00:00","end":"2025-10-12T10:30:00.000+00:00"},"length":{"value":119,"unit":"days"},"diagnosis":[{"condition":{"reference":"Condition/ischemic-stroke-7f26"},"use":{"coding":[{"system":"http://terminology.hl7.org/CodeSystem/diagnosis-role","code":"billing","display":"Billing"}]},"rank":1}]},"request":{"method":"PUT","url":"Encounter/edbf8053-310d-4f54-900d-cf4567cc1af3"}},{"fullUrl":"https://madie.cms.gov/MedicationRequest/5c9e2f9fb8484633ef4dc0e7","resource":{"resourceType":"MedicationRequest","id":"f570ff5c-95ab-4f70-8604-3796c0d86880","meta":{"profile":["http://hl7.org/fhir/us/qicore/StructureDefinition/qicore-medicationrequest"]},"status":"active","intent":"order","category":[{"coding":[{"system":"http://terminology.hl7.org/CodeSystem/medicationrequest-category","code":"discharge","display":"Discharge","userSelected":true}]}],"medicationCodeableConcept":{"coding":[{"system":"http://www.nlm.nih.gov/research/umls/rxnorm","code":"1037045"}]},"subject":{"reference":"Patient/a2b8327c-eaf4-4552-863e-851426e729d4"},"authoredOn":"2025-10-10T10:00:00.000+00:00","requester":{"reference":"Practitioner/example"}},"request":{"method":"PUT","url":"MedicationRequest/f570ff5c-95ab-4f70-8604-3796c0d86880"}},{"fullUrl":"https://madie.cms.gov/MedicationRequest/5e1f89b2e6bd0c0000100733","resource":{"resourceType":"MedicationRequest","id":"c77b72a4-2d41-4dbe-931b-6278b4c3c796","meta":{"profile":["http://hl7.org/fhir/us/qicore/StructureDefinition/qicore-medicationrequest"]},"status":"active","intent":"order","category":[{"coding":[{"system":"http://terminology.hl7.org/CodeSystem/medicationrequest-category","code":"discharge","display":"Discharge","userSelected":true}]}],"medicationCodeableConcept":{"coding":[{"system":"http://www.nlm.nih.gov/research/umls/rxnorm","code":"1037045"}]},"subject":{"reference":"Patient/a2b8327c-eaf4-4552-863e-851426e729d4"},"authoredOn":"2025-06-14T09:30:00.000+00:00","requester":{"reference":"Practitioner/example"}},"request":{"method":"PUT","url":"MedicationRequest/c77b72a4-2d41-4dbe-931b-6278b4c3c796"}},{"fullUrl":"https://madie.cms.gov/MedicationRequest/5e1f8b59e6bd0c0000100883","resource":{"resourceType":"MedicationRequest","id":"cd2c5209-d45e-442e-bbcc-f5efd860da48","meta":{"profile":["http://hl7.org/fhir/us/qicore/StructureDefinition/qicore-medicationrequest"]},"status":"active","intent":"order","category":[{"coding":[{"system":"http://terminology.hl7.org/CodeSystem/medicationrequest-category","code":"discharge","display":"Discharge","userSelected":true}]}],"medicationCodeableConcept":{"coding":[{"system":"http://www.nlm.nih.gov/research/umls/rxnorm","code":"1116635"}]},"subject":{"reference":"Patient/a2b8327c-eaf4-4552-863e-851426e729d4"},"authoredOn":"2025-01-15T11:00:00.000+00:00","requester":{"reference":"Practitioner/example"}},"request":{"method":"PUT","url":"MedicationRequest/cd2c5209-d45e-442e-bbcc-f5efd860da48"}},{"fullUrl":"https://madie.cms.gov/MedicationRequest/5e29c9701ec3e200001625b2","resource":{"resourceType":"MedicationRequest","id":"68213e49-c896-46ee-b255-35431829ec39","meta":{"profile":["http://hl7.org/fhir/us/qicore/StructureDefinition/qicore-medicationrequest"]},"status":"active","intent":"order","category":[{"coding":[{"system":"http://terminology.hl7.org/CodeSystem/medicationrequest-category","code":"discharge","display":"Discharge","userSelected":true}]}],"medicationCodeableConcept":{"coding":[{"system":"http://www.nlm.nih.gov/research/umls/rxnorm","code":"1037045"}]},"subject":{"reference":"Patient/a2b8327c-eaf4-4552-863e-851426e729d4"},"authoredOn":"2025-06-14T09:30:00.000+00:00","requester":{"reference":"Practitioner/example"}},"request":{"method":"PUT","url":"MedicationRequest/68213e49-c896-46ee-b255-35431829ec39"}},{"fullUrl":"https://madie.cms.gov/Condition/ischemic-stroke-7f25","resource":{"resourceType":"Condition","id":"0ee69afb-02b8-4ef6-a9f5-afe9f2cbeca7","meta":{"profile":["http://hl7.org/fhir/us/qicore/StructureDefinition/qicore-condition"]},"clinicalStatus":{"coding":[{"system":"http://terminology.hl7.org/CodeSystem/condition-clinical","code":"active"}]},"verificationStatus":{"coding":[{"system":"http://terminology.hl7.org/CodeSystem/condition-ver-status","code":"confirmed"}]},"category":[{"coding":[{"system":"http://terminology.hl7.org/CodeSystem/condition-category","code":"encounter-diagnosis","display":"Encounter Diagnosis"}]}],"code":{"coding":[{"system":"http://snomed.info/sct","version":"2020-09","code":"111297002","display":"Nonparalytic stroke (disorder)","userSelected":true}]},"subject":{"reference":"Patient/a2b8327c-eaf4-4552-863e-851426e729d4"},"recordedDate":"2025-07-15T08:00:00.000+00:00"},"request":{"method":"PUT","url":"Condition/0ee69afb-02b8-4ef6-a9f5-afe9f2cbeca7"}},{"fullUrl":"https://madie.cms.gov/Condition/ischemic-stroke-7f26","resource":{"resourceType":"Condition","id":"4f51f021-0f72-4113-a793-33aa63a4ce06","meta":{"profile":["http://hl7.org/fhir/us/qicore/StructureDefinition/qicore-condition"]},"clinicalStatus":{"coding":[{"system":"http://terminology.hl7.org/CodeSystem/condition-clinical","code":"active"}]},"verificationStatus":{"coding":[{"system":"http://terminology.hl7.org/CodeSystem/condition-ver-status","code":"confirmed"}]},"category":[{"coding":[{"system":"http://terminology.hl7.org/CodeSystem/condition-category","code":"encounter-diagnosis","display":"Encounter Diagnosis"}]}],"code":{"coding":[{"system":"http://snomed.info/sct","version":"2020-09","code":"111297002","display":"Nonparalytic stroke (disorder)","userSelected":true}]},"subject":{"reference":"Patient/a2b8327c-eaf4-4552-863e-851426e729d4"},"recordedDate":"2025-07-15T08:00:00.000+00:00"},"request":{"method":"PUT","url":"Condition/4f51f021-0f72-4113-a793-33aa63a4ce06"}},{"fullUrl":"https://madie.cms.gov/Coverage/1","resource":{"resourceType":"Coverage","id":"6cf4ab42-c27e-40ee-8472-830e0cde86fd","meta":{"profile":["http://hl7.org/fhir/us/qicore/StructureDefinition/qicore-coverage"]},"status":"active","beneficiary":{"reference":"Patient/a2b8327c-eaf4-4552-863e-851426e729d4"},"payor":[{"reference":"Organization/4b5a882f-1f43-485c-85c6-f5ad2337d5b1"}]},"request":{"method":"PUT","url":"Coverage/6cf4ab42-c27e-40ee-8472-830e0cde86fd"}},{"fullUrl":"https://madie.cms.gov/Organization/123456","resource":{"resourceType":"Organization","id":"4b5a882f-1f43-485c-85c6-f5ad2337d5b1","meta":{"profile":["http://hl7.org/fhir/us/qicore/StructureDefinition/qicore-organization"]},"identifier":[{"use":"temp","system":"urn:oid:2.16.840.1.113883.4.4","value":"21-3259825"}],"active":true,"type":[{"coding":[{"system":"http://terminology.hl7.org/CodeSystem/organization-type","code":"pay","display":"Payer"}]}],"name":"Blue Cross Blue Shield of Texas","telecom":[{"system":"phone","value":"(+1) 972-766-6900"}],"address":[{"use":"billing","type":"postal","line":["P.O. Box 660044"],"city":"Dallas","state":"TX","postalCode":"75266-0044","country":"USA"}]},"request":{"method":"PUT","url":"Organization/4b5a882f-1f43-485c-85c6-f5ad2337d5b1"}},{"fullUrl":"https://madie.cms.gov/MeasureReport/8c87c35e-b160-4dea-b0bf-c79d5d9af8c8","resource":{"resourceType":"MeasureReport","id":"8c87c35e-b160-4dea-b0bf-c79d5d9af8c8","meta":{"profile":["http://hl7.org/fhir/us/cqfmeasures/StructureDefinition/test-case-cqfm"]},"contained":[{"resourceType":"Parameters","id":"cabfdff7-0c7c-452d-8f6a-fb115668dd97-parameters","parameter":[{"name":"subject","valueString":"a2b8327c-eaf4-4552-863e-851426e729d4"}]}],"extension":[{"url":"http://hl7.org/fhir/us/cqfmeasures/StructureDefinition/cqfm-inputParameters","valueReference":{"reference":"#cabfdff7-0c7c-452d-8f6a-fb115668dd97-parameters"}},{"url":"http://hl7.org/fhir/us/cqfmeasures/StructureDefinition/cqfm-testCaseDescription","valueMarkdown":"Patient is GT 18 with 2 Non-Elective Inpatient Encounter (LOS 120 days) with principal diagnosis of ischemic stroke ends during MP received antithrombotic during both IP encounter. \n"}],"modifierExtension":[{"url":"http://hl7.org/fhir/us/cqfmeasures/StructureDefinition/cqfm-isTestCase","valueBoolean":true}],"status":"complete","type":"individual","measure":"https://madie.cms.gov/Measure/DischargedonAntithromboticTherapyFHIR","period":{"start":"2025-01-01","end":"2025-12-31"},"group":[{"population":[{"code":{"coding":[{"system":"http://terminology.hl7.org/CodeSystem/measure-population","code":"initial-population","display":"Initial Population"}]},"count":2},{"code":{"coding":[{"system":"http://terminology.hl7.org/CodeSystem/measure-population","code":"denominator","display":"Denominator"}]},"count":2},{"code":{"coding":[{"system":"http://terminology.hl7.org/CodeSystem/measure-population","code":"denominator-exclusion","display":"Denominator Exclusion"}]},"count":0},{"code":{"coding":[{"system":"http://terminology.hl7.org/CodeSystem/measure-population","code":"numerator","display":"Numerator"}]},"count":2},{"code":{"coding":[{"system":"http://terminology.hl7.org/CodeSystem/measure-population","code":"denominator-exception","display":"Denominator Exception"}]},"count":0}]}]},"request":{"method":"PUT","url":"MeasureReport/8c87c35e-b160-4dea-b0bf-c79d5d9af8c8"}}]}