{"resourceType":"Bundle","id":"tests-acd8399d-1cc5-423e-95f5-27969e479297-bundle","type":"transaction","entry":[{"fullUrl":"https://madie.cms.gov/Patient/acd8399d-1cc5-423e-95f5-27969e479297","resource":{"resourceType":"Patient","id":"acd8399d-1cc5-423e-95f5-27969e479297","meta":{"profile":["http://hl7.org/fhir/us/qicore/StructureDefinition/qicore-patient"]},"text":{"status":"generated","div":"<div xmlns=\"http://www.w3.org/1999/xhtml\"><div class=\"hapiHeaderText\">BadBirthDate <b>IPFAIL </b></div><table class=\"hapiPropertyTable\"><tbody><tr><td>Identifier</td><td>d130de5f4e42b38bd935fc8ebcd660c0e5f442917fd322d307794dfacd0563d2</td></tr><tr><td>Date of birth</td><td><span>14 February 1899</span></td></tr></tbody></table></div>"},"extension":[{"url":"http://hl7.org/fhir/us/core/StructureDefinition/us-core-race","extension":[{"url":"ombCategory","valueCoding":{"system":"urn:oid:2.16.840.1.113883.6.238","code":"1002-5","display":"American Indian or Alaska Native","userSelected":true}},{"url":"text","valueString":"American Indian or Alaska Native"}]},{"url":"http://hl7.org/fhir/us/core/StructureDefinition/us-core-ethnicity","extension":[{"url":"ombCategory","valueCoding":{"system":"urn:oid:2.16.840.1.113883.6.238","code":"2135-2","display":"Hispanic or Latino","userSelected":true}},{"url":"text","valueString":"Hispanic or Latino"}]}],"identifier":[{"type":{"coding":[{"system":"http://terminology.hl7.org/CodeSystem/v2-0203","code":"MR"}]},"system":"https://bonnie-fhir.healthit.gov/","value":"63487c300968f801225401c2"}],"active":true,"name":[{"use":"usual","family":"IPFail","given":["BadBirthDate"]}],"gender":"female","birthDate":"1899-02-14"},"request":{"method":"PUT","url":"Patient/acd8399d-1cc5-423e-95f5-27969e479297"}},{"fullUrl":"https://madie.cms.gov/Encounter/5d014eb1b8484608723804ec","resource":{"resourceType":"Encounter","id":"d8c9f71b-8639-4eb0-a9b4-ce64c3b94e6c","meta":{"profile":["http://hl7.org/fhir/us/qicore/StructureDefinition/qicore-encounter"]},"status":"finished","class":{"system":"http://terminology.hl7.org/CodeSystem/v3-ActCode","code":"IMP","display":"inpatient encounter"},"type":[{"coding":[{"system":"http://snomed.info/sct","code":"8715000"}]}],"subject":{"reference":"Patient/acd8399d-1cc5-423e-95f5-27969e479297"},"period":{"start":"2025-11-28T08:00:00.000Z","end":"2025-11-30T08:15:00.000Z"},"diagnosis":[{"condition":{"reference":"Condition/Condition-2"},"use":{"coding":[{"system":"http://snomed.info/sct","code":"169826009","display":"Delivery of Singleton"}]}}]},"request":{"method":"PUT","url":"Encounter/d8c9f71b-8639-4eb0-a9b4-ce64c3b94e6c"}},{"fullUrl":"https://madie.cms.gov/Procedure/5d014eb1b8484608723804ed","resource":{"resourceType":"Procedure","id":"d52bf16d-870c-4cdb-aa72-a9d7cb47036e","meta":{"profile":["http://hl7.org/fhir/us/qicore/StructureDefinition/qicore-procedure"]},"extension":[{"url":"http://hl7.org/fhir/us/qicore/StructureDefinition/qicore-recorded","valueDateTime":"2013-04-05T09:35:00-04:00"}],"status":"completed","code":{"coding":[{"system":"http://www.cms.gov/Medicare/Coding/ICD10","code":"10D00Z0"},{"system":"http://www.icd10data.com/icd10pcs","code":"10D00Z0","userSelected":true}]},"subject":{"reference":"Patient/acd8399d-1cc5-423e-95f5-27969e479297"},"performedPeriod":{"start":"2025-11-28T20:00:00.000Z","end":"2025-11-28T20:15:00.000Z"}},"request":{"method":"PUT","url":"Procedure/d52bf16d-870c-4cdb-aa72-a9d7cb47036e"}},{"fullUrl":"https://madie.cms.gov/Coverage/1","resource":{"resourceType":"Coverage","id":"2048edb9-7c36-4251-88fa-f60606022a6a","meta":{"profile":["http://hl7.org/fhir/us/qicore/StructureDefinition/qicore-coverage"]},"status":"active","beneficiary":{"reference":"Patient/acd8399d-1cc5-423e-95f5-27969e479297"},"payor":[{"reference":"Organization/26111c91-b0e2-476c-a20b-e3f39799f8f5"}]},"request":{"method":"PUT","url":"Coverage/2048edb9-7c36-4251-88fa-f60606022a6a"}},{"fullUrl":"https://madie.cms.gov/Organization/123456","resource":{"resourceType":"Organization","id":"26111c91-b0e2-476c-a20b-e3f39799f8f5","meta":{"profile":["http://hl7.org/fhir/us/qicore/StructureDefinition/qicore-organization"]},"identifier":[{"use":"temp","system":"urn:oid:2.16.840.1.113883.4.4","value":"21-3259825"}],"active":true,"type":[{"coding":[{"system":"http://terminology.hl7.org/CodeSystem/organization-type","code":"pay","display":"Payer"}]}],"name":"Blue Cross Blue Shield of Texas","telecom":[{"system":"phone","value":"(+1) 972-766-6900"}],"address":[{"use":"billing","type":"postal","line":["P.O. Box 660044"],"city":"Dallas","state":"TX","postalCode":"75266-0044","country":"USA"}]},"request":{"method":"PUT","url":"Organization/26111c91-b0e2-476c-a20b-e3f39799f8f5"}},{"fullUrl":"https://madie.cms.gov/Practitioner/practitioner-123456","resource":{"resourceType":"Practitioner","id":"5bda229c-dff6-42ac-ba6b-4a70784c256e","identifier":[{"system":"http://hl7.org/fhir/sid/us-npi","value":"123456"}],"name":[{"family":"Evil","prefix":["Dr"]}]},"request":{"method":"PUT","url":"Practitioner/5bda229c-dff6-42ac-ba6b-4a70784c256e"}},{"fullUrl":"https://madie.cms.gov/MeasureReport/cc140423-89af-4aa0-95f9-1e3d9422b8e5","resource":{"resourceType":"MeasureReport","id":"cc140423-89af-4aa0-95f9-1e3d9422b8e5","meta":{"profile":["http://hl7.org/fhir/us/cqfmeasures/StructureDefinition/test-case-cqfm"]},"contained":[{"resourceType":"Parameters","id":"d02137ed-c8f3-4a8d-a2ed-f4f0fddd3139-parameters","parameter":[{"name":"subject","valueString":"acd8399d-1cc5-423e-95f5-27969e479297"}]}],"extension":[{"url":"http://hl7.org/fhir/us/cqfmeasures/StructureDefinition/cqfm-inputParameters","valueReference":{"reference":"#d02137ed-c8f3-4a8d-a2ed-f4f0fddd3139-parameters"}},{"url":"http://hl7.org/fhir/us/cqfmeasures/StructureDefinition/cqfm-testCaseDescription","valueMarkdown":"Birth date is bad - year before 1900, should fail IPP\n"}],"modifierExtension":[{"url":"http://hl7.org/fhir/us/cqfmeasures/StructureDefinition/cqfm-isTestCase","valueBoolean":true}],"status":"complete","type":"individual","measure":"https://madie.cms.gov/Measure/CesareanBirthFHIR","period":{"start":"2025-01-01","end":"2025-12-31"},"group":[{"population":[{"code":{"coding":[{"system":"http://terminology.hl7.org/CodeSystem/measure-population","code":"initial-population","display":"Initial Population"}]},"count":0},{"code":{"coding":[{"system":"http://terminology.hl7.org/CodeSystem/measure-population","code":"denominator","display":"Denominator"}]},"count":0},{"code":{"coding":[{"system":"http://terminology.hl7.org/CodeSystem/measure-population","code":"denominator-exclusion","display":"Denominator Exclusion"}]},"count":0},{"code":{"coding":[{"system":"http://terminology.hl7.org/CodeSystem/measure-population","code":"numerator","display":"Numerator"}]},"count":0}]}]},"request":{"method":"PUT","url":"MeasureReport/cc140423-89af-4aa0-95f9-1e3d9422b8e5"}}]}