{"resourceType":"Bundle","id":"tests-6db9ecfd-1392-480d-b0f7-4e81ebfdd335-bundle","type":"transaction","entry":[{"fullUrl":"https://madie.cms.gov/Patient/6db9ecfd-1392-480d-b0f7-4e81ebfdd335","resource":{"resourceType":"Patient","id":"6db9ecfd-1392-480d-b0f7-4e81ebfdd335","meta":{"profile":["http://hl7.org/fhir/us/qicore/StructureDefinition/qicore-patient"]},"text":{"status":"generated","div":"<div xmlns=\"http://www.w3.org/1999/xhtml\"><div class=\"hapiHeaderText\">AssessTerm0RelDtTimeAfterTimeOfDeliv <b>DENFAIL </b></div><table class=\"hapiPropertyTable\"><tbody><tr><td>Identifier</td><td>9dd5eff54ec482e8a14c14f22d39e4cf5c39ca73f868e5a54dc34c2817f3dd51</td></tr><tr><td>Date of birth</td><td><span>14 February 1985</span></td></tr></tbody></table></div>"},"extension":[{"url":"http://hl7.org/fhir/us/core/StructureDefinition/us-core-race","extension":[{"url":"ombCategory","valueCoding":{"system":"urn:oid:2.16.840.1.113883.6.238","code":"1002-5","display":"American Indian or Alaska Native","userSelected":true}},{"url":"text","valueString":"American Indian or Alaska Native"}]},{"url":"http://hl7.org/fhir/us/core/StructureDefinition/us-core-ethnicity","extension":[{"url":"ombCategory","valueCoding":{"system":"urn:oid:2.16.840.1.113883.6.238","code":"2135-2","display":"Hispanic or Latino","userSelected":true}},{"url":"text","valueString":"Hispanic or Latino"}]}],"identifier":[{"type":{"coding":[{"system":"http://terminology.hl7.org/CodeSystem/v2-0203","code":"MR"}]},"system":"https://bonnie-fhir.healthit.gov/","value":"63487c2d0968f80122540162"}],"active":true,"name":[{"use":"usual","family":"DENFail","given":["AssessTerm0RelDtTimeAfterTimeOfDeliv"]}],"gender":"female","birthDate":"1997-02-14"},"request":{"method":"PUT","url":"Patient/6db9ecfd-1392-480d-b0f7-4e81ebfdd335"}},{"fullUrl":"https://madie.cms.gov/Observation/5d014eb2b848460872380561","resource":{"resourceType":"Observation","id":"472f30ab-e965-41b3-862a-9960b7eeb15a","meta":{"profile":["http://hl7.org/fhir/us/qicore/StructureDefinition/qicore-observation"]},"status":"final","category":[{"coding":[{"system":"http://terminology.hl7.org/CodeSystem/observation-category","code":"exam","display":"exam","userSelected":true}]}],"code":{"coding":[{"system":"http://loinc.org","code":"11637-6"}]},"subject":{"reference":"Patient/6db9ecfd-1392-480d-b0f7-4e81ebfdd335"},"effectiveDateTime":"2024-09-19T09:00:00.000+00:00","valueInteger":0},"request":{"method":"PUT","url":"Observation/472f30ab-e965-41b3-862a-9960b7eeb15a"}},{"fullUrl":"https://madie.cms.gov/Observation/5d014eb2b848460872380564","resource":{"resourceType":"Observation","id":"0b565a06-a344-4188-83ec-30658939358e","meta":{"profile":["http://hl7.org/fhir/us/qicore/StructureDefinition/qicore-observation"]},"status":"final","category":[{"coding":[{"system":"http://terminology.hl7.org/CodeSystem/observation-category","code":"exam","display":"exam","userSelected":true}]}],"code":{"coding":[{"system":"http://loinc.org","code":"11884-4"}]},"subject":{"reference":"Patient/6db9ecfd-1392-480d-b0f7-4e81ebfdd335"},"effectiveDateTime":"2025-06-08T20:00:00.000+00:00","valueQuantity":{"value":37.0,"system":"http://unitsofmeasure.org","code":"weeks"}},"request":{"method":"PUT","url":"Observation/0b565a06-a344-4188-83ec-30658939358e"}},{"fullUrl":"https://madie.cms.gov/Observation/5d014eb2b848460872380566","resource":{"resourceType":"Observation","id":"1ac1d407-f82d-4271-b50f-c5f903cbe608","meta":{"profile":["http://hl7.org/fhir/us/qicore/StructureDefinition/qicore-observation"]},"status":"final","category":[{"coding":[{"system":"http://terminology.hl7.org/CodeSystem/observation-category","code":"exam","display":"exam","userSelected":true}]}],"code":{"coding":[{"system":"http://loinc.org","code":"11639-2"}]},"subject":{"reference":"Patient/6db9ecfd-1392-480d-b0f7-4e81ebfdd335"},"effectiveDateTime":"2025-06-08T21:00:00.000+00:00","valueInteger":0},"request":{"method":"PUT","url":"Observation/1ac1d407-f82d-4271-b50f-c5f903cbe608"}},{"fullUrl":"https://madie.cms.gov/Observation/5e6970767ffec700003228b6","resource":{"resourceType":"Observation","id":"94fdcc98-e518-41fd-848a-c9756b19c307","meta":{"profile":["http://hl7.org/fhir/us/qicore/StructureDefinition/qicore-observation"]},"status":"final","category":[{"coding":[{"system":"http://terminology.hl7.org/CodeSystem/observation-category","code":"exam","display":"exam","userSelected":true}]}],"code":{"coding":[{"system":"http://loinc.org","code":"93857-1"}]},"subject":{"reference":"Patient/6db9ecfd-1392-480d-b0f7-4e81ebfdd335"},"effectiveDateTime":"2025-06-08T20:00:00.000+00:00","valueDateTime":"2025-06-08T20:00:00+00:00"},"request":{"method":"PUT","url":"Observation/94fdcc98-e518-41fd-848a-c9756b19c307"}},{"fullUrl":"https://madie.cms.gov/Encounter/5d014eb1b84846087238055f","resource":{"resourceType":"Encounter","id":"306f786a-c543-49b1-af1d-bbab8dbba5c2","meta":{"profile":["http://hl7.org/fhir/us/qicore/StructureDefinition/qicore-encounter"]},"status":"finished","class":{"system":"http://terminology.hl7.org/CodeSystem/v3-ActCode","code":"IMP","display":"inpatient encounter"},"type":[{"coding":[{"system":"http://snomed.info/sct","code":"8715000"}]}],"subject":{"reference":"Patient/6db9ecfd-1392-480d-b0f7-4e81ebfdd335"},"period":{"start":"2025-06-08T08:00:00.000Z","end":"2025-06-10T08:15:00.000Z"},"length":{"value":2.0,"unit":"days"},"diagnosis":[{"condition":{"reference":"Condition/delivery-of-singleton-f83c"},"use":{"coding":[{"system":"http://snomed.info/sct","code":"169826009","display":"Delivery of Singleton"}]}},{"condition":{"reference":"Condition/delivery-of-singleton-4b1a"}}]},"request":{"method":"PUT","url":"Encounter/306f786a-c543-49b1-af1d-bbab8dbba5c2"}},{"fullUrl":"https://madie.cms.gov/Procedure/5d014eb1b848460872380560","resource":{"resourceType":"Procedure","id":"d4c8a1ce-c921-4ec7-87ce-7ea70372cab3","meta":{"profile":["http://hl7.org/fhir/us/qicore/StructureDefinition/qicore-procedure"]},"extension":[{"url":"http://hl7.org/fhir/us/qicore/StructureDefinition/qicore-recorded","valueDateTime":"2013-04-05T09:35:00-04:00"}],"status":"completed","code":{"coding":[{"system":"http://www.cms.gov/Medicare/Coding/ICD10","code":"10D00Z0"},{"system":"http://snomed.info/sct","code":"4504004"},{"system":"http://www.icd10data.com/icd10pcs","code":"10D00Z0","userSelected":true}]},"subject":{"reference":"Patient/6db9ecfd-1392-480d-b0f7-4e81ebfdd335"},"performedPeriod":{"start":"2025-06-08T20:00:00.000Z","end":"2025-06-08T20:15:00.000Z"}},"request":{"method":"PUT","url":"Procedure/d4c8a1ce-c921-4ec7-87ce-7ea70372cab3"}},{"fullUrl":"https://madie.cms.gov/Condition/delivery-of-singleton-4b1a","resource":{"resourceType":"Condition","id":"e4cfe94c-d18f-4c65-832d-06abc113e7cf","meta":{"profile":["http://hl7.org/fhir/us/qicore/StructureDefinition/qicore-condition"]},"category":[{"coding":[{"system":"http://terminology.hl7.org/CodeSystem/condition-category","code":"encounter-diagnosis","display":"Encounter Diagnosis"}]}],"code":{"coding":[{"system":"http://snomed.info/sct","version":"2022-09","code":"169826009","display":"Single live birth (finding)","userSelected":true}]},"subject":{"reference":"Patient/6db9ecfd-1392-480d-b0f7-4e81ebfdd335"},"recordedDate":"2025-10-21T08:00:00.000+00:00"},"request":{"method":"PUT","url":"Condition/e4cfe94c-d18f-4c65-832d-06abc113e7cf"}},{"fullUrl":"https://madie.cms.gov/Coverage/1","resource":{"resourceType":"Coverage","id":"dd9fb44d-ee5e-4648-9ed5-c5dcabbb824e","meta":{"profile":["http://hl7.org/fhir/us/qicore/StructureDefinition/qicore-coverage"]},"status":"active","beneficiary":{"reference":"Patient/6db9ecfd-1392-480d-b0f7-4e81ebfdd335"},"payor":[{"reference":"Organization/26111c91-b0e2-476c-a20b-e3f39799f8f5"}]},"request":{"method":"PUT","url":"Coverage/dd9fb44d-ee5e-4648-9ed5-c5dcabbb824e"}},{"fullUrl":"https://madie.cms.gov/Organization/123456","resource":{"resourceType":"Organization","id":"26111c91-b0e2-476c-a20b-e3f39799f8f5","meta":{"profile":["http://hl7.org/fhir/us/qicore/StructureDefinition/qicore-organization"]},"identifier":[{"use":"temp","system":"urn:oid:2.16.840.1.113883.4.4","value":"21-3259825"}],"active":true,"type":[{"coding":[{"system":"http://terminology.hl7.org/CodeSystem/organization-type","code":"pay","display":"Payer"}]}],"name":"Blue Cross Blue Shield of Texas","telecom":[{"system":"phone","value":"(+1) 972-766-6900"}],"address":[{"use":"billing","type":"postal","line":["P.O. Box 660044"],"city":"Dallas","state":"TX","postalCode":"75266-0044","country":"USA"}]},"request":{"method":"PUT","url":"Organization/26111c91-b0e2-476c-a20b-e3f39799f8f5"}},{"fullUrl":"https://madie.cms.gov/Practitioner/practitioner-123456","resource":{"resourceType":"Practitioner","id":"d73181de-390a-465e-a1fc-dbf2206bd9af","identifier":[{"system":"http://hl7.org/fhir/sid/us-npi","value":"123456"}],"name":[{"family":"Evil","prefix":["Dr"]}]},"request":{"method":"PUT","url":"Practitioner/d73181de-390a-465e-a1fc-dbf2206bd9af"}},{"fullUrl":"https://madie.cms.gov/MeasureReport/89158251-a76c-437c-9b2b-73057996e8b5","resource":{"resourceType":"MeasureReport","id":"89158251-a76c-437c-9b2b-73057996e8b5","meta":{"profile":["http://hl7.org/fhir/us/cqfmeasures/StructureDefinition/test-case-cqfm"]},"contained":[{"resourceType":"Parameters","id":"40d2accb-a21d-4a39-9891-86eb4f9627f4-parameters","parameter":[{"name":"subject","valueString":"6db9ecfd-1392-480d-b0f7-4e81ebfdd335"}]}],"extension":[{"url":"http://hl7.org/fhir/us/cqfmeasures/StructureDefinition/cqfm-inputParameters","valueReference":{"reference":"#40d2accb-a21d-4a39-9891-86eb4f9627f4-parameters"}},{"url":"http://hl7.org/fhir/us/cqfmeasures/StructureDefinition/cqfm-testCaseDescription","valueMarkdown":"\"Preterm Births=0, authored < 42weeks prior to Asse delivery\nTerm Newborn=0, authored  1 hour after Asse delivery datetime\ntiming logic needed to constrain the author time to no later than the time of delivery, DENOM fail\"\n"}],"modifierExtension":[{"url":"http://hl7.org/fhir/us/cqfmeasures/StructureDefinition/cqfm-isTestCase","valueBoolean":true}],"status":"complete","type":"individual","measure":"https://madie.cms.gov/Measure/CesareanBirthFHIR","period":{"start":"2025-01-01","end":"2025-12-31"},"group":[{"population":[{"code":{"coding":[{"system":"http://terminology.hl7.org/CodeSystem/measure-population","code":"initial-population","display":"Initial Population"}]},"count":1},{"code":{"coding":[{"system":"http://terminology.hl7.org/CodeSystem/measure-population","code":"denominator","display":"Denominator"}]},"count":0},{"code":{"coding":[{"system":"http://terminology.hl7.org/CodeSystem/measure-population","code":"denominator-exclusion","display":"Denominator Exclusion"}]},"count":0},{"code":{"coding":[{"system":"http://terminology.hl7.org/CodeSystem/measure-population","code":"numerator","display":"Numerator"}]},"count":0}]}]},"request":{"method":"PUT","url":"MeasureReport/89158251-a76c-437c-9b2b-73057996e8b5"}}]}