{"resourceType":"Bundle","id":"tests-70ec8c1c-3aa7-4f7b-9cc7-b803fd905b80-bundle","type":"transaction","entry":[{"fullUrl":"https://madie.cms.gov/Patient/70ec8c1c-3aa7-4f7b-9cc7-b803fd905b80","resource":{"resourceType":"Patient","id":"70ec8c1c-3aa7-4f7b-9cc7-b803fd905b80","meta":{"profile":["http://hl7.org/fhir/us/qicore/StructureDefinition/qicore-patient"]},"text":{"status":"generated","div":"<div xmlns=\"http://www.w3.org/1999/xhtml\"><div class=\"hapiHeaderText\">ProcCSectEndGTEncEnd <b>NUMFAIL </b></div><table class=\"hapiPropertyTable\"><tbody><tr><td>Identifier</td><td>5207b81143c57a177c53244c0ebecd69b59ad095b3dd7336dd907639a51be643</td></tr><tr><td>Date of birth</td><td><span>14 February 1985</span></td></tr></tbody></table></div>"},"extension":[{"url":"http://hl7.org/fhir/us/core/StructureDefinition/us-core-race","extension":[{"url":"ombCategory","valueCoding":{"system":"urn:oid:2.16.840.1.113883.6.238","code":"1002-5","display":"American Indian or Alaska Native","userSelected":true}},{"url":"text","valueString":"American Indian or Alaska Native"}]},{"url":"http://hl7.org/fhir/us/core/StructureDefinition/us-core-ethnicity","extension":[{"url":"ombCategory","valueCoding":{"system":"urn:oid:2.16.840.1.113883.6.238","code":"2135-2","display":"Hispanic or Latino","userSelected":true}},{"url":"text","valueString":"Hispanic or Latino"}]}],"identifier":[{"type":{"coding":[{"system":"http://terminology.hl7.org/CodeSystem/v2-0203","code":"MR"}]},"system":"https://bonnie-fhir.healthit.gov/","value":"63487c2e0968f8012254017b"}],"active":true,"name":[{"use":"usual","family":"NUMFail","given":["ProcCSectEndGTEncEnd"]}],"gender":"female","birthDate":"1997-02-14"},"request":{"method":"PUT","url":"Patient/70ec8c1c-3aa7-4f7b-9cc7-b803fd905b80"}},{"fullUrl":"https://madie.cms.gov/Observation/5d014eb2b8484608723805c5","resource":{"resourceType":"Observation","id":"4ebf1f7d-45b8-406e-a11b-7703c9a17fa7","meta":{"profile":["http://hl7.org/fhir/us/qicore/StructureDefinition/qicore-observation"]},"status":"final","category":[{"coding":[{"system":"http://terminology.hl7.org/CodeSystem/observation-category","code":"exam","display":"exam","userSelected":true}]}],"code":{"coding":[{"system":"http://loinc.org","code":"11996-6"}]},"subject":{"reference":"Patient/70ec8c1c-3aa7-4f7b-9cc7-b803fd905b80"},"effectiveDateTime":"2025-02-28T08:00:00.000+00:00","valueInteger":1},"request":{"method":"PUT","url":"Observation/4ebf1f7d-45b8-406e-a11b-7703c9a17fa7"}},{"fullUrl":"https://madie.cms.gov/Observation/5d014eb2b8484608723805c7","resource":{"resourceType":"Observation","id":"07bb6f45-91b9-4402-8724-adb8e5db0df8","meta":{"profile":["http://hl7.org/fhir/us/qicore/StructureDefinition/qicore-observation"]},"status":"final","category":[{"coding":[{"system":"http://terminology.hl7.org/CodeSystem/observation-category","code":"exam","display":"exam","userSelected":true}]}],"code":{"coding":[{"system":"http://loinc.org","code":"11884-4"}]},"subject":{"reference":"Patient/70ec8c1c-3aa7-4f7b-9cc7-b803fd905b80"},"effectiveDateTime":"2025-11-28T21:15:00.000+00:00","valueQuantity":{"value":40.0,"system":"http://unitsofmeasure.org","code":"weeks"}},"request":{"method":"PUT","url":"Observation/07bb6f45-91b9-4402-8724-adb8e5db0df8"}},{"fullUrl":"https://madie.cms.gov/Observation/5e693d537ffec7000031f1ae","resource":{"resourceType":"Observation","id":"97a05327-1606-4f44-97b4-8a2bf8ed3b8d","meta":{"profile":["http://hl7.org/fhir/us/qicore/StructureDefinition/qicore-observation"]},"status":"final","category":[{"coding":[{"system":"http://terminology.hl7.org/CodeSystem/observation-category","code":"exam","display":"exam","userSelected":true}]}],"code":{"coding":[{"system":"http://loinc.org","code":"93857-1"}]},"subject":{"reference":"Patient/70ec8c1c-3aa7-4f7b-9cc7-b803fd905b80"},"effectiveDateTime":"2025-11-28T21:15:00.000+00:00","valueDateTime":"2025-11-28T21:15:00+00:00"},"request":{"method":"PUT","url":"Observation/97a05327-1606-4f44-97b4-8a2bf8ed3b8d"}},{"fullUrl":"https://madie.cms.gov/Encounter/5d014eb2b8484608723805c3","resource":{"resourceType":"Encounter","id":"3464b154-4801-46f5-a4e4-b7e7f36de7a6","meta":{"profile":["http://hl7.org/fhir/us/qicore/StructureDefinition/qicore-encounter"]},"status":"finished","class":{"system":"http://terminology.hl7.org/CodeSystem/v3-ActCode","code":"IMP","display":"inpatient encounter"},"type":[{"coding":[{"system":"http://snomed.info/sct","code":"8715000"}]}],"subject":{"reference":"Patient/70ec8c1c-3aa7-4f7b-9cc7-b803fd905b80"},"period":{"start":"2025-11-28T08:00:00.000Z","end":"2025-11-30T08:15:00.000Z"},"diagnosis":[{"condition":{"reference":"Condition/delivery-of-singleton-df70"}}]},"request":{"method":"PUT","url":"Encounter/3464b154-4801-46f5-a4e4-b7e7f36de7a6"}},{"fullUrl":"https://madie.cms.gov/Procedure/5e6a708e1adc680000b500a3","resource":{"resourceType":"Procedure","id":"ca25da6f-dadc-4b97-a96f-2cf2db3eb766","meta":{"profile":["http://hl7.org/fhir/us/qicore/StructureDefinition/qicore-procedure"]},"extension":[{"url":"http://hl7.org/fhir/us/qicore/StructureDefinition/qicore-recorded","valueDateTime":"2013-04-05T09:35:00-04:00"}],"status":"completed","code":{"coding":[{"system":"http://www.cms.gov/Medicare/Coding/ICD10","code":"10D00Z0"},{"system":"http://www.icd10data.com/icd10pcs","code":"10D00Z0","userSelected":true}]},"subject":{"reference":"Patient/70ec8c1c-3aa7-4f7b-9cc7-b803fd905b80"},"performedPeriod":{"start":"2025-11-30T08:00:00.000Z","end":"2025-11-30T08:16:00.000Z"}},"request":{"method":"PUT","url":"Procedure/ca25da6f-dadc-4b97-a96f-2cf2db3eb766"}},{"fullUrl":"https://madie.cms.gov/Condition/delivery-of-singleton-df70","resource":{"resourceType":"Condition","id":"9c10d232-185d-4b9c-bd5a-5d345a5c696a","meta":{"profile":["http://hl7.org/fhir/us/qicore/StructureDefinition/qicore-condition"]},"category":[{"coding":[{"system":"http://terminology.hl7.org/CodeSystem/condition-category","code":"encounter-diagnosis","display":"Encounter Diagnosis"}]}],"code":{"coding":[{"system":"http://snomed.info/sct","version":"2022-09","code":"169826009","display":"Single live birth (finding)","userSelected":true}]},"subject":{"reference":"Patient/70ec8c1c-3aa7-4f7b-9cc7-b803fd905b80"},"recordedDate":"2025-10-17T08:00:00.000+00:00"},"request":{"method":"PUT","url":"Condition/9c10d232-185d-4b9c-bd5a-5d345a5c696a"}},{"fullUrl":"https://madie.cms.gov/Coverage/1","resource":{"resourceType":"Coverage","id":"97267491-1e91-4e68-a893-2ceab599369f","meta":{"profile":["http://hl7.org/fhir/us/qicore/StructureDefinition/qicore-coverage"]},"status":"active","beneficiary":{"reference":"Patient/70ec8c1c-3aa7-4f7b-9cc7-b803fd905b80"},"payor":[{"reference":"Organization/26111c91-b0e2-476c-a20b-e3f39799f8f5"}]},"request":{"method":"PUT","url":"Coverage/97267491-1e91-4e68-a893-2ceab599369f"}},{"fullUrl":"https://madie.cms.gov/Organization/123456","resource":{"resourceType":"Organization","id":"26111c91-b0e2-476c-a20b-e3f39799f8f5","meta":{"profile":["http://hl7.org/fhir/us/qicore/StructureDefinition/qicore-organization"]},"identifier":[{"use":"temp","system":"urn:oid:2.16.840.1.113883.4.4","value":"21-3259825"}],"active":true,"type":[{"coding":[{"system":"http://terminology.hl7.org/CodeSystem/organization-type","code":"pay","display":"Payer"}]}],"name":"Blue Cross Blue Shield of Texas","telecom":[{"system":"phone","value":"(+1) 972-766-6900"}],"address":[{"use":"billing","type":"postal","line":["P.O. Box 660044"],"city":"Dallas","state":"TX","postalCode":"75266-0044","country":"USA"}]},"request":{"method":"PUT","url":"Organization/26111c91-b0e2-476c-a20b-e3f39799f8f5"}},{"fullUrl":"https://madie.cms.gov/Practitioner/practitioner-123456","resource":{"resourceType":"Practitioner","id":"80cf2764-fc1b-48de-a45e-86fcef8e73e1","identifier":[{"system":"http://hl7.org/fhir/sid/us-npi","value":"123456"}],"name":[{"family":"Evil","prefix":["Dr"]}]},"request":{"method":"PUT","url":"Practitioner/80cf2764-fc1b-48de-a45e-86fcef8e73e1"}},{"fullUrl":"https://madie.cms.gov/MeasureReport/74a28553-48ae-42f4-96d5-2da0bfe65e70","resource":{"resourceType":"MeasureReport","id":"74a28553-48ae-42f4-96d5-2da0bfe65e70","meta":{"profile":["http://hl7.org/fhir/us/cqfmeasures/StructureDefinition/test-case-cqfm"]},"contained":[{"resourceType":"Parameters","id":"ed98e0f2-ebec-4c0b-93b0-415c7e341112-parameters","parameter":[{"name":"subject","valueString":"70ec8c1c-3aa7-4f7b-9cc7-b803fd905b80"}]}],"extension":[{"url":"http://hl7.org/fhir/us/cqfmeasures/StructureDefinition/cqfm-inputParameters","valueReference":{"reference":"#ed98e0f2-ebec-4c0b-93b0-415c7e341112-parameters"}},{"url":"http://hl7.org/fhir/us/cqfmeasures/StructureDefinition/cqfm-testCaseDescription","valueMarkdown":"Passes IP, DEN, fails NUM because CSect End after Encounter End; Gravida 1(effect dt/time 42 weeks)  and EGA 40 weeks;  "}],"modifierExtension":[{"url":"http://hl7.org/fhir/us/cqfmeasures/StructureDefinition/cqfm-isTestCase","valueBoolean":true}],"status":"complete","type":"individual","measure":"https://madie.cms.gov/Measure/CesareanBirthFHIR","period":{"start":"2025-01-01","end":"2025-12-31"},"group":[{"population":[{"code":{"coding":[{"system":"http://terminology.hl7.org/CodeSystem/measure-population","code":"initial-population","display":"Initial Population"}]},"count":1},{"code":{"coding":[{"system":"http://terminology.hl7.org/CodeSystem/measure-population","code":"denominator","display":"Denominator"}]},"count":1},{"code":{"coding":[{"system":"http://terminology.hl7.org/CodeSystem/measure-population","code":"denominator-exclusion","display":"Denominator Exclusion"}]},"count":0},{"code":{"coding":[{"system":"http://terminology.hl7.org/CodeSystem/measure-population","code":"numerator","display":"Numerator"}]},"count":0}]}]},"request":{"method":"PUT","url":"MeasureReport/74a28553-48ae-42f4-96d5-2da0bfe65e70"}}]}