{"resourceType":"Bundle","id":"tests-912e076d-3b5d-46cc-b2cb-c78172b295a3-bundle","type":"transaction","entry":[{"fullUrl":"https://madie.cms.gov/Patient/912e076d-3b5d-46cc-b2cb-c78172b295a3","resource":{"resourceType":"Patient","id":"912e076d-3b5d-46cc-b2cb-c78172b295a3","meta":{"profile":["http://hl7.org/fhir/us/qicore/StructureDefinition/qicore-patient"]},"text":{"status":"generated","div":"<div xmlns=\"http://www.w3.org/1999/xhtml\"><div class=\"hapiHeaderText\">EGALT37weeks <b>DENFAIL </b></div><table class=\"hapiPropertyTable\"><tbody><tr><td>Identifier</td><td>abdde563892ce226aeccbefc9ec5c953</td></tr><tr><td>Date of birth</td><td><span>14 February 1985</span></td></tr></tbody></table></div>"},"extension":[{"url":"http://hl7.org/fhir/us/core/StructureDefinition/us-core-race","extension":[{"url":"ombCategory","valueCoding":{"system":"urn:oid:2.16.840.1.113883.6.238","code":"1002-5","display":"American Indian or Alaska Native","userSelected":true}},{"url":"text","valueString":"American Indian or Alaska Native"}]},{"url":"http://hl7.org/fhir/us/core/StructureDefinition/us-core-ethnicity","extension":[{"url":"ombCategory","valueCoding":{"system":"urn:oid:2.16.840.1.113883.6.238","code":"2135-2","display":"Hispanic or Latino","userSelected":true}},{"url":"text","valueString":"Hispanic or Latino"}]}],"identifier":[{"type":{"coding":[{"system":"http://terminology.hl7.org/CodeSystem/v2-0203","code":"MR"}]},"system":"https://bonnie-fhir.healthit.gov/","value":"63487c2d0968f80122540143"}],"active":true,"name":[{"use":"usual","family":"DENFail","given":["EGALT37weeks"]}],"gender":"female","birthDate":"1997-02-14"},"request":{"method":"PUT","url":"Patient/912e076d-3b5d-46cc-b2cb-c78172b295a3"}},{"fullUrl":"https://madie.cms.gov/Observation/5d014eb0b848460872380449","resource":{"resourceType":"Observation","id":"2467aa33-52d1-4a1e-8cfd-d3332b75fb04","meta":{"profile":["http://hl7.org/fhir/us/qicore/StructureDefinition/qicore-observation"]},"status":"final","category":[{"coding":[{"system":"http://terminology.hl7.org/CodeSystem/observation-category","code":"exam","display":"exam","userSelected":true}]}],"code":{"coding":[{"system":"http://loinc.org","code":"11977-6"}]},"subject":{"reference":"Patient/912e076d-3b5d-46cc-b2cb-c78172b295a3"},"effectiveDateTime":"2025-03-08T09:00:00.000+00:00","valueInteger":0},"request":{"method":"PUT","url":"Observation/2467aa33-52d1-4a1e-8cfd-d3332b75fb04"}},{"fullUrl":"https://madie.cms.gov/Observation/5d014eb0b84846087238044b","resource":{"resourceType":"Observation","id":"61bd515a-f256-42b5-8f8b-e3b503a55ed4","meta":{"profile":["http://hl7.org/fhir/us/qicore/StructureDefinition/qicore-observation"]},"status":"final","category":[{"coding":[{"system":"http://terminology.hl7.org/CodeSystem/observation-category","code":"exam","display":"exam","userSelected":true}]}],"code":{"coding":[{"system":"http://loinc.org","code":"11996-6"}]},"subject":{"reference":"Patient/912e076d-3b5d-46cc-b2cb-c78172b295a3"},"effectiveDateTime":"2025-03-09T08:00:00.000+00:00","valueInteger":1},"request":{"method":"PUT","url":"Observation/61bd515a-f256-42b5-8f8b-e3b503a55ed4"}},{"fullUrl":"https://madie.cms.gov/Observation/5d014eb0b84846087238044d","resource":{"resourceType":"Observation","id":"edb369a9-bf16-47a1-b598-69466df6450f","meta":{"profile":["http://hl7.org/fhir/us/qicore/StructureDefinition/qicore-observation"]},"status":"final","category":[{"coding":[{"system":"http://terminology.hl7.org/CodeSystem/observation-category","code":"exam","display":"exam","userSelected":true}]}],"code":{"coding":[{"system":"http://loinc.org","code":"11884-4"}]},"subject":{"reference":"Patient/912e076d-3b5d-46cc-b2cb-c78172b295a3"},"effectiveDateTime":"2025-06-08T17:00:00.000+00:00","valueQuantity":{"value":36.0,"system":"http://unitsofmeasure.org","code":"weeks"}},"request":{"method":"PUT","url":"Observation/edb369a9-bf16-47a1-b598-69466df6450f"}},{"fullUrl":"https://madie.cms.gov/Observation/5e698cf97ffec7000032359c","resource":{"resourceType":"Observation","id":"9020277c-421b-4db5-9c87-c94f4c8dd033","meta":{"profile":["http://hl7.org/fhir/us/qicore/StructureDefinition/qicore-observation"]},"status":"final","category":[{"coding":[{"system":"http://terminology.hl7.org/CodeSystem/observation-category","code":"exam","display":"exam","userSelected":true}]}],"code":{"coding":[{"system":"http://loinc.org","code":"93857-1"}]},"subject":{"reference":"Patient/912e076d-3b5d-46cc-b2cb-c78172b295a3"},"effectiveDateTime":"2025-06-08T20:00:00.000+00:00","valueDateTime":"2025-06-08T20:00:00+00:00"},"request":{"method":"PUT","url":"Observation/9020277c-421b-4db5-9c87-c94f4c8dd033"}},{"fullUrl":"https://madie.cms.gov/Encounter/5d014eb0b848460872380447","resource":{"resourceType":"Encounter","id":"69093af8-1ec8-46e2-b087-aa633dfa99f5","meta":{"profile":["http://hl7.org/fhir/us/qicore/StructureDefinition/qicore-encounter"]},"status":"finished","class":{"system":"http://terminology.hl7.org/CodeSystem/v3-ActCode","code":"IMP","display":"inpatient encounter"},"type":[{"coding":[{"system":"http://snomed.info/sct","code":"8715000"}]}],"subject":{"reference":"Patient/912e076d-3b5d-46cc-b2cb-c78172b295a3"},"period":{"start":"2025-06-08T08:00:00.000Z","end":"2025-06-10T08:15:00.000Z"},"length":{"value":2.0,"unit":"days"},"diagnosis":[{"condition":{"reference":"Condition/delivery-of-singleton-f83c"},"use":{"coding":[{"system":"http://snomed.info/sct","code":"169826009","display":"Delivery of Singleton"}]}},{"condition":{"reference":"Condition/delivery-of-singleton-4b2c"}}]},"request":{"method":"PUT","url":"Encounter/69093af8-1ec8-46e2-b087-aa633dfa99f5"}},{"fullUrl":"https://madie.cms.gov/Procedure/5d014eb0b848460872380448","resource":{"resourceType":"Procedure","id":"28b518b0-c05e-4ade-a1c5-5affe5a17971","meta":{"profile":["http://hl7.org/fhir/us/qicore/StructureDefinition/qicore-procedure"]},"extension":[{"url":"http://hl7.org/fhir/us/qicore/StructureDefinition/qicore-recorded","valueDateTime":"2013-04-05T09:35:00-04:00"}],"status":"completed","code":{"coding":[{"system":"http://www.cms.gov/Medicare/Coding/ICD10","code":"10D00Z0"},{"system":"http://snomed.info/sct","code":"4504004"},{"system":"http://www.icd10data.com/icd10pcs","code":"10D00Z0","userSelected":true}]},"subject":{"reference":"Patient/912e076d-3b5d-46cc-b2cb-c78172b295a3"},"performedPeriod":{"start":"2025-06-08T20:00:00.000Z"}},"request":{"method":"PUT","url":"Procedure/28b518b0-c05e-4ade-a1c5-5affe5a17971"}},{"fullUrl":"https://madie.cms.gov/Condition/delivery-of-singleton-4b2c","resource":{"resourceType":"Condition","id":"2099f460-8e16-4528-a388-d7c36c6b25f9","meta":{"profile":["http://hl7.org/fhir/us/qicore/StructureDefinition/qicore-condition"]},"category":[{"coding":[{"system":"http://terminology.hl7.org/CodeSystem/condition-category","code":"encounter-diagnosis","display":"Encounter Diagnosis"}]}],"code":{"coding":[{"system":"http://snomed.info/sct","version":"2022-09","code":"169826009","display":"Single live birth (finding)","userSelected":true}]},"subject":{"reference":"Patient/912e076d-3b5d-46cc-b2cb-c78172b295a3"},"recordedDate":"2025-10-21T08:00:00.000+00:00"},"request":{"method":"PUT","url":"Condition/2099f460-8e16-4528-a388-d7c36c6b25f9"}},{"fullUrl":"https://madie.cms.gov/Coverage/1","resource":{"resourceType":"Coverage","id":"a94bf810-0726-4cb5-b0c1-0d1eb621d51b","meta":{"profile":["http://hl7.org/fhir/us/qicore/StructureDefinition/qicore-coverage"]},"status":"active","beneficiary":{"reference":"Patient/912e076d-3b5d-46cc-b2cb-c78172b295a3"},"payor":[{"reference":"Organization/26111c91-b0e2-476c-a20b-e3f39799f8f5"}]},"request":{"method":"PUT","url":"Coverage/a94bf810-0726-4cb5-b0c1-0d1eb621d51b"}},{"fullUrl":"https://madie.cms.gov/Organization/123456","resource":{"resourceType":"Organization","id":"26111c91-b0e2-476c-a20b-e3f39799f8f5","meta":{"profile":["http://hl7.org/fhir/us/qicore/StructureDefinition/qicore-organization"]},"identifier":[{"use":"temp","system":"urn:oid:2.16.840.1.113883.4.4","value":"21-3259825"}],"active":true,"type":[{"coding":[{"system":"http://terminology.hl7.org/CodeSystem/organization-type","code":"pay","display":"Payer"}]}],"name":"Blue Cross Blue Shield of Texas","telecom":[{"system":"phone","value":"(+1) 972-766-6900"}],"address":[{"use":"billing","type":"postal","line":["P.O. Box 660044"],"city":"Dallas","state":"TX","postalCode":"75266-0044","country":"USA"}]},"request":{"method":"PUT","url":"Organization/26111c91-b0e2-476c-a20b-e3f39799f8f5"}},{"fullUrl":"https://madie.cms.gov/Practitioner/practitioner-123456","resource":{"resourceType":"Practitioner","id":"8b7d4c48-0310-493d-9f20-b97e9b9c881b","identifier":[{"system":"http://hl7.org/fhir/sid/us-npi","value":"123456"}],"name":[{"family":"Evil","prefix":["Dr"]}]},"request":{"method":"PUT","url":"Practitioner/8b7d4c48-0310-493d-9f20-b97e9b9c881b"}},{"fullUrl":"https://madie.cms.gov/MeasureReport/f428c8e0-e822-4d4d-b008-e4a340c9c86e","resource":{"resourceType":"MeasureReport","id":"f428c8e0-e822-4d4d-b008-e4a340c9c86e","meta":{"profile":["http://hl7.org/fhir/us/cqfmeasures/StructureDefinition/test-case-cqfm"]},"contained":[{"resourceType":"Parameters","id":"9ee92ce9-b4a9-40ae-b277-7e42fdfd68d6-parameters","parameter":[{"name":"subject","valueString":"912e076d-3b5d-46cc-b2cb-c78172b295a3"}]}],"extension":[{"url":"http://hl7.org/fhir/us/cqfmeasures/StructureDefinition/cqfm-inputParameters","valueReference":{"reference":"#9ee92ce9-b4a9-40ae-b277-7e42fdfd68d6-parameters"}},{"url":"http://hl7.org/fhir/us/cqfmeasures/StructureDefinition/cqfm-testCaseDescription","valueMarkdown":"Passes IP,  intentional fail of the Den d/t EGA 36 weeks\n"}],"modifierExtension":[{"url":"http://hl7.org/fhir/us/cqfmeasures/StructureDefinition/cqfm-isTestCase","valueBoolean":true}],"status":"complete","type":"individual","measure":"https://madie.cms.gov/Measure/CesareanBirthFHIR","period":{"start":"2025-01-01","end":"2025-12-31"},"group":[{"population":[{"code":{"coding":[{"system":"http://terminology.hl7.org/CodeSystem/measure-population","code":"initial-population","display":"Initial Population"}]},"count":1},{"code":{"coding":[{"system":"http://terminology.hl7.org/CodeSystem/measure-population","code":"denominator","display":"Denominator"}]},"count":0},{"code":{"coding":[{"system":"http://terminology.hl7.org/CodeSystem/measure-population","code":"denominator-exclusion","display":"Denominator Exclusion"}]},"count":0},{"code":{"coding":[{"system":"http://terminology.hl7.org/CodeSystem/measure-population","code":"numerator","display":"Numerator"}]},"count":0}]}]},"request":{"method":"PUT","url":"MeasureReport/f428c8e0-e822-4d4d-b008-e4a340c9c86e"}}]}