{"resourceType":"Bundle","id":"tests-c24efa29-0d0b-42d0-b07e-3c0ed4fcc873-bundle","type":"transaction","entry":[{"fullUrl":"https://madie.cms.gov/Patient/c24efa29-0d0b-42d0-b07e-3c0ed4fcc873","resource":{"resourceType":"Patient","id":"c24efa29-0d0b-42d0-b07e-3c0ed4fcc873","meta":{"profile":["http://hl7.org/fhir/us/qicore/StructureDefinition/qicore-patient"]},"text":{"status":"generated","div":"<div xmlns=\"http://www.w3.org/1999/xhtml\"><div class=\"hapiHeaderText\">AssessPerfAbnPresRelvtPeriodB4TimeOfDeliv_DuringEnc <b>DENEXPASS </b></div><table class=\"hapiPropertyTable\"><tbody><tr><td>Identifier</td><td>db09244543fe550232b604cb7d87decbeb851047882e641e3fe736fdce398a0a</td></tr><tr><td>Date of birth</td><td><span>14 February 1985</span></td></tr></tbody></table></div>"},"extension":[{"url":"http://hl7.org/fhir/us/core/StructureDefinition/us-core-race","extension":[{"url":"ombCategory","valueCoding":{"system":"urn:oid:2.16.840.1.113883.6.238","code":"1002-5","display":"American Indian or Alaska Native","userSelected":true}},{"url":"text","valueString":"American Indian or Alaska Native"}]},{"url":"http://hl7.org/fhir/us/core/StructureDefinition/us-core-ethnicity","extension":[{"url":"ombCategory","valueCoding":{"system":"urn:oid:2.16.840.1.113883.6.238","code":"2135-2","display":"Hispanic or Latino","userSelected":true}},{"url":"text","valueString":"Hispanic or Latino"}]}],"identifier":[{"type":{"coding":[{"system":"http://terminology.hl7.org/CodeSystem/v2-0203","code":"MR"}]},"system":"https://bonnie-fhir.healthit.gov/","value":"63487c300968f801225401ce"}],"active":true,"name":[{"use":"usual","family":"DENEXPass","given":["AssessPerfAbnPresRelvtPeriodB4TimeOfDeliv_DuringEnc"]}],"gender":"female","birthDate":"1997-02-14"},"request":{"method":"PUT","url":"Patient/c24efa29-0d0b-42d0-b07e-3c0ed4fcc873"}},{"fullUrl":"https://madie.cms.gov/Observation/5d014eb2b8484608723805f9","resource":{"resourceType":"Observation","id":"a5883a0a-5d7f-4859-b7ec-9888cc0ce9b0","meta":{"profile":["http://hl7.org/fhir/us/qicore/StructureDefinition/qicore-observation"]},"status":"final","category":[{"coding":[{"system":"http://terminology.hl7.org/CodeSystem/observation-category","code":"exam","display":"exam","userSelected":true}]}],"code":{"coding":[{"system":"http://loinc.org","code":"11996-6"}]},"subject":{"reference":"Patient/c24efa29-0d0b-42d0-b07e-3c0ed4fcc873"},"effectiveDateTime":"2025-06-08T08:00:00.000+00:00","valueInteger":1},"request":{"method":"PUT","url":"Observation/a5883a0a-5d7f-4859-b7ec-9888cc0ce9b0"}},{"fullUrl":"https://madie.cms.gov/Observation/5d014eb2b8484608723805fb","resource":{"resourceType":"Observation","id":"8b7bd7ea-28cb-42f8-a0e4-fe1c3109508c","meta":{"profile":["http://hl7.org/fhir/us/qicore/StructureDefinition/qicore-observation"]},"status":"final","category":[{"coding":[{"system":"http://terminology.hl7.org/CodeSystem/observation-category","code":"exam","display":"exam","userSelected":true}]}],"code":{"coding":[{"system":"http://loinc.org","code":"11884-4"}]},"subject":{"reference":"Patient/c24efa29-0d0b-42d0-b07e-3c0ed4fcc873"},"effectiveDateTime":"2025-06-08T08:00:00.000+00:00","valueQuantity":{"value":43.0,"system":"http://unitsofmeasure.org","code":"weeks"}},"request":{"method":"PUT","url":"Observation/8b7bd7ea-28cb-42f8-a0e4-fe1c3109508c"}},{"fullUrl":"https://madie.cms.gov/Observation/5e61164ceadaae0000c2b22f","resource":{"resourceType":"Observation","id":"8b30cf4b-7bed-4793-985d-8968d948b096","meta":{"profile":["http://hl7.org/fhir/us/qicore/StructureDefinition/qicore-observation"]},"status":"final","category":[{"coding":[{"system":"http://terminology.hl7.org/CodeSystem/observation-category","code":"exam","display":"exam","userSelected":true}]}],"code":{"coding":[{"system":"http://loinc.org","code":"93857-1"}]},"subject":{"reference":"Patient/c24efa29-0d0b-42d0-b07e-3c0ed4fcc873"},"effectiveDateTime":"2025-06-08T20:30:00.000+00:00","valueDateTime":"2025-06-08T08:30:00+00:00"},"request":{"method":"PUT","url":"Observation/8b30cf4b-7bed-4793-985d-8968d948b096"}},{"fullUrl":"https://madie.cms.gov/Observation/606dbe2184679a0000f3ba33","resource":{"resourceType":"Observation","id":"4a91a762-3834-46f5-bf9a-7cd530088b11","meta":{"profile":["http://hl7.org/fhir/us/qicore/StructureDefinition/qicore-observation"]},"status":"final","category":[{"coding":[{"system":"http://terminology.hl7.org/CodeSystem/observation-category","code":"exam","display":"exam","userSelected":true}]}],"code":{"coding":[{"system":"http://snomed.info/sct","code":"18559007"}]},"subject":{"reference":"Patient/c24efa29-0d0b-42d0-b07e-3c0ed4fcc873"},"effectiveDateTime":"2025-06-08T08:29:00.000+00:00"},"request":{"method":"PUT","url":"Observation/4a91a762-3834-46f5-bf9a-7cd530088b11"}},{"fullUrl":"https://madie.cms.gov/Encounter/5d014eb2b8484608723805f6","resource":{"resourceType":"Encounter","id":"0ad5d6c6-55ad-4b72-b1b7-08837dd4b65d","meta":{"profile":["http://hl7.org/fhir/us/qicore/StructureDefinition/qicore-encounter"]},"status":"finished","class":{"system":"http://terminology.hl7.org/CodeSystem/v3-ActCode","code":"IMP","display":"inpatient encounter"},"type":[{"coding":[{"system":"http://snomed.info/sct","code":"8715000"}]}],"subject":{"reference":"Patient/c24efa29-0d0b-42d0-b07e-3c0ed4fcc873"},"period":{"start":"2025-06-08T08:00:00.000Z","end":"2025-06-10T08:15:00.000Z"},"diagnosis":[{"condition":{"reference":"Condition/delivery-of-singleton-099d"}}]},"request":{"method":"PUT","url":"Encounter/0ad5d6c6-55ad-4b72-b1b7-08837dd4b65d"}},{"fullUrl":"https://madie.cms.gov/Procedure/5d014eb2b8484608723805f7","resource":{"resourceType":"Procedure","id":"adb6e877-a6b9-4e6a-a999-09e5d433bee9","meta":{"profile":["http://hl7.org/fhir/us/qicore/StructureDefinition/qicore-procedure"]},"extension":[{"url":"http://hl7.org/fhir/us/qicore/StructureDefinition/qicore-recorded","valueDateTime":"2013-04-05T09:35:00-04:00"}],"status":"completed","code":{"coding":[{"system":"http://snomed.info/sct","code":"4504004"}]},"subject":{"reference":"Patient/c24efa29-0d0b-42d0-b07e-3c0ed4fcc873"},"performedPeriod":{"start":"2025-06-08T20:00:00.000Z","end":"2025-06-18T20:00:00.000Z"}},"request":{"method":"PUT","url":"Procedure/adb6e877-a6b9-4e6a-a999-09e5d433bee9"}},{"fullUrl":"https://madie.cms.gov/Condition/delivery-of-singleton-099d","resource":{"resourceType":"Condition","id":"6c1fae5d-f025-4b5f-9055-b88e32bc785f","meta":{"profile":["http://hl7.org/fhir/us/qicore/StructureDefinition/qicore-condition"]},"category":[{"coding":[{"system":"http://terminology.hl7.org/CodeSystem/condition-category","code":"encounter-diagnosis","display":"Encounter Diagnosis"}]}],"code":{"coding":[{"system":"http://snomed.info/sct","version":"2022-09","code":"169826009","display":"Single live birth (finding)","userSelected":true}]},"subject":{"reference":"Patient/c24efa29-0d0b-42d0-b07e-3c0ed4fcc873"},"recordedDate":"2025-10-17T08:00:00.000+00:00"},"request":{"method":"PUT","url":"Condition/6c1fae5d-f025-4b5f-9055-b88e32bc785f"}},{"fullUrl":"https://madie.cms.gov/Coverage/1","resource":{"resourceType":"Coverage","id":"8c2798eb-67ec-49f8-9c8b-5372176cefe3","meta":{"profile":["http://hl7.org/fhir/us/qicore/StructureDefinition/qicore-coverage"]},"status":"active","beneficiary":{"reference":"Patient/c24efa29-0d0b-42d0-b07e-3c0ed4fcc873"},"payor":[{"reference":"Organization/26111c91-b0e2-476c-a20b-e3f39799f8f5"}]},"request":{"method":"PUT","url":"Coverage/8c2798eb-67ec-49f8-9c8b-5372176cefe3"}},{"fullUrl":"https://madie.cms.gov/Organization/123456","resource":{"resourceType":"Organization","id":"26111c91-b0e2-476c-a20b-e3f39799f8f5","meta":{"profile":["http://hl7.org/fhir/us/qicore/StructureDefinition/qicore-organization"]},"identifier":[{"use":"temp","system":"urn:oid:2.16.840.1.113883.4.4","value":"21-3259825"}],"active":true,"type":[{"coding":[{"system":"http://terminology.hl7.org/CodeSystem/organization-type","code":"pay","display":"Payer"}]}],"name":"Blue Cross Blue Shield of Texas","telecom":[{"system":"phone","value":"(+1) 972-766-6900"}],"address":[{"use":"billing","type":"postal","line":["P.O. Box 660044"],"city":"Dallas","state":"TX","postalCode":"75266-0044","country":"USA"}]},"request":{"method":"PUT","url":"Organization/26111c91-b0e2-476c-a20b-e3f39799f8f5"}},{"fullUrl":"https://madie.cms.gov/Practitioner/practitioner-123456","resource":{"resourceType":"Practitioner","id":"279c2a07-f430-4e7f-ab8b-61906b8f8426","identifier":[{"system":"http://hl7.org/fhir/sid/us-npi","value":"123456"}],"name":[{"family":"Evil","prefix":["Dr"]}]},"request":{"method":"PUT","url":"Practitioner/279c2a07-f430-4e7f-ab8b-61906b8f8426"}},{"fullUrl":"https://madie.cms.gov/MeasureReport/e08d8228-17b1-4b60-9059-7f1760e841bc","resource":{"resourceType":"MeasureReport","id":"e08d8228-17b1-4b60-9059-7f1760e841bc","meta":{"profile":["http://hl7.org/fhir/us/cqfmeasures/StructureDefinition/test-case-cqfm"]},"contained":[{"resourceType":"Parameters","id":"0aaa4d94-ad93-4b72-9dd1-009284cdcff1-parameters","parameter":[{"name":"subject","valueString":"c24efa29-0d0b-42d0-b07e-3c0ed4fcc873"}]}],"extension":[{"url":"http://hl7.org/fhir/us/cqfmeasures/StructureDefinition/cqfm-inputParameters","valueReference":{"reference":"#0aaa4d94-ad93-4b72-9dd1-009284cdcff1-parameters"}},{"url":"http://hl7.org/fhir/us/cqfmeasures/StructureDefinition/cqfm-testCaseDescription","valueMarkdown":"EGA 43 weeks; Assessment performed Abnormal presentation relevant Period  before time of delivery and during Enc \n"}],"modifierExtension":[{"url":"http://hl7.org/fhir/us/cqfmeasures/StructureDefinition/cqfm-isTestCase","valueBoolean":true}],"status":"complete","type":"individual","measure":"https://madie.cms.gov/Measure/CesareanBirthFHIR","period":{"start":"2025-01-01","end":"2025-12-31"},"group":[{"population":[{"code":{"coding":[{"system":"http://terminology.hl7.org/CodeSystem/measure-population","code":"initial-population","display":"Initial Population"}]},"count":1},{"code":{"coding":[{"system":"http://terminology.hl7.org/CodeSystem/measure-population","code":"denominator","display":"Denominator"}]},"count":1},{"code":{"coding":[{"system":"http://terminology.hl7.org/CodeSystem/measure-population","code":"denominator-exclusion","display":"Denominator Exclusion"}]},"count":1},{"code":{"coding":[{"system":"http://terminology.hl7.org/CodeSystem/measure-population","code":"numerator","display":"Numerator"}]},"count":0}]}]},"request":{"method":"PUT","url":"MeasureReport/e08d8228-17b1-4b60-9059-7f1760e841bc"}}]}