{"resourceType":"Bundle","id":"tests-ea482ebf-f11a-4984-9289-0257711ed160-bundle","type":"transaction","entry":[{"fullUrl":"https://madie.cms.gov/Patient/ea482ebf-f11a-4984-9289-0257711ed160","resource":{"resourceType":"Patient","id":"ea482ebf-f11a-4984-9289-0257711ed160","meta":{"profile":["http://hl7.org/fhir/us/qicore/StructureDefinition/qicore-patient"]},"text":{"status":"generated","div":"<div xmlns=\"http://www.w3.org/1999/xhtml\"><div class=\"hapiHeaderText\">ProcCsectStartEQDelivEncStart <b>NUMPASS </b></div><table class=\"hapiPropertyTable\"><tbody><tr><td>Identifier</td><td>ba4fd3b10ac3c0774130502644ec993f7ad4c4fe84bc3b79df4100b77375baef</td></tr><tr><td>Date of birth</td><td><span>14 February 1985</span></td></tr></tbody></table></div>"},"extension":[{"url":"http://hl7.org/fhir/us/core/StructureDefinition/us-core-race","extension":[{"url":"ombCategory","valueCoding":{"system":"urn:oid:2.16.840.1.113883.6.238","code":"1002-5","display":"American Indian or Alaska Native","userSelected":true}},{"url":"text","valueString":"American Indian or Alaska Native"}]},{"url":"http://hl7.org/fhir/us/core/StructureDefinition/us-core-ethnicity","extension":[{"url":"ombCategory","valueCoding":{"system":"urn:oid:2.16.840.1.113883.6.238","code":"2135-2","display":"Hispanic or Latino","userSelected":true}},{"url":"text","valueString":"Hispanic or Latino"}]}],"identifier":[{"type":{"coding":[{"system":"http://terminology.hl7.org/CodeSystem/v2-0203","code":"MR"}]},"system":"https://bonnie-fhir.healthit.gov/","value":"63487c2d0968f80122540155"}],"active":true,"name":[{"use":"usual","family":"NUMPass","given":["ProcCsectStartEQDelivEncStart"]}],"gender":"female","birthDate":"1997-02-14"},"request":{"method":"PUT","url":"Patient/ea482ebf-f11a-4984-9289-0257711ed160"}},{"fullUrl":"https://madie.cms.gov/Observation/5d014eb1b848460872380527","resource":{"resourceType":"Observation","id":"fa78edea-d42d-4ecc-a790-c62a4839aeac","meta":{"profile":["http://hl7.org/fhir/us/qicore/StructureDefinition/qicore-observation"]},"status":"final","category":[{"coding":[{"system":"http://terminology.hl7.org/CodeSystem/observation-category","code":"exam","display":"exam","userSelected":true}]}],"code":{"coding":[{"system":"http://loinc.org","code":"11996-6"}]},"subject":{"reference":"Patient/ea482ebf-f11a-4984-9289-0257711ed160"},"effectiveDateTime":"2025-02-09T08:00:00.000+00:00","valueInteger":1},"request":{"method":"PUT","url":"Observation/fa78edea-d42d-4ecc-a790-c62a4839aeac"}},{"fullUrl":"https://madie.cms.gov/Observation/5d014eb1b848460872380529","resource":{"resourceType":"Observation","id":"41869a37-237e-4365-8004-ebddf884cbdf","meta":{"profile":["http://hl7.org/fhir/us/qicore/StructureDefinition/qicore-observation"]},"status":"final","category":[{"coding":[{"system":"http://terminology.hl7.org/CodeSystem/observation-category","code":"exam","display":"exam","userSelected":true}]}],"code":{"coding":[{"system":"http://loinc.org","code":"11884-4"}]},"subject":{"reference":"Patient/ea482ebf-f11a-4984-9289-0257711ed160"},"effectiveDateTime":"2025-11-28T21:15:00.000+00:00","valueQuantity":{"value":40.0,"system":"http://unitsofmeasure.org","code":"weeks"}},"request":{"method":"PUT","url":"Observation/41869a37-237e-4365-8004-ebddf884cbdf"}},{"fullUrl":"https://madie.cms.gov/Observation/5e6941f87ffec7000031f90e","resource":{"resourceType":"Observation","id":"79af1226-2a07-4c0a-b3e4-83893f90ce72","meta":{"profile":["http://hl7.org/fhir/us/qicore/StructureDefinition/qicore-observation"]},"status":"final","category":[{"coding":[{"system":"http://terminology.hl7.org/CodeSystem/observation-category","code":"exam","display":"exam","userSelected":true}]}],"code":{"coding":[{"system":"http://loinc.org","code":"93857-1"}]},"subject":{"reference":"Patient/ea482ebf-f11a-4984-9289-0257711ed160"},"effectiveDateTime":"2025-11-28T21:15:00.000+00:00","valueDateTime":"2025-11-28T21:15:00+00:00"},"request":{"method":"PUT","url":"Observation/79af1226-2a07-4c0a-b3e4-83893f90ce72"}},{"fullUrl":"https://madie.cms.gov/Encounter/5d014eb1b848460872380525","resource":{"resourceType":"Encounter","id":"16315c83-a254-4ffa-b480-eff3bd500c46","meta":{"profile":["http://hl7.org/fhir/us/qicore/StructureDefinition/qicore-encounter"]},"status":"finished","class":{"system":"http://terminology.hl7.org/CodeSystem/v3-ActCode","code":"IMP","display":"inpatient encounter"},"type":[{"coding":[{"system":"http://snomed.info/sct","code":"8715000"}]}],"subject":{"reference":"Patient/ea482ebf-f11a-4984-9289-0257711ed160"},"period":{"start":"2025-11-28T08:00:00.000Z","end":"2025-11-30T08:15:00.000Z"},"diagnosis":[{"condition":{"reference":"Condition/delivery-of-singleton-df6f"}}]},"request":{"method":"PUT","url":"Encounter/16315c83-a254-4ffa-b480-eff3bd500c46"}},{"fullUrl":"https://madie.cms.gov/Procedure/5d014eb1b848460872380526","resource":{"resourceType":"Procedure","id":"9b134797-cb7a-4ef7-888e-b1d00b29f27a","meta":{"profile":["http://hl7.org/fhir/us/qicore/StructureDefinition/qicore-procedure"]},"extension":[{"url":"http://hl7.org/fhir/us/qicore/StructureDefinition/qicore-recorded","valueDateTime":"2013-04-05T09:35:00-04:00"}],"status":"completed","code":{"coding":[{"system":"http://www.cms.gov/Medicare/Coding/ICD10","code":"10D00Z0"},{"system":"http://www.icd10data.com/icd10pcs","code":"10D00Z0","userSelected":true}]},"subject":{"reference":"Patient/ea482ebf-f11a-4984-9289-0257711ed160"},"performedPeriod":{"start":"2025-11-28T08:00:00.000Z","end":"2025-11-28T09:00:00.000Z"}},"request":{"method":"PUT","url":"Procedure/9b134797-cb7a-4ef7-888e-b1d00b29f27a"}},{"fullUrl":"https://madie.cms.gov/Condition/delivery-of-singleton-df6f","resource":{"resourceType":"Condition","id":"16109289-3850-4fe6-8563-3a74e1f208b2","meta":{"profile":["http://hl7.org/fhir/us/qicore/StructureDefinition/qicore-condition"]},"category":[{"coding":[{"system":"http://terminology.hl7.org/CodeSystem/condition-category","code":"encounter-diagnosis","display":"Encounter Diagnosis"}]}],"code":{"coding":[{"system":"http://snomed.info/sct","version":"2022-09","code":"169826009","display":"Single live birth (finding)","userSelected":true}]},"subject":{"reference":"Patient/ea482ebf-f11a-4984-9289-0257711ed160"},"recordedDate":"2025-10-17T08:00:00.000+00:00"},"request":{"method":"PUT","url":"Condition/16109289-3850-4fe6-8563-3a74e1f208b2"}},{"fullUrl":"https://madie.cms.gov/Coverage/1","resource":{"resourceType":"Coverage","id":"41b15620-9306-44fc-a4a9-24cc48f8704b","meta":{"profile":["http://hl7.org/fhir/us/qicore/StructureDefinition/qicore-coverage"]},"status":"active","beneficiary":{"reference":"Patient/ea482ebf-f11a-4984-9289-0257711ed160"},"payor":[{"reference":"Organization/26111c91-b0e2-476c-a20b-e3f39799f8f5"}]},"request":{"method":"PUT","url":"Coverage/41b15620-9306-44fc-a4a9-24cc48f8704b"}},{"fullUrl":"https://madie.cms.gov/Organization/123456","resource":{"resourceType":"Organization","id":"26111c91-b0e2-476c-a20b-e3f39799f8f5","meta":{"profile":["http://hl7.org/fhir/us/qicore/StructureDefinition/qicore-organization"]},"identifier":[{"use":"temp","system":"urn:oid:2.16.840.1.113883.4.4","value":"21-3259825"}],"active":true,"type":[{"coding":[{"system":"http://terminology.hl7.org/CodeSystem/organization-type","code":"pay","display":"Payer"}]}],"name":"Blue Cross Blue Shield of Texas","telecom":[{"system":"phone","value":"(+1) 972-766-6900"}],"address":[{"use":"billing","type":"postal","line":["P.O. Box 660044"],"city":"Dallas","state":"TX","postalCode":"75266-0044","country":"USA"}]},"request":{"method":"PUT","url":"Organization/26111c91-b0e2-476c-a20b-e3f39799f8f5"}},{"fullUrl":"https://madie.cms.gov/Practitioner/practitioner-123456","resource":{"resourceType":"Practitioner","id":"1bb6d9ad-2f97-47ca-bed5-e35bc0021c37","identifier":[{"system":"http://hl7.org/fhir/sid/us-npi","value":"123456"}],"name":[{"family":"Evil","prefix":["Dr"]}]},"request":{"method":"PUT","url":"Practitioner/1bb6d9ad-2f97-47ca-bed5-e35bc0021c37"}},{"fullUrl":"https://madie.cms.gov/MeasureReport/b8ea02bd-845c-4c97-b874-ccbc9e907929","resource":{"resourceType":"MeasureReport","id":"b8ea02bd-845c-4c97-b874-ccbc9e907929","meta":{"profile":["http://hl7.org/fhir/us/cqfmeasures/StructureDefinition/test-case-cqfm"]},"contained":[{"resourceType":"Parameters","id":"c81fb5c8-0bd6-4404-8507-c3bb955983ae-parameters","parameter":[{"name":"subject","valueString":"ea482ebf-f11a-4984-9289-0257711ed160"}]}],"extension":[{"url":"http://hl7.org/fhir/us/cqfmeasures/StructureDefinition/cqfm-inputParameters","valueReference":{"reference":"#c81fb5c8-0bd6-4404-8507-c3bb955983ae-parameters"}},{"url":"http://hl7.org/fhir/us/cqfmeasures/StructureDefinition/cqfm-testCaseDescription","valueMarkdown":"Passes IP, DEN, NUM; Gravida 1(effective date 42 weeks)  and EGA 40 weeks;  Start of Proc Csect equals start of Delivery Encounter."}],"modifierExtension":[{"url":"http://hl7.org/fhir/us/cqfmeasures/StructureDefinition/cqfm-isTestCase","valueBoolean":true}],"status":"complete","type":"individual","measure":"https://madie.cms.gov/Measure/CesareanBirthFHIR","period":{"start":"2025-01-01","end":"2025-12-31"},"group":[{"population":[{"code":{"coding":[{"system":"http://terminology.hl7.org/CodeSystem/measure-population","code":"initial-population","display":"Initial Population"}]},"count":1},{"code":{"coding":[{"system":"http://terminology.hl7.org/CodeSystem/measure-population","code":"denominator","display":"Denominator"}]},"count":1},{"code":{"coding":[{"system":"http://terminology.hl7.org/CodeSystem/measure-population","code":"denominator-exclusion","display":"Denominator Exclusion"}]},"count":0},{"code":{"coding":[{"system":"http://terminology.hl7.org/CodeSystem/measure-population","code":"numerator","display":"Numerator"}]},"count":1}]}]},"request":{"method":"PUT","url":"MeasureReport/b8ea02bd-845c-4c97-b874-ccbc9e907929"}}]}