{"resourceType":"Bundle","id":"tests-c7cb1c01-711f-4c40-8242-5828e7ed7807-bundle","type":"transaction","entry":[{"fullUrl":"https://madie.cms.gov/Patient/c7cb1c01-711f-4c40-8242-5828e7ed7807","resource":{"resourceType":"Patient","id":"c7cb1c01-711f-4c40-8242-5828e7ed7807","meta":{"profile":["http://hl7.org/fhir/us/qicore/StructureDefinition/qicore-patient"]},"text":{"status":"generated","div":"<div xmlns=\"http://www.w3.org/1999/xhtml\"><div class=\"hapiHeaderText\">CalcEGA36Weeks6Days <b>DENFAIL </b></div><table class=\"hapiPropertyTable\"><tbody><tr><td>Identifier</td><td>c6b51506d3a7092894a3f06af44f7ab397fd257a35f97f16644057feff48ec70</td></tr><tr><td>Date of birth</td><td><span>14 February 1985</span></td></tr></tbody></table></div>"},"extension":[{"url":"http://hl7.org/fhir/us/core/StructureDefinition/us-core-race","extension":[{"url":"ombCategory","valueCoding":{"system":"urn:oid:2.16.840.1.113883.6.238","code":"1002-5","display":"American Indian or Alaska Native","userSelected":true}},{"url":"text","valueString":"American Indian or Alaska Native"}]},{"url":"http://hl7.org/fhir/us/core/StructureDefinition/us-core-ethnicity","extension":[{"url":"ombCategory","valueCoding":{"system":"urn:oid:2.16.840.1.113883.6.238","code":"2135-2","display":"Hispanic or Latino","userSelected":true}},{"url":"text","valueString":"Hispanic or Latino"}]}],"identifier":[{"type":{"coding":[{"system":"http://terminology.hl7.org/CodeSystem/v2-0203","code":"MR"}]},"system":"https://bonnie-fhir.healthit.gov/","value":"63487c2f0968f8012254019f"}],"active":true,"name":[{"use":"usual","family":"DENFail","given":["CalcEGA36Weeks6Days"]}],"gender":"female","birthDate":"1997-02-14"},"request":{"method":"PUT","url":"Patient/c7cb1c01-711f-4c40-8242-5828e7ed7807"}},{"fullUrl":"https://madie.cms.gov/Observation/5d014eb3b8484608723806a8","resource":{"resourceType":"Observation","id":"eb03c741-5660-4ee2-b3cc-031a136bf16a","meta":{"profile":["http://hl7.org/fhir/us/qicore/StructureDefinition/qicore-observation"]},"status":"final","category":[{"coding":[{"system":"http://terminology.hl7.org/CodeSystem/observation-category","code":"exam","display":"exam","userSelected":true}]}],"code":{"coding":[{"system":"http://loinc.org","code":"11996-6"}]},"subject":{"reference":"Patient/c7cb1c01-711f-4c40-8242-5828e7ed7807"},"effectiveDateTime":"2024-08-19T19:00:00.000+00:00","valueInteger":1},"request":{"method":"PUT","url":"Observation/eb03c741-5660-4ee2-b3cc-031a136bf16a"}},{"fullUrl":"https://madie.cms.gov/Observation/5e61678a3e992300009b6f5e","resource":{"resourceType":"Observation","id":"43fbf59c-c0da-4748-b860-909c279c32b6","meta":{"profile":["http://hl7.org/fhir/us/qicore/StructureDefinition/qicore-observation"]},"status":"final","category":[{"coding":[{"system":"http://terminology.hl7.org/CodeSystem/observation-category","code":"exam","display":"exam","userSelected":true}]}],"code":{"coding":[{"system":"http://loinc.org","code":"93857-1"}]},"subject":{"reference":"Patient/c7cb1c01-711f-4c40-8242-5828e7ed7807"},"effectiveDateTime":"2025-01-15T19:00:00.000+00:00","valueDateTime":"2025-01-15T19:00:00+00:00"},"request":{"method":"PUT","url":"Observation/43fbf59c-c0da-4748-b860-909c279c32b6"}},{"fullUrl":"https://madie.cms.gov/Observation/5e8a5430ae2856000046a20d","resource":{"resourceType":"Observation","id":"4c370ef4-c651-40d2-9867-569b52d69700","meta":{"profile":["http://hl7.org/fhir/us/qicore/StructureDefinition/qicore-observation"]},"status":"final","category":[{"coding":[{"system":"http://terminology.hl7.org/CodeSystem/observation-category","code":"exam","display":"exam","userSelected":true}]}],"code":{"coding":[{"system":"http://loinc.org","code":"11778-8"}]},"subject":{"reference":"Patient/c7cb1c01-711f-4c40-8242-5828e7ed7807"},"effectiveDateTime":"2025-01-15T19:00:00.000+00:00","valueDateTime":"2025-02-06T08:00:00+00:00"},"request":{"method":"PUT","url":"Observation/4c370ef4-c651-40d2-9867-569b52d69700"}},{"fullUrl":"https://madie.cms.gov/Encounter/5d014eb3b8484608723806a6","resource":{"resourceType":"Encounter","id":"11b6c3c0-077d-4265-b894-7ae306aae7f8","meta":{"profile":["http://hl7.org/fhir/us/qicore/StructureDefinition/qicore-encounter"]},"status":"finished","class":{"system":"http://terminology.hl7.org/CodeSystem/v3-ActCode","code":"IMP","display":"inpatient encounter"},"type":[{"coding":[{"system":"http://snomed.info/sct","code":"183452005"}]}],"subject":{"reference":"Patient/c7cb1c01-711f-4c40-8242-5828e7ed7807"},"period":{"start":"2025-01-15T08:00:00.000Z","end":"2025-01-20T08:15:00.000Z"},"length":{"value":2.0,"unit":"days"},"diagnosis":[{"condition":{"reference":"Condition/delivery-of-singleton-f83c"},"use":{"coding":[{"system":"http://snomed.info/sct","code":"169826009","display":"Delivery of Singleton"}]}},{"condition":{"reference":"Condition/delivery-of-singleton-4b26"}}]},"request":{"method":"PUT","url":"Encounter/11b6c3c0-077d-4265-b894-7ae306aae7f8"}},{"fullUrl":"https://madie.cms.gov/Procedure/5d014eb3b8484608723806a7","resource":{"resourceType":"Procedure","id":"98a236c1-7699-403e-bd21-9ed47eccbea4","meta":{"profile":["http://hl7.org/fhir/us/qicore/StructureDefinition/qicore-procedure"]},"extension":[{"url":"http://hl7.org/fhir/us/qicore/StructureDefinition/qicore-recorded","valueDateTime":"2013-04-05T09:35:00-04:00"}],"status":"completed","code":{"coding":[{"system":"http://www.cms.gov/Medicare/Coding/ICD10","code":"10D07Z3"},{"system":"http://www.icd10data.com/icd10pcs","code":"10D07Z3","userSelected":true}]},"subject":{"reference":"Patient/c7cb1c01-711f-4c40-8242-5828e7ed7807"},"performedPeriod":{"start":"2025-01-15T08:10:00.000Z","end":"2025-01-15T09:14:00.000Z"}},"request":{"method":"PUT","url":"Procedure/98a236c1-7699-403e-bd21-9ed47eccbea4"}},{"fullUrl":"https://madie.cms.gov/Condition/delivery-of-singleton-4b26","resource":{"resourceType":"Condition","id":"76141578-78f7-444f-ac09-892003f1c6cf","meta":{"profile":["http://hl7.org/fhir/us/qicore/StructureDefinition/qicore-condition"]},"category":[{"coding":[{"system":"http://terminology.hl7.org/CodeSystem/condition-category","code":"encounter-diagnosis","display":"Encounter Diagnosis"}]}],"code":{"coding":[{"system":"http://snomed.info/sct","version":"2022-09","code":"169826009","display":"Single live birth (finding)","userSelected":true}]},"subject":{"reference":"Patient/c7cb1c01-711f-4c40-8242-5828e7ed7807"},"recordedDate":"2025-10-21T08:00:00.000+00:00"},"request":{"method":"PUT","url":"Condition/76141578-78f7-444f-ac09-892003f1c6cf"}},{"fullUrl":"https://madie.cms.gov/Coverage/1","resource":{"resourceType":"Coverage","id":"8238079d-c2e6-4002-8107-52714d2a8d8c","meta":{"profile":["http://hl7.org/fhir/us/qicore/StructureDefinition/qicore-coverage"]},"status":"active","beneficiary":{"reference":"Patient/c7cb1c01-711f-4c40-8242-5828e7ed7807"},"payor":[{"reference":"Organization/26111c91-b0e2-476c-a20b-e3f39799f8f5"}]},"request":{"method":"PUT","url":"Coverage/8238079d-c2e6-4002-8107-52714d2a8d8c"}},{"fullUrl":"https://madie.cms.gov/Organization/123456","resource":{"resourceType":"Organization","id":"26111c91-b0e2-476c-a20b-e3f39799f8f5","meta":{"profile":["http://hl7.org/fhir/us/qicore/StructureDefinition/qicore-organization"]},"identifier":[{"use":"temp","system":"urn:oid:2.16.840.1.113883.4.4","value":"21-3259825"}],"active":true,"type":[{"coding":[{"system":"http://terminology.hl7.org/CodeSystem/organization-type","code":"pay","display":"Payer"}]}],"name":"Blue Cross Blue Shield of Texas","telecom":[{"system":"phone","value":"(+1) 972-766-6900"}],"address":[{"use":"billing","type":"postal","line":["P.O. Box 660044"],"city":"Dallas","state":"TX","postalCode":"75266-0044","country":"USA"}]},"request":{"method":"PUT","url":"Organization/26111c91-b0e2-476c-a20b-e3f39799f8f5"}},{"fullUrl":"https://madie.cms.gov/Practitioner/practitioner-123456","resource":{"resourceType":"Practitioner","id":"65fd376b-5dca-4bb1-98cd-0c00c92f6408","identifier":[{"system":"http://hl7.org/fhir/sid/us-npi","value":"123456"}],"name":[{"family":"Evil","prefix":["Dr"]}]},"request":{"method":"PUT","url":"Practitioner/65fd376b-5dca-4bb1-98cd-0c00c92f6408"}},{"fullUrl":"https://madie.cms.gov/MeasureReport/2dcbc387-0c31-4a46-86e4-3c9532b34248","resource":{"resourceType":"MeasureReport","id":"2dcbc387-0c31-4a46-86e4-3c9532b34248","meta":{"profile":["http://hl7.org/fhir/us/cqfmeasures/StructureDefinition/test-case-cqfm"]},"contained":[{"resourceType":"Parameters","id":"88d4ef9b-5c90-49be-9363-3cf94d5853a1-parameters","parameter":[{"name":"subject","valueString":"c7cb1c01-711f-4c40-8242-5828e7ed7807"}]}],"extension":[{"url":"http://hl7.org/fhir/us/cqfmeasures/StructureDefinition/cqfm-inputParameters","valueReference":{"reference":"#88d4ef9b-5c90-49be-9363-3cf94d5853a1-parameters"}},{"url":"http://hl7.org/fhir/us/cqfmeasures/StructureDefinition/cqfm-testCaseDescription","valueMarkdown":"Calculated EGA is 36 Weeks 6 Days\n"}],"modifierExtension":[{"url":"http://hl7.org/fhir/us/cqfmeasures/StructureDefinition/cqfm-isTestCase","valueBoolean":true}],"status":"complete","type":"individual","measure":"https://madie.cms.gov/Measure/CesareanBirthFHIR","period":{"start":"2025-01-01","end":"2025-12-31"},"group":[{"population":[{"code":{"coding":[{"system":"http://terminology.hl7.org/CodeSystem/measure-population","code":"initial-population","display":"Initial Population"}]},"count":1},{"code":{"coding":[{"system":"http://terminology.hl7.org/CodeSystem/measure-population","code":"denominator","display":"Denominator"}]},"count":0},{"code":{"coding":[{"system":"http://terminology.hl7.org/CodeSystem/measure-population","code":"denominator-exclusion","display":"Denominator Exclusion"}]},"count":0},{"code":{"coding":[{"system":"http://terminology.hl7.org/CodeSystem/measure-population","code":"numerator","display":"Numerator"}]},"count":0}]}]},"request":{"method":"PUT","url":"MeasureReport/2dcbc387-0c31-4a46-86e4-3c9532b34248"}}]}