{"resourceType":"Bundle","id":"tests-64bbffd3-e7b5-4cfb-8e7d-6705b46ce964-bundle","type":"transaction","entry":[{"fullUrl":"https://madie.cms.gov/Patient/64bbffd3-e7b5-4cfb-8e7d-6705b46ce964","resource":{"resourceType":"Patient","id":"64bbffd3-e7b5-4cfb-8e7d-6705b46ce964","meta":{"profile":["http://hl7.org/fhir/us/qicore/StructureDefinition/qicore-patient"]},"text":{"status":"generated","div":"<div xmlns=\"http://www.w3.org/1999/xhtml\"><div class=\"hapiHeaderText\">2EncW/in42weeksEGAeq38OnFirstEGAeq36OnSecond <b>DENFAIL </b></div><table class=\"hapiPropertyTable\"><tbody><tr><td>Identifier</td><td>d49eff12b5ae0570e385f43288917b0fcc7f54d4422938b9cf7918aaeb400005</td></tr><tr><td>Date of birth</td><td><span>14 February 1985</span></td></tr></tbody></table></div>"},"extension":[{"url":"http://hl7.org/fhir/us/core/StructureDefinition/us-core-race","extension":[{"url":"ombCategory","valueCoding":{"system":"urn:oid:2.16.840.1.113883.6.238","code":"1002-5","display":"American Indian or Alaska Native","userSelected":true}},{"url":"text","valueString":"American Indian or Alaska Native"}]},{"url":"http://hl7.org/fhir/us/core/StructureDefinition/us-core-ethnicity","extension":[{"url":"ombCategory","valueCoding":{"system":"urn:oid:2.16.840.1.113883.6.238","code":"2135-2","display":"Hispanic or Latino","userSelected":true}},{"url":"text","valueString":"Hispanic or Latino"}]}],"identifier":[{"type":{"coding":[{"system":"http://terminology.hl7.org/CodeSystem/v2-0203","code":"MR"}]},"system":"https://bonnie-fhir.healthit.gov/","value":"63487c2f0968f80122540199"}],"active":true,"name":[{"use":"usual","family":"DENPass","given":["2EncWin42weeksEGAeq38onBothEncounters"]}],"gender":"female","birthDate":"1997-02-14"},"request":{"method":"PUT","url":"Patient/64bbffd3-e7b5-4cfb-8e7d-6705b46ce964"}},{"fullUrl":"https://madie.cms.gov/Observation/5d4060afb848462dd07670d0","resource":{"resourceType":"Observation","id":"29a90d38-e985-4099-9d05-c08c82304a3b","meta":{"profile":["http://hl7.org/fhir/us/qicore/StructureDefinition/qicore-observation"]},"status":"final","category":[{"coding":[{"system":"http://terminology.hl7.org/CodeSystem/observation-category","code":"exam","display":"exam","userSelected":true}]}],"code":{"coding":[{"system":"http://loinc.org","code":"11884-4"}]},"subject":{"reference":"Patient/64bbffd3-e7b5-4cfb-8e7d-6705b46ce964"},"effectiveDateTime":"2025-02-01T09:15:00.000+00:00","valueQuantity":{"value":38.0,"system":"http://unitsofmeasure.org","code":"wk"}},"request":{"method":"PUT","url":"Observation/29a90d38-e985-4099-9d05-c08c82304a3b"}},{"fullUrl":"https://madie.cms.gov/Observation/5d4060afb848462dd07670d3","resource":{"resourceType":"Observation","id":"913d9872-1b25-4eef-ad3c-2cbfb44fd3c4","meta":{"profile":["http://hl7.org/fhir/us/qicore/StructureDefinition/qicore-observation"]},"status":"final","category":[{"coding":[{"system":"http://terminology.hl7.org/CodeSystem/observation-category","code":"exam","display":"exam","userSelected":true}]}],"code":{"coding":[{"system":"http://loinc.org","code":"11884-4"}]},"subject":{"reference":"Patient/64bbffd3-e7b5-4cfb-8e7d-6705b46ce964"},"effectiveDateTime":"2025-11-10T08:00:00.000+00:00","valueQuantity":{"value":38.0,"system":"http://unitsofmeasure.org","code":"wk"}},"request":{"method":"PUT","url":"Observation/913d9872-1b25-4eef-ad3c-2cbfb44fd3c4"}},{"fullUrl":"https://madie.cms.gov/Observation/5e611b58eadaae0000c2ba91","resource":{"resourceType":"Observation","id":"afa80c72-6dbb-4a48-aa21-3f1e5fda7f12","meta":{"profile":["http://hl7.org/fhir/us/qicore/StructureDefinition/qicore-observation"]},"status":"final","category":[{"coding":[{"system":"http://terminology.hl7.org/CodeSystem/observation-category","code":"exam","display":"exam","userSelected":true}]}],"code":{"coding":[{"system":"http://loinc.org","code":"93857-1"}]},"subject":{"reference":"Patient/64bbffd3-e7b5-4cfb-8e7d-6705b46ce964"},"effectiveDateTime":"2025-02-01T19:00:00.000+00:00","valueDateTime":"2025-02-01T19:00:00+00:00"},"request":{"method":"PUT","url":"Observation/afa80c72-6dbb-4a48-aa21-3f1e5fda7f12"}},{"fullUrl":"https://madie.cms.gov/Observation/5e611b93eadaae0000c2bb86","resource":{"resourceType":"Observation","id":"564d8fde-ff1b-4eff-bd7f-a3942af8b48e","meta":{"profile":["http://hl7.org/fhir/us/qicore/StructureDefinition/qicore-observation"]},"status":"final","category":[{"coding":[{"system":"http://terminology.hl7.org/CodeSystem/observation-category","code":"exam","display":"exam","userSelected":true}]}],"code":{"coding":[{"system":"http://loinc.org","code":"93857-1"}]},"subject":{"reference":"Patient/64bbffd3-e7b5-4cfb-8e7d-6705b46ce964"},"effectiveDateTime":"2025-11-10T08:00:00.000+00:00","valueDateTime":"2025-11-10T08:00:00+00:00"},"request":{"method":"PUT","url":"Observation/564d8fde-ff1b-4eff-bd7f-a3942af8b48e"}},{"fullUrl":"https://madie.cms.gov/Observation/5e713a01196c820000976152","resource":{"resourceType":"Observation","id":"3a3e533f-6150-49e2-af19-80a50f458139","meta":{"profile":["http://hl7.org/fhir/us/qicore/StructureDefinition/qicore-observation"]},"status":"final","category":[{"coding":[{"system":"http://terminology.hl7.org/CodeSystem/observation-category","code":"exam","display":"exam","userSelected":true}]}],"code":{"coding":[{"system":"http://loinc.org","code":"11639-2"}]},"subject":{"reference":"Patient/64bbffd3-e7b5-4cfb-8e7d-6705b46ce964"},"effectiveDateTime":"2025-01-31T08:00:00.000+00:00","valueInteger":0},"request":{"method":"PUT","url":"Observation/3a3e533f-6150-49e2-af19-80a50f458139"}},{"fullUrl":"https://madie.cms.gov/Observation/5e713a25196c820000976168","resource":{"resourceType":"Observation","id":"6db89bc7-cdaa-43ef-8f66-6860fc0f07ca","meta":{"profile":["http://hl7.org/fhir/us/qicore/StructureDefinition/qicore-observation"]},"status":"final","category":[{"coding":[{"system":"http://terminology.hl7.org/CodeSystem/observation-category","code":"exam","display":"exam","userSelected":true}]}],"code":{"coding":[{"system":"http://loinc.org","code":"11637-6"}]},"subject":{"reference":"Patient/64bbffd3-e7b5-4cfb-8e7d-6705b46ce964"},"effectiveDateTime":"2025-01-31T08:00:00.000+00:00","valueInteger":0},"request":{"method":"PUT","url":"Observation/6db89bc7-cdaa-43ef-8f66-6860fc0f07ca"}},{"fullUrl":"https://madie.cms.gov/Observation/5e713afd196c8200009761ce","resource":{"resourceType":"Observation","id":"32da5600-33df-491a-9087-93f434c83c53","meta":{"profile":["http://hl7.org/fhir/us/qicore/StructureDefinition/qicore-observation"]},"status":"final","category":[{"coding":[{"system":"http://terminology.hl7.org/CodeSystem/observation-category","code":"exam","display":"exam","userSelected":true}]}],"code":{"coding":[{"system":"http://loinc.org","code":"11639-2"}]},"subject":{"reference":"Patient/64bbffd3-e7b5-4cfb-8e7d-6705b46ce964"},"effectiveDateTime":"2025-11-09T08:00:00.000+00:00","valueInteger":1},"request":{"method":"PUT","url":"Observation/32da5600-33df-491a-9087-93f434c83c53"}},{"fullUrl":"https://madie.cms.gov/Observation/5e713b02196c8200009761e4","resource":{"resourceType":"Observation","id":"075a4fa6-811d-483b-abc1-309d30548308","meta":{"profile":["http://hl7.org/fhir/us/qicore/StructureDefinition/qicore-observation"]},"status":"final","category":[{"coding":[{"system":"http://terminology.hl7.org/CodeSystem/observation-category","code":"exam","display":"exam","userSelected":true}]}],"code":{"coding":[{"system":"http://loinc.org","code":"11637-6"}]},"subject":{"reference":"Patient/64bbffd3-e7b5-4cfb-8e7d-6705b46ce964"},"effectiveDateTime":"2025-11-09T08:00:00.000+00:00","valueInteger":1},"request":{"method":"PUT","url":"Observation/075a4fa6-811d-483b-abc1-309d30548308"}},{"fullUrl":"https://madie.cms.gov/Encounter/5d4060afb848462dd07670ce","resource":{"resourceType":"Encounter","id":"8bb65758-814e-4255-bfca-7089d38844ad","meta":{"profile":["http://hl7.org/fhir/us/qicore/StructureDefinition/qicore-encounter"]},"status":"finished","class":{"system":"http://terminology.hl7.org/CodeSystem/v3-ActCode","code":"IMP","display":"inpatient encounter"},"type":[{"coding":[{"system":"http://snomed.info/sct","code":"183452005"}]}],"subject":{"reference":"Patient/64bbffd3-e7b5-4cfb-8e7d-6705b46ce964"},"period":{"start":"2025-02-01T08:00:00.000Z","end":"2025-02-05T08:15:00.000Z"},"length":{"value":4.0,"unit":"days"},"diagnosis":[{"condition":{"reference":"Condition/delivery-of-singleton-f83c"},"use":{"coding":[{"system":"http://snomed.info/sct","code":"169826009","display":"Delivery of Singleton"}]}},{"condition":{"reference":"Condition/delivery-of-singleton-9a7d"}}]},"request":{"method":"PUT","url":"Encounter/8bb65758-814e-4255-bfca-7089d38844ad"}},{"fullUrl":"https://madie.cms.gov/Encounter/5d4060afb848462dd07670d5","resource":{"resourceType":"Encounter","id":"87a8b2d6-c786-4e21-a8fb-eaa3c8d35cdd","meta":{"profile":["http://hl7.org/fhir/us/qicore/StructureDefinition/qicore-encounter"]},"status":"finished","class":{"system":"http://terminology.hl7.org/CodeSystem/v3-ActCode","code":"IMP","display":"inpatient encounter"},"type":[{"coding":[{"system":"http://snomed.info/sct","code":"183452005"}]}],"subject":{"reference":"Patient/64bbffd3-e7b5-4cfb-8e7d-6705b46ce964"},"period":{"start":"2025-11-10T08:00:00.000Z","end":"2025-11-15T08:15:00.000Z"},"length":{"value":5.0,"unit":"days"},"diagnosis":[{"condition":{"reference":"Condition/delivery-of-singleton-f83c"},"use":{"coding":[{"system":"http://snomed.info/sct","code":"169826009","display":"Delivery of Singleton"}]}}]},"request":{"method":"PUT","url":"Encounter/87a8b2d6-c786-4e21-a8fb-eaa3c8d35cdd"}},{"fullUrl":"https://madie.cms.gov/Coverage/5f5f9e4f1c76ba674bb0336d","resource":{"resourceType":"Coverage","id":"3da3f198-7390-455d-9e87-a130b00b9c75","status":"active","beneficiary":{"reference":"Patient/64bbffd3-e7b5-4cfb-8e7d-6705b46ce964"},"period":{"start":"1985-02-14T08:00:00.000Z"},"payor":[{"reference":"Organization/26111c91-b0e2-476c-a20b-e3f39799f8f5"}]},"request":{"method":"PUT","url":"Coverage/3da3f198-7390-455d-9e87-a130b00b9c75"}},{"fullUrl":"https://madie.cms.gov/Procedure/5d4060afb848462dd07670cf","resource":{"resourceType":"Procedure","id":"86435e90-204d-4ba1-86a9-c5adad52a477","meta":{"profile":["http://hl7.org/fhir/us/qicore/StructureDefinition/qicore-procedure"]},"extension":[{"url":"http://hl7.org/fhir/us/qicore/StructureDefinition/qicore-recorded","valueDateTime":"2013-04-05T09:35:00-04:00"}],"status":"completed","code":{"coding":[{"system":"http://snomed.info/sct","code":"10745001"},{"system":"http://www.cms.gov/Medicare/Coding/ICD10","code":"10D00Z0"},{"system":"http://www.icd10data.com/icd10pcs","code":"10D00Z0","userSelected":true}]},"subject":{"reference":"Patient/64bbffd3-e7b5-4cfb-8e7d-6705b46ce964"},"performedPeriod":{"start":"2025-02-01T08:00:00.000Z","end":"2025-02-05T08:15:00.000Z"}},"request":{"method":"PUT","url":"Procedure/86435e90-204d-4ba1-86a9-c5adad52a477"}},{"fullUrl":"https://madie.cms.gov/Procedure/5d4060afb848462dd07670d6","resource":{"resourceType":"Procedure","id":"50b3f4dc-8011-4364-bcf8-5d13e801139f","meta":{"profile":["http://hl7.org/fhir/us/qicore/StructureDefinition/qicore-procedure"]},"extension":[{"url":"http://hl7.org/fhir/us/qicore/StructureDefinition/qicore-recorded","valueDateTime":"2013-04-05T09:35:00-04:00"}],"status":"completed","code":{"coding":[{"system":"http://snomed.info/sct","code":"10745001"},{"system":"http://www.cms.gov/Medicare/Coding/ICD10","code":"10D00Z0"},{"system":"http://www.icd10data.com/icd10pcs","code":"10D00Z0","userSelected":true}]},"subject":{"reference":"Patient/64bbffd3-e7b5-4cfb-8e7d-6705b46ce964"},"performedPeriod":{"start":"2025-11-10T08:00:00.000Z","end":"2025-11-15T08:15:00.000Z"}},"request":{"method":"PUT","url":"Procedure/50b3f4dc-8011-4364-bcf8-5d13e801139f"}},{"fullUrl":"https://madie.cms.gov/Condition/delivery-of-singleton-9a7d","resource":{"resourceType":"Condition","id":"156cf9ef-12f7-4742-a66f-587a3d0fafca","meta":{"profile":["http://hl7.org/fhir/us/qicore/StructureDefinition/qicore-condition"]},"category":[{"coding":[{"system":"http://terminology.hl7.org/CodeSystem/condition-category","code":"encounter-diagnosis","display":"Encounter Diagnosis"}]}],"code":{"coding":[{"system":"http://snomed.info/sct","version":"2022-09","code":"169826009","display":"Single live birth (finding)","userSelected":true}]},"subject":{"reference":"Patient/64bbffd3-e7b5-4cfb-8e7d-6705b46ce964"},"recordedDate":"2025-10-21T08:00:00.000+00:00"},"request":{"method":"PUT","url":"Condition/156cf9ef-12f7-4742-a66f-587a3d0fafca"}},{"fullUrl":"https://madie.cms.gov/Organization/123456","resource":{"resourceType":"Organization","id":"26111c91-b0e2-476c-a20b-e3f39799f8f5","meta":{"profile":["http://hl7.org/fhir/us/qicore/StructureDefinition/qicore-organization"]},"identifier":[{"use":"temp","system":"urn:oid:2.16.840.1.113883.4.4","value":"21-3259825"}],"active":true,"type":[{"coding":[{"system":"http://terminology.hl7.org/CodeSystem/organization-type","code":"pay","display":"Payer"}]}],"name":"Blue Cross Blue Shield of Texas","telecom":[{"system":"phone","value":"(+1) 972-766-6900"}],"address":[{"use":"billing","type":"postal","line":["P.O. Box 660044"],"city":"Dallas","state":"TX","postalCode":"75266-0044","country":"USA"}]},"request":{"method":"PUT","url":"Organization/26111c91-b0e2-476c-a20b-e3f39799f8f5"}},{"fullUrl":"https://madie.cms.gov/Practitioner/practitioner-123456","resource":{"resourceType":"Practitioner","id":"0165b0b3-c8ce-4ea3-ae6c-be5730d08552","identifier":[{"system":"http://hl7.org/fhir/sid/us-npi","value":"123456"}],"name":[{"family":"Evil","prefix":["Dr"]}]},"request":{"method":"PUT","url":"Practitioner/0165b0b3-c8ce-4ea3-ae6c-be5730d08552"}},{"fullUrl":"https://madie.cms.gov/MeasureReport/85651c47-f829-40f6-9648-09edb5be07ad","resource":{"resourceType":"MeasureReport","id":"85651c47-f829-40f6-9648-09edb5be07ad","meta":{"profile":["http://hl7.org/fhir/us/cqfmeasures/StructureDefinition/test-case-cqfm"]},"contained":[{"resourceType":"Parameters","id":"c91778c2-1aae-4b07-bc48-619122ed6a9c-parameters","parameter":[{"name":"subject","valueString":"64bbffd3-e7b5-4cfb-8e7d-6705b46ce964"}]}],"extension":[{"url":"http://hl7.org/fhir/us/cqfmeasures/StructureDefinition/cqfm-inputParameters","valueReference":{"reference":"#c91778c2-1aae-4b07-bc48-619122ed6a9c-parameters"}},{"url":"http://hl7.org/fhir/us/cqfmeasures/StructureDefinition/cqfm-testCaseDescription","valueMarkdown":"\"Pregnancy 1 delivery documented 2/1/2012, Preterm & Term Births=0,EGA=38\nPregnancy 2  delivery documented 11/10/2012, Preterm & Term Births=1 & EGA=38.  Fails denom."}],"modifierExtension":[{"url":"http://hl7.org/fhir/us/cqfmeasures/StructureDefinition/cqfm-isTestCase","valueBoolean":true}],"status":"complete","type":"individual","measure":"https://madie.cms.gov/Measure/CesareanBirthFHIR","period":{"start":"2025-01-01","end":"2025-12-31"},"group":[{"population":[{"code":{"coding":[{"system":"http://terminology.hl7.org/CodeSystem/measure-population","code":"initial-population","display":"Initial Population"}]},"count":2},{"code":{"coding":[{"system":"http://terminology.hl7.org/CodeSystem/measure-population","code":"denominator","display":"Denominator"}]},"count":1},{"code":{"coding":[{"system":"http://terminology.hl7.org/CodeSystem/measure-population","code":"denominator-exclusion","display":"Denominator Exclusion"}]},"count":0},{"code":{"coding":[{"system":"http://terminology.hl7.org/CodeSystem/measure-population","code":"numerator","display":"Numerator"}]},"count":1}]}]},"request":{"method":"PUT","url":"MeasureReport/85651c47-f829-40f6-9648-09edb5be07ad"}}]}