{
  "resourceType": "Bundle",
  "id": "6101649298086b4fedf65e0c",
  "type": "transaction",
  "entry": [ {
    "fullUrl": "https://madie.cms.gov/Patient/dfe54ab6-e271-47e0-b8eb-5f74a8d08dce",
    "resource": {
      "resourceType": "Patient",
      "id": "dfe54ab6-e271-47e0-b8eb-5f74a8d08dce",
      "meta": {
        "profile": [ "http://hl7.org/fhir/us/qicore/StructureDefinition/qicore-patient" ]
      },
      "extension": [ {
        "url": "http://hl7.org/fhir/us/core/StructureDefinition/us-core-race",
        "extension": [ {
          "url": "ombCategory",
          "valueCoding": {
            "system": "urn:oid:2.16.840.1.113883.6.238",
            "code": "1002-5",
            "display": "American Indian or Alaska Native"
          }
        }, {
          "url": "text",
          "valueString": "American Indian or Alaska Native"
        } ]
      }, {
        "url": "http://hl7.org/fhir/us/core/StructureDefinition/us-core-ethnicity",
        "extension": [ {
          "url": "ombCategory",
          "valueCoding": {
            "system": "urn:oid:2.16.840.1.113883.6.238",
            "code": "2135-2",
            "display": "Hispanic or Latino"
          }
        }, {
          "url": "text",
          "valueString": "Hispanic or Latino"
        } ]
      } ],
      "identifier": [ {
        "type": {
          "coding": [ {
            "system": "http://terminology.hl7.org/CodeSystem/v2-0203",
            "code": "MR"
          } ]
        },
        "system": "https://bonnie-fhir.healthit.gov/",
        "value": "8496163516541313"
      } ],
      "active": true,
      "name": [ {
        "use": "usual",
        "family": "IPFail",
        "given": [ "OV1DayBeforeMPEdge" ]
      } ],
      "gender": "male",
      "birthDate": "1951-12-01"
    },
    "request": {
      "method": "POST",
      "url": "Patient/dfe54ab6-e271-47e0-b8eb-5f74a8d08dce"
    }
  }, {
    "fullUrl": "https://madie.cms.gov/Encounter/5ca621f3b8484628b8ddb5f9",
    "resource": {
      "resourceType": "Encounter",
      "id": "5ca621f3b8484628b8ddb5f9",
      "meta": {
        "profile": [ "http://hl7.org/fhir/us/qicore/StructureDefinition/qicore-encounter" ]
      },
      "status": "finished",
      "class": {
        "system": "http://terminology.hl7.org/CodeSystem/v3-ActCode",
        "code": "AMB",
        "display": "ambulatory"
      },
      "type": [ {
        "coding": [ {
          "system": "http://www.ama-assn.org/go/cpt",
          "version": "2024",
          "code": "99213"
        } ]
      } ],
      "subject": {
        "reference": "Patient/dfe54ab6-e271-47e0-b8eb-5f74a8d08dce"
      },
      "period": {
        "start": "2024-12-31T08:00:00+00:00",
        "end": "2024-12-31T08:15:00+00:00"
      }
    },
    "request": {
      "method": "POST",
      "url": "Encounter/5ca621f3b8484628b8ddb5f9"
    }
  }, {
    "fullUrl": "https://madie.cms.gov/MeasureReport/296c8117-390b-43d0-917b-866ba46b5ea5",
    "resource": {
      "resourceType": "MeasureReport",
      "id": "296c8117-390b-43d0-917b-866ba46b5ea5",
      "meta": {
        "profile": [ "http://hl7.org/fhir/us/cqfmeasures/StructureDefinition/test-case-cqfm" ]
      },
      "contained": [ {
        "resourceType": "Parameters",
        "id": "e204bd2b-565f-46f8-a76e-7ece8213302c-parameters",
        "parameter": [ {
          "name": "subject",
          "valueString": "dfe54ab6-e271-47e0-b8eb-5f74a8d08dce"
        } ]
      } ],
      "extension": [ {
        "url": "http://hl7.org/fhir/us/cqfmeasures/StructureDefinition/cqfm-inputParameters",
        "valueReference": {
          "reference": "#e204bd2b-565f-46f8-a76e-7ece8213302c-parameters"
        }
      }, {
        "url": "http://hl7.org/fhir/us/cqfmeasures/StructureDefinition/cqfm-testCaseDescription",
        "valueMarkdown": "Male patient without BPH dx and without USS assessments and with office visit before MP."
      } ],
      "modifierExtension": [ {
        "url": "http://hl7.org/fhir/us/cqfmeasures/StructureDefinition/cqfm-isTestCase",
        "valueBoolean": true
      } ],
      "status": "complete",
      "type": "individual",
      "measure": "https://madie.cms.gov/Measure/UrinarySymptomScoreChangeAfterBenignProstaticHyperplasiaFHIR",
      "period": {
        "start": "2025-01-01",
        "end": "2025-12-31"
      },
      "group": [ {
        "population": [ {
          "code": {
            "coding": [ {
              "system": "http://terminology.hl7.org/CodeSystem/measure-population",
              "code": "initial-population",
              "display": "Initial Population"
            } ]
          },
          "count": 0
        }, {
          "code": {
            "coding": [ {
              "system": "http://terminology.hl7.org/CodeSystem/measure-population",
              "code": "denominator",
              "display": "Denominator"
            } ]
          },
          "count": 0
        }, {
          "code": {
            "coding": [ {
              "system": "http://terminology.hl7.org/CodeSystem/measure-population",
              "code": "denominator-exclusion",
              "display": "Denominator Exclusion"
            } ]
          },
          "count": 0
        }, {
          "code": {
            "coding": [ {
              "system": "http://terminology.hl7.org/CodeSystem/measure-population",
              "code": "numerator",
              "display": "Numerator"
            } ]
          },
          "count": 0
        } ]
      } ],
      "evaluatedResource": [ {
        "reference": "https://madie.cms.gov/Patient/dfe54ab6-e271-47e0-b8eb-5f74a8d08dce"
      }, {
        "reference": "https://madie.cms.gov/Encounter/5ca621f3b8484628b8ddb5f9"
      } ]
    },
    "request": {
      "method": "POST",
      "url": "MeasureReport/296c8117-390b-43d0-917b-866ba46b5ea5"
    }
  } ]
}