{
  "resourceType": "Bundle",
  "id": "964313131",
  "type": "transaction",
  "entry": [ {
    "fullUrl": "https://madie.cms.gov/Patient/23e5040b-3043-4801-b5cd-2a595fcdd665",
    "resource": {
      "resourceType": "Patient",
      "id": "23e5040b-3043-4801-b5cd-2a595fcdd665",
      "meta": {
        "profile": [ "http://hl7.org/fhir/us/qicore/StructureDefinition/qicore-patient" ]
      },
      "extension": [ {
        "url": "http://hl7.org/fhir/us/core/StructureDefinition/us-core-race",
        "extension": [ {
          "url": "ombCategory",
          "valueCoding": {
            "system": "urn:oid:2.16.840.1.113883.6.238",
            "code": "2054-5",
            "display": "Black or African American"
          }
        }, {
          "url": "text",
          "valueString": "Black or African American"
        } ]
      }, {
        "url": "http://hl7.org/fhir/us/core/StructureDefinition/us-core-ethnicity",
        "extension": [ {
          "url": "ombCategory",
          "valueCoding": {
            "system": "urn:oid:2.16.840.1.113883.6.238",
            "code": "2186-5",
            "display": "Not Hispanic or Latino"
          }
        }, {
          "url": "text",
          "valueString": "Not Hispanic or Latino"
        } ]
      } ],
      "identifier": [ {
        "type": {
          "coding": [ {
            "system": "http://terminology.hl7.org/CodeSystem/v2-0203",
            "code": "MR"
          } ]
        },
        "system": "https://bonnie-fhir.healthit.gov/",
        "value": "1351313131"
      } ],
      "active": true,
      "name": [ {
        "use": "usual",
        "family": "DENEXCEPPass",
        "given": [ "ArrhythmiaDxBeforeLastEnc" ]
      } ],
      "gender": "male",
      "birthDate": "1947-02-03"
    },
    "request": {
      "method": "POST",
      "url": "Patient/23e5040b-3043-4801-b5cd-2a595fcdd665"
    }
  }, {
    "fullUrl": "https://madie.cms.gov/Encounter/4643513434",
    "resource": {
      "resourceType": "Encounter",
      "id": "4643513434",
      "meta": {
        "profile": [ "http://hl7.org/fhir/us/qicore/StructureDefinition/qicore-encounter" ]
      },
      "status": "finished",
      "class": {
        "system": "http://terminology.hl7.org/CodeSystem/v3-ActCode",
        "code": "AMB",
        "display": "ambulatory"
      },
      "type": [ {
        "coding": [ {
          "system": "http://www.ama-assn.org/go/cpt",
          "version": "2024",
          "code": "99213"
        } ]
      } ],
      "subject": {
        "reference": "Patient/23e5040b-3043-4801-b5cd-2a595fcdd665"
      },
      "period": {
        "start": "2025-05-25T14:20:00.000+00:00",
        "end": "2025-05-25T14:40:00.000+00:00"
      }
    },
    "request": {
      "method": "POST",
      "url": "Encounter/4643513434"
    }
  }, {
    "fullUrl": "https://madie.cms.gov/Encounter/546313131631",
    "resource": {
      "resourceType": "Encounter",
      "id": "546313131631",
      "meta": {
        "profile": [ "http://hl7.org/fhir/us/qicore/StructureDefinition/qicore-encounter" ]
      },
      "status": "finished",
      "class": {
        "system": "http://terminology.hl7.org/CodeSystem/v3-ActCode",
        "code": "AMB",
        "display": "ambulatory"
      },
      "type": [ {
        "coding": [ {
          "system": "http://www.ama-assn.org/go/cpt",
          "version": "2024",
          "code": "99212"
        } ]
      } ],
      "subject": {
        "reference": "Patient/23e5040b-3043-4801-b5cd-2a595fcdd665"
      },
      "period": {
        "start": "2025-09-05T15:30:00.000+00:00",
        "end": "2025-09-05T15:50:00.000+00:00"
      }
    },
    "request": {
      "method": "POST",
      "url": "Encounter/546313131631"
    }
  }, {
    "fullUrl": "https://madie.cms.gov/Condition/1316343131",
    "resource": {
      "resourceType": "Condition",
      "id": "1316343131",
      "meta": {
        "profile": [ "http://hl7.org/fhir/us/qicore/StructureDefinition/qicore-condition" ]
      },
      "clinicalStatus": {
        "coding": [ {
          "system": "http://terminology.hl7.org/CodeSystem/condition-clinical",
          "code": "active",
          "display": "active"
        } ]
      },
      "verificationStatus": {
        "coding": [ {
          "system": "http://terminology.hl7.org/CodeSystem/condition-ver-status",
          "code": "confirmed",
          "display": "Confirmed"
        } ]
      },
      "category": [ {
        "coding": [ {
          "system": "http://terminology.hl7.org/CodeSystem/condition-category",
          "code": "problem-list-item",
          "display": "problem list item"
        } ]
      } ],
      "code": {
        "coding": [ {
          "system": "http://snomed.info/sct",
          "version": "http://snomed.info/sct/731000124108/version/20240301",
          "code": "364006"
        } ]
      },
      "subject": {
        "reference": "Patient/23e5040b-3043-4801-b5cd-2a595fcdd665"
      },
      "onsetPeriod": {
        "start": "2025-06-27T10:00:00.000+00:00"
      }
    },
    "request": {
      "method": "POST",
      "url": "Condition/1316343131"
    }
  }, {
    "fullUrl": "https://madie.cms.gov/Condition/9873131313",
    "resource": {
      "resourceType": "Condition",
      "id": "9873131313",
      "meta": {
        "profile": [ "http://hl7.org/fhir/us/qicore/StructureDefinition/qicore-condition" ]
      },
      "clinicalStatus": {
        "coding": [ {
          "system": "http://terminology.hl7.org/CodeSystem/condition-clinical",
          "code": "active",
          "display": "active"
        } ]
      },
      "verificationStatus": {
        "coding": [ {
          "system": "http://terminology.hl7.org/CodeSystem/condition-ver-status",
          "code": "confirmed",
          "display": "Confirmed"
        } ]
      },
      "category": [ {
        "coding": [ {
          "system": "http://terminology.hl7.org/CodeSystem/condition-category",
          "code": "problem-list-item",
          "display": "problem list item"
        } ]
      } ],
      "severity": {
        "coding": [ {
          "system": "http://snomed.info/sct",
          "version": "http://snomed.info/sct/731000124108/version/20240301",
          "code": "24484000",
          "display": "Severe (severity modifier) (qualifier value)"
        } ]
      },
      "code": {
        "coding": [ {
          "system": "http://snomed.info/sct",
          "version": "http://snomed.info/sct/731000124108/version/20240301",
          "code": "134401001",
          "display": "Left ventricular systolic dysfunction (disorder)"
        } ]
      },
      "subject": {
        "reference": "Patient/23e5040b-3043-4801-b5cd-2a595fcdd665"
      },
      "onsetPeriod": {
        "start": "2025-08-11T23:50:00+00:00"
      }
    },
    "request": {
      "method": "POST",
      "url": "Condition/9873131313"
    }
  }, {
    "fullUrl": "https://madie.cms.gov/Observation/5463131313",
    "resource": {
      "resourceType": "Observation",
      "id": "5463131313",
      "meta": {
        "profile": [ "http://hl7.org/fhir/StructureDefinition/heartrate" ]
      },
      "status": "final",
      "category": [ {
        "coding": [ {
          "system": "http://terminology.hl7.org/CodeSystem/observation-category",
          "code": "imaging",
          "display": "Imaging"
        } ]
      }, {
        "coding": [ {
          "system": "http://terminology.hl7.org/CodeSystem/observation-category",
          "code": "vital-signs",
          "display": "Vital signs"
        } ]
      } ],
      "code": {
        "coding": [ {
          "system": "http://loinc.org",
          "version": "2.76",
          "code": "8867-4"
        } ]
      },
      "subject": {
        "reference": "Patient/23e5040b-3043-4801-b5cd-2a595fcdd665"
      },
      "effectiveDateTime": "2025-09-05T15:40:00.000+00:00",
      "valueQuantity": {
        "value": 30,
        "unit": "/min",
        "system": "http://unitsofmeasure.org",
        "code": "/min"
      }
    },
    "request": {
      "method": "POST",
      "url": "Observation/5463131313"
    }
  }, {
    "fullUrl": "https://madie.cms.gov/Condition/1316345000",
    "resource": {
      "resourceType": "Condition",
      "id": "1316345000",
      "meta": {
        "profile": [ "http://hl7.org/fhir/us/qicore/StructureDefinition/qicore-condition" ]
      },
      "clinicalStatus": {
        "coding": [ {
          "system": "http://terminology.hl7.org/CodeSystem/condition-clinical",
          "code": "active",
          "display": "active"
        } ]
      },
      "verificationStatus": {
        "coding": [ {
          "system": "http://terminology.hl7.org/CodeSystem/condition-ver-status",
          "code": "confirmed",
          "display": "Confirmed"
        } ]
      },
      "category": [ {
        "coding": [ {
          "system": "http://terminology.hl7.org/CodeSystem/condition-category",
          "code": "problem-list-item",
          "display": "problem list item"
        } ]
      } ],
      "code": {
        "coding": [ {
          "system": "http://snomed.info/sct",
          "version": "http://snomed.info/sct/731000124108/version/20240301",
          "code": "11849007",
          "display": "Atrioventricular junctional rhythm (disorder)"
        } ]
      },
      "subject": {
        "reference": "Patient/23e5040b-3043-4801-b5cd-2a595fcdd665"
      },
      "onsetPeriod": {
        "start": "2025-06-27T10:00:00.000+00:00"
      }
    },
    "request": {
      "method": "POST",
      "url": "Condition/1316345000"
    }
  }, {
    "fullUrl": "https://madie.cms.gov/Observation/5413131313",
    "resource": {
      "resourceType": "Observation",
      "id": "5413131313",
      "meta": {
        "profile": [ "http://hl7.org/fhir/StructureDefinition/heartrate" ]
      },
      "status": "final",
      "category": [ {
        "coding": [ {
          "system": "http://terminology.hl7.org/CodeSystem/observation-category",
          "code": "imaging",
          "display": "Imaging"
        } ]
      }, {
        "coding": [ {
          "system": "http://terminology.hl7.org/CodeSystem/observation-category",
          "code": "vital-signs",
          "display": "Vital signs"
        } ]
      } ],
      "code": {
        "coding": [ {
          "system": "http://loinc.org",
          "version": "2.76",
          "code": "8867-4"
        } ]
      },
      "subject": {
        "reference": "Patient/23e5040b-3043-4801-b5cd-2a595fcdd665"
      },
      "effectiveDateTime": "2025-09-05T15:35:00.000+00:00",
      "valueQuantity": {
        "value": 30,
        "unit": "/min",
        "system": "http://unitsofmeasure.org",
        "code": "/min"
      }
    },
    "request": {
      "method": "POST",
      "url": "Observation/5413131313"
    }
  }, {
    "fullUrl": "https://madie.cms.gov/MeasureReport/98ed0885-20c5-484c-a5c4-abd1aead77b1",
    "resource": {
      "resourceType": "MeasureReport",
      "id": "98ed0885-20c5-484c-a5c4-abd1aead77b1",
      "meta": {
        "profile": [ "http://hl7.org/fhir/us/cqfmeasures/StructureDefinition/test-case-cqfm" ]
      },
      "contained": [ {
        "resourceType": "Parameters",
        "id": "6d412116-057f-470a-8d29-2ca8a4f36df2-parameters",
        "parameter": [ {
          "name": "subject",
          "valueString": "23e5040b-3043-4801-b5cd-2a595fcdd665"
        } ]
      } ],
      "extension": [ {
        "url": "http://hl7.org/fhir/us/cqfmeasures/StructureDefinition/cqfm-inputParameters",
        "valueReference": {
          "reference": "#6d412116-057f-470a-8d29-2ca8a4f36df2-parameters"
        }
      }, {
        "url": "http://hl7.org/fhir/us/cqfmeasures/StructureDefinition/cqfm-testCaseDescription",
        "valueMarkdown": "Patient with arrhythmia starting before last encounter in measurement period. Patient excepted due to arrhythmia diagnosis before last encounter."
      } ],
      "modifierExtension": [ {
        "url": "http://hl7.org/fhir/us/cqfmeasures/StructureDefinition/cqfm-isTestCase",
        "valueBoolean": true
      } ],
      "status": "complete",
      "type": "individual",
      "measure": "https://madie.cms.gov/Measure/HFBetaBlockerTherapyforLVSDFHIR",
      "period": {
        "start": "2025-01-01",
        "end": "2025-12-31"
      },
      "group": [ {
        "population": [ {
          "code": {
            "coding": [ {
              "system": "http://terminology.hl7.org/CodeSystem/measure-population",
              "code": "initial-population",
              "display": "Initial Population"
            } ]
          },
          "count": 1
        }, {
          "code": {
            "coding": [ {
              "system": "http://terminology.hl7.org/CodeSystem/measure-population",
              "code": "denominator",
              "display": "Denominator"
            } ]
          },
          "count": 1
        }, {
          "code": {
            "coding": [ {
              "system": "http://terminology.hl7.org/CodeSystem/measure-population",
              "code": "denominator-exclusion",
              "display": "Denominator Exclusion"
            } ]
          },
          "count": 0
        }, {
          "code": {
            "coding": [ {
              "system": "http://terminology.hl7.org/CodeSystem/measure-population",
              "code": "numerator",
              "display": "Numerator"
            } ]
          },
          "count": 0
        }, {
          "code": {
            "coding": [ {
              "system": "http://terminology.hl7.org/CodeSystem/measure-population",
              "code": "denominator-exception",
              "display": "Denominator Exception"
            } ]
          },
          "count": 1
        } ]
      } ],
      "evaluatedResource": [ {
        "reference": "https://madie.cms.gov/Patient/23e5040b-3043-4801-b5cd-2a595fcdd665"
      }, {
        "reference": "https://madie.cms.gov/Encounter/4643513434"
      }, {
        "reference": "https://madie.cms.gov/Encounter/546313131631"
      }, {
        "reference": "https://madie.cms.gov/Condition/1316343131"
      }, {
        "reference": "https://madie.cms.gov/Condition/9873131313"
      }, {
        "reference": "https://madie.cms.gov/Observation/5463131313"
      }, {
        "reference": "https://madie.cms.gov/Condition/1316345000"
      }, {
        "reference": "https://madie.cms.gov/Observation/5413131313"
      } ]
    },
    "request": {
      "method": "POST",
      "url": "MeasureReport/98ed0885-20c5-484c-a5c4-abd1aead77b1"
    }
  } ]
}