{
  "resourceType": "Bundle",
  "id": "60ec6943bc72857e238afa20",
  "type": "transaction",
  "entry": [ {
    "fullUrl": "https://madie.cms.gov/Patient/4788274e-9b09-45fa-a9a7-d97237a40f58",
    "resource": {
      "resourceType": "Patient",
      "id": "4788274e-9b09-45fa-a9a7-d97237a40f58",
      "meta": {
        "profile": [ "http://hl7.org/fhir/us/qicore/StructureDefinition/qicore-patient" ]
      },
      "extension": [ {
        "url": "http://hl7.org/fhir/us/core/StructureDefinition/us-core-race",
        "extension": [ {
          "url": "ombCategory",
          "valueCoding": {
            "system": "urn:oid:2.16.840.1.113883.6.238",
            "code": "1002-5",
            "display": "American Indian or Alaska Native",
            "userSelected": true
          }
        }, {
          "url": "text",
          "valueString": "American Indian or Alaska Native"
        } ]
      }, {
        "url": "http://hl7.org/fhir/us/core/StructureDefinition/us-core-ethnicity",
        "extension": [ {
          "url": "ombCategory",
          "valueCoding": {
            "system": "urn:oid:2.16.840.1.113883.6.238",
            "code": "2186-5",
            "display": "Not Hispanic or Latino",
            "userSelected": true
          }
        }, {
          "url": "text",
          "valueString": "Not Hispanic or Latino"
        } ]
      } ],
      "identifier": [ {
        "type": {
          "coding": [ {
            "system": "http://terminology.hl7.org/CodeSystem/v2-0203",
            "code": "MR"
          } ]
        },
        "system": "https://bonnie-fhir.healthit.gov/",
        "value": "60ec6943bc72857e238afa20"
      } ],
      "name": [ {
        "family": "DENEXFail",
        "given": [ "ScleritisAfterCatSurg" ]
      } ],
      "gender": "male",
      "birthDate": "1967-06-15"
    },
    "request": {
      "method": "POST",
      "url": "Patient/4788274e-9b09-45fa-a9a7-d97237a40f58"
    }
  }, {
    "fullUrl": "https://madie.cms.gov/Condition/135186135163155",
    "resource": {
      "resourceType": "Condition",
      "id": "135186135163155",
      "meta": {
        "profile": [ "http://hl7.org/fhir/us/qicore/StructureDefinition/qicore-condition" ]
      },
      "category": [ {
        "coding": [ {
          "system": "http://terminology.hl7.org/CodeSystem/condition-category",
          "code": "problem-list-item",
          "display": "Problem List Item"
        } ]
      } ],
      "code": {
        "coding": [ {
          "system": "http://snomed.info/sct",
          "version": "http://snomed.info/sct/731000124108/version/20230301",
          "code": "78370002"
        } ]
      },
      "subject": {
        "reference": "Patient/4788274e-9b09-45fa-a9a7-d97237a40f58"
      },
      "recordedDate": "2025-08-12T02:00:00.000+00:00"
    },
    "request": {
      "method": "POST",
      "url": "Condition/135186135163155"
    }
  }, {
    "fullUrl": "https://madie.cms.gov/Procedure/51613161513131",
    "resource": {
      "resourceType": "Procedure",
      "id": "51613161513131",
      "meta": {
        "profile": [ "http://hl7.org/fhir/us/qicore/StructureDefinition/qicore-procedure" ]
      },
      "extension": [ {
        "url": "http://hl7.org/fhir/us/qicore/StructureDefinition/qicore-recorded",
        "valueDateTime": "2025-08-30T09:35:00-08:00"
      } ],
      "status": "completed",
      "code": {
        "coding": [ {
          "system": "http://snomed.info/sct",
          "version": "http://snomed.info/sct/731000124108/version/20230301",
          "code": "5130002"
        } ]
      },
      "subject": {
        "reference": "Patient/4788274e-9b09-45fa-a9a7-d97237a40f58"
      },
      "performedDateTime": "2025-08-15T08:00:00.000+00:00"
    },
    "request": {
      "method": "POST",
      "url": "Procedure/51613161513131"
    }
  }, {
    "fullUrl": "https://madie.cms.gov/Coverage/116545661661631",
    "resource": {
      "resourceType": "Coverage",
      "id": "116545661661631",
      "meta": {
        "profile": [ "http://hl7.org/fhir/us/qicore/StructureDefinition/qicore-coverage" ]
      },
      "status": "active",
      "beneficiary": {
        "reference": "Patient/4788274e-9b09-45fa-a9a7-d97237a40f58"
      },
      "payor": [ {
        "reference": "Organization/123456"
      } ]
    },
    "request": {
      "method": "POST",
      "url": "Coverage/116545661661631"
    }
  }, {
    "fullUrl": "https://madie.cms.gov/Organization/123456",
    "resource": {
      "resourceType": "Organization",
      "id": "123456",
      "meta": {
        "profile": [ "http://hl7.org/fhir/us/qicore/StructureDefinition/qicore-organization" ]
      },
      "identifier": [ {
        "use": "temp",
        "system": "urn:oid:2.16.840.1.113883.4.4",
        "value": "21-3259825"
      } ],
      "active": true,
      "type": [ {
        "coding": [ {
          "system": "http://terminology.hl7.org/CodeSystem/organization-type",
          "code": "pay",
          "display": "Payer"
        } ]
      } ],
      "name": "Blue Cross Blue Shield of Texas",
      "telecom": [ {
        "system": "phone",
        "value": "(+1) 972-766-6900"
      } ],
      "address": [ {
        "use": "billing",
        "type": "postal",
        "line": [ "P.O. Box 660044" ],
        "city": "Dallas",
        "state": "TX",
        "postalCode": "75266-0044",
        "country": "USA"
      } ]
    },
    "request": {
      "method": "POST",
      "url": "Organization/123456"
    }
  }, {
    "fullUrl": "https://madie.cms.gov/Practitioner/686516161651",
    "resource": {
      "resourceType": "Practitioner",
      "id": "686516161651",
      "meta": {
        "profile": [ "http://hl7.org/fhir/us/qicore/StructureDefinition/qicore-practitioner" ]
      },
      "identifier": [ {
        "system": "http://hl7.org/fhir/sid/us-npi",
        "value": "2496541684"
      } ],
      "name": [ {
        "family": "Smith",
        "prefix": [ "Dr" ]
      } ]
    },
    "request": {
      "method": "POST",
      "url": "Practitioner/686516161651"
    }
  }, {
    "fullUrl": "https://madie.cms.gov/MeasureReport/2c69c61e-0c33-4b37-9dd5-e4ed6c3fd019",
    "resource": {
      "resourceType": "MeasureReport",
      "id": "2c69c61e-0c33-4b37-9dd5-e4ed6c3fd019",
      "meta": {
        "profile": [ "http://hl7.org/fhir/us/cqfmeasures/StructureDefinition/test-case-cqfm" ]
      },
      "contained": [ {
        "resourceType": "Parameters",
        "id": "5aa1de11-571b-420f-847d-46a402eef7e8-parameters",
        "parameter": [ {
          "name": "subject",
          "valueString": "4788274e-9b09-45fa-a9a7-d97237a40f58"
        } ]
      } ],
      "extension": [ {
        "url": "http://hl7.org/fhir/us/cqfmeasures/StructureDefinition/cqfm-inputParameters",
        "valueReference": {
          "reference": "#5aa1de11-571b-420f-847d-46a402eef7e8-parameters"
        }
      }, {
        "url": "http://hl7.org/fhir/us/cqfmeasures/StructureDefinition/cqfm-testCaseDescription",
        "valueMarkdown": "Patient with scleritis starting after cataract surgery"
      } ],
      "modifierExtension": [ {
        "url": "http://hl7.org/fhir/us/cqfmeasures/StructureDefinition/cqfm-isTestCase",
        "valueBoolean": true
      } ],
      "status": "complete",
      "type": "individual",
      "measure": "https://madie.cms.gov/Measure/Cataracts2040BCVAwithin90DaysFHIR",
      "period": {
        "start": "2025-01-01",
        "end": "2025-12-31"
      },
      "group": [ {
        "population": [ {
          "code": {
            "coding": [ {
              "system": "http://terminology.hl7.org/CodeSystem/measure-population",
              "code": "initial-population",
              "display": "Initial Population"
            } ]
          },
          "count": 1
        }, {
          "code": {
            "coding": [ {
              "system": "http://terminology.hl7.org/CodeSystem/measure-population",
              "code": "denominator",
              "display": "Denominator"
            } ]
          },
          "count": 1
        }, {
          "code": {
            "coding": [ {
              "system": "http://terminology.hl7.org/CodeSystem/measure-population",
              "code": "denominator-exclusion",
              "display": "Denominator Exclusion"
            } ]
          },
          "count": 0
        }, {
          "code": {
            "coding": [ {
              "system": "http://terminology.hl7.org/CodeSystem/measure-population",
              "code": "numerator",
              "display": "Numerator"
            } ]
          },
          "count": 0
        } ]
      } ],
      "evaluatedResource": [ {
        "reference": "Patient/4788274e-9b09-45fa-a9a7-d97237a40f58"
      }, {
        "reference": "Condition/135186135163155"
      }, {
        "reference": "Procedure/51613161513131"
      }, {
        "reference": "Coverage/116545661661631"
      }, {
        "reference": "Organization/123456"
      }, {
        "reference": "Practitioner/686516161651"
      } ]
    },
    "request": {
      "method": "POST",
      "url": "MeasureReport/2c69c61e-0c33-4b37-9dd5-e4ed6c3fd019"
    }
  } ]
}