{
  "resourceType": "Bundle",
  "id": "6109650498086b538055a0d8",
  "type": "transaction",
  "entry": [ {
    "fullUrl": "https://madie.cms.gov/Patient/42af4050-5017-4ba0-9134-1749332f4dcf",
    "resource": {
      "resourceType": "Patient",
      "id": "42af4050-5017-4ba0-9134-1749332f4dcf",
      "meta": {
        "profile": [ "http://hl7.org/fhir/us/qicore/StructureDefinition/qicore-patient" ]
      },
      "text": {
        "status": "generated",
        "div": "<div xmlns=\"http://www.w3.org/1999/xhtml\"><div class=\"hapiHeaderText\">RiskAssessPsychFamilyEnc <b>NUMERPASS </b></div><table class=\"hapiPropertyTable\"><tbody><tr><td>Identifier</td><td>611d7229559c821433393e98d4ad09de</td></tr><tr><td>Date of birth</td><td><span>01 January 1996</span></td></tr></tbody></table></div>"
      },
      "extension": [ {
        "url": "http://hl7.org/fhir/us/core/StructureDefinition/us-core-race",
        "extension": [ {
          "url": "ombCategory",
          "valueCoding": {
            "system": "urn:oid:2.16.840.1.113883.6.238",
            "code": "1002-5",
            "display": "American Indian or Alaska Native",
            "userSelected": true
          }
        }, {
          "url": "text",
          "valueString": "American Indian or Alaska Native"
        } ]
      }, {
        "url": "http://hl7.org/fhir/us/core/StructureDefinition/us-core-ethnicity",
        "extension": [ {
          "url": "ombCategory",
          "valueCoding": {
            "system": "urn:oid:2.16.840.1.113883.6.238",
            "code": "2135-2",
            "display": "Hispanic or Latino",
            "userSelected": true
          }
        }, {
          "url": "text",
          "valueString": "Hispanic or Latino"
        } ]
      } ],
      "identifier": [ {
        "type": {
          "coding": [ {
            "system": "http://terminology.hl7.org/CodeSystem/v2-0203",
            "code": "MR"
          } ]
        },
        "system": "https://bonnie-fhir.healthit.gov/",
        "value": "6109650498086b538055a0d8"
      } ],
      "active": true,
      "name": [ {
        "use": "usual",
        "family": "NUMPass",
        "given": [ "RiskAssessPsychotherEnc" ]
      } ],
      "gender": "female",
      "birthDate": "2015-01-01"
    },
    "request": {
      "method": "POST",
      "url": "Patient/42af4050-5017-4ba0-9134-1749332f4dcf"
    }
  }, {
    "fullUrl": "https://madie.cms.gov/Encounter/5c98fd1ab848464ed33e9e76",
    "resource": {
      "resourceType": "Encounter",
      "id": "5c98fd1ab848464ed33e9e76",
      "meta": {
        "profile": [ "http://hl7.org/fhir/us/qicore/StructureDefinition/qicore-encounter" ]
      },
      "status": "finished",
      "class": {
        "system": "http://terminology.hl7.org/CodeSystem/v3-ActCode",
        "code": "AMB",
        "display": "ambulatory",
        "userSelected": true
      },
      "type": [ {
        "coding": [ {
          "system": "http://www.ama-assn.org/go/cpt",
          "code": "90792"
        } ]
      } ],
      "subject": {
        "reference": "Patient/42af4050-5017-4ba0-9134-1749332f4dcf"
      },
      "period": {
        "start": "2025-07-18T11:00:00.000+00:00",
        "end": "2025-07-18T11:30:00.000+00:00"
      },
      "length": {
        "value": 0.0,
        "unit": "days"
      },
      "diagnosis": [ {
        "condition": {
          "reference": "Condition/major-depressive-disorder-active-4fa6"
        },
        "use": {
          "coding": [ {
            "system": "http://snomed.info/sct",
            "code": "10811161000119107",
            "display": "Major Depressive Disorder-Active"
          } ]
        }
      } ]
    },
    "request": {
      "method": "POST",
      "url": "Encounter/5c98fd1ab848464ed33e9e76"
    }
  }, {
    "fullUrl": "https://madie.cms.gov/Condition/major-depressive-disorder-active-4fa6",
    "resource": {
      "resourceType": "Condition",
      "id": "major-depressive-disorder-active-4fa6",
      "meta": {
        "profile": [ "http://hl7.org/fhir/us/qicore/StructureDefinition/qicore-condition" ]
      },
      "clinicalStatus": {
        "coding": [ {
          "system": "http://terminology.hl7.org/CodeSystem/condition-clinical",
          "code": "active",
          "display": "Active",
          "userSelected": true
        } ]
      },
      "verificationStatus": {
        "coding": [ {
          "system": "http://terminology.hl7.org/CodeSystem/condition-ver-status",
          "code": "confirmed",
          "display": "Confirmed",
          "userSelected": true
        } ]
      },
      "category": [ {
        "coding": [ {
          "system": "http://terminology.hl7.org/CodeSystem/condition-category",
          "code": "encounter-diagnosis",
          "display": "Encounter Diagnosis"
        } ]
      } ],
      "code": {
        "coding": [ {
          "system": "http://snomed.info/sct",
          "code": "2618002",
          "userSelected": true
        } ]
      },
      "subject": {
        "reference": "Patient/42af4050-5017-4ba0-9134-1749332f4dcf"
      },
      "recordedDate": "2025-07-18T08:00:00.000+00:00"
    },
    "request": {
      "method": "POST",
      "url": "Condition/major-depressive-disorder-active-4fa6"
    }
  }, {
    "fullUrl": "https://madie.cms.gov/Procedure/suicide-risk-assessment-procedure-ea15",
    "resource": {
      "resourceType": "Procedure",
      "id": "suicide-risk-assessment-procedure-ea15",
      "meta": {
        "profile": [ "http://hl7.org/fhir/us/qicore/StructureDefinition/qicore-procedure" ]
      },
      "extension": [ {
        "url": "http://hl7.org/fhir/us/qicore/StructureDefinition/qicore-recorded",
        "valueDateTime": "2025-07-18T11:01:00.000+00:00"
      } ],
      "status": "completed",
      "code": {
        "coding": [ {
          "system": "http://snomed.info/sct",
          "code": "225337009",
          "display": "Suicide risk assessment (procedure)",
          "userSelected": true
        } ]
      },
      "subject": {
        "reference": "Patient/42af4050-5017-4ba0-9134-1749332f4dcf"
      },
      "performedDateTime": "2025-07-18T11:01:00.000+00:00"
    },
    "request": {
      "method": "POST",
      "url": "Procedure/suicide-risk-assessment-procedure-ea15"
    }
  }, {
    "fullUrl": "https://madie.cms.gov/Coverage/payer-624c",
    "resource": {
      "resourceType": "Coverage",
      "id": "payer-624c",
      "meta": {
        "profile": [ "http://hl7.org/fhir/us/qicore/StructureDefinition/qicore-coverage" ]
      },
      "status": "active",
      "type": {
        "coding": [ {
          "system": "https://nahdo.org/sopt",
          "code": "113",
          "userSelected": true
        } ]
      },
      "beneficiary": {
        "reference": "Patient/42af4050-5017-4ba0-9134-1749332f4dcf"
      },
      "period": {
        "start": "2025-01-18T11:00:00.000+00:00",
        "end": "2025-11-18T11:30:00.000+00:00"
      },
      "payor": [ {
        "reference": "Organization/123456"
      } ]
    },
    "request": {
      "method": "POST",
      "url": "Coverage/payer-624c"
    }
  }, {
    "fullUrl": "https://madie.cms.gov/Organization/123456",
    "resource": {
      "resourceType": "Organization",
      "id": "123456",
      "meta": {
        "profile": [ "http://hl7.org/fhir/us/qicore/StructureDefinition/qicore-organization" ]
      },
      "identifier": [ {
        "use": "temp",
        "system": "urn:oid:2.16.840.1.113883.4.4",
        "value": "21-3259825"
      } ],
      "active": true,
      "type": [ {
        "coding": [ {
          "system": "http://terminology.hl7.org/CodeSystem/organization-type",
          "code": "pay",
          "display": "Payer"
        } ]
      } ],
      "name": "Blue Cross Blue Shield of Texas",
      "telecom": [ {
        "system": "phone",
        "value": "(+1) 972-766-6900"
      } ],
      "address": [ {
        "use": "billing",
        "type": "postal",
        "line": [ "P.O. Box 660044" ],
        "city": "Dallas",
        "state": "TX",
        "postalCode": "75266-0044",
        "country": "USA"
      } ]
    },
    "request": {
      "method": "POST",
      "url": "Organization/123456"
    }
  }, {
    "fullUrl": "https://madie.cms.gov/Practitioner/practitioner-123456",
    "resource": {
      "resourceType": "Practitioner",
      "id": "practitioner-123456",
      "meta": {
        "profile": [ "http://hl7.org/fhir/us/qicore/StructureDefinition/qicore-practitioner" ]
      },
      "identifier": [ {
        "system": "http://hl7.org/fhir/sid/us-npi",
        "value": "123456"
      } ],
      "name": [ {
        "family": "Evil",
        "prefix": [ "Dr" ]
      } ]
    },
    "request": {
      "method": "POST",
      "url": "Practitioner/practitioner-123456"
    }
  }, {
    "fullUrl": "https://madie.cms.gov/MeasureReport/f7f41a61-ded3-4941-82b5-93c14ecaa426",
    "resource": {
      "resourceType": "MeasureReport",
      "id": "f7f41a61-ded3-4941-82b5-93c14ecaa426",
      "meta": {
        "profile": [ "http://hl7.org/fhir/us/cqfmeasures/StructureDefinition/test-case-cqfm" ]
      },
      "contained": [ {
        "resourceType": "Parameters",
        "id": "31942718-649b-4625-9ac5-a836fae3fa7a-parameters",
        "parameter": [ {
          "name": "subject",
          "valueString": "42af4050-5017-4ba0-9134-1749332f4dcf"
        } ]
      } ],
      "extension": [ {
        "url": "http://hl7.org/fhir/us/cqfmeasures/StructureDefinition/cqfm-inputParameters",
        "valueReference": {
          "reference": "#31942718-649b-4625-9ac5-a836fae3fa7a-parameters"
        }
      }, {
        "url": "http://hl7.org/fhir/us/cqfmeasures/StructureDefinition/cqfm-testCaseDescription",
        "valueMarkdown": "Patient completes suicide risk assessment during Psych Visit Diagnostic Evaluation encounter in the MP"
      } ],
      "modifierExtension": [ {
        "url": "http://hl7.org/fhir/us/cqfmeasures/StructureDefinition/cqfm-isTestCase",
        "valueBoolean": true
      } ],
      "status": "complete",
      "type": "individual",
      "measure": "https://madie.cms.gov/Measure/ChildandAdolescentMajorDepressiveDisorderMDDSuicideRiskAssessmentFHIR",
      "period": {
        "start": "2025-01-01",
        "end": "2025-12-31"
      },
      "group": [ {
        "population": [ {
          "code": {
            "coding": [ {
              "system": "http://terminology.hl7.org/CodeSystem/measure-population",
              "code": "initial-population",
              "display": "Initial Population"
            } ]
          },
          "count": 1
        }, {
          "code": {
            "coding": [ {
              "system": "http://terminology.hl7.org/CodeSystem/measure-population",
              "code": "denominator",
              "display": "Denominator"
            } ]
          },
          "count": 1
        }, {
          "code": {
            "coding": [ {
              "system": "http://terminology.hl7.org/CodeSystem/measure-population",
              "code": "numerator",
              "display": "Numerator"
            } ]
          },
          "count": 1
        } ]
      } ],
      "evaluatedResource": [ {
        "reference": "Patient/42af4050-5017-4ba0-9134-1749332f4dcf"
      }, {
        "reference": "Encounter/5c98fd1ab848464ed33e9e76"
      }, {
        "reference": "Condition/major-depressive-disorder-active-4fa6"
      }, {
        "reference": "Procedure/suicide-risk-assessment-procedure-ea15"
      }, {
        "reference": "Coverage/payer-624c"
      }, {
        "reference": "Organization/123456"
      }, {
        "reference": "Practitioner/practitioner-123456"
      } ]
    },
    "request": {
      "method": "POST",
      "url": "MeasureReport/f7f41a61-ded3-4941-82b5-93c14ecaa426"
    }
  } ]
}