{
  "resourceType": "Bundle",
  "id": "DENEXFail-HospiceServicesEndOnDec31B4MP",
  "type": "transaction",
  "entry": [ {
    "fullUrl": "https://madie.cms.gov/Patient/57d8d494-e828-4edf-8c8b-e27da33ea223",
    "resource": {
      "resourceType": "Patient",
      "id": "57d8d494-e828-4edf-8c8b-e27da33ea223",
      "meta": {
        "profile": [ "http://hl7.org/fhir/us/qicore/StructureDefinition/qicore-patient" ]
      },
      "extension": [ {
        "url": "http://hl7.org/fhir/us/core/StructureDefinition/us-core-race",
        "extension": [ {
          "url": "ombCategory",
          "valueCoding": {
            "system": "urn:oid:2.16.840.1.113883.6.238",
            "code": "2028-9",
            "display": "Asian"
          }
        }, {
          "url": "text",
          "valueString": "Asian"
        } ]
      }, {
        "url": "http://hl7.org/fhir/us/core/StructureDefinition/us-core-ethnicity",
        "extension": [ {
          "url": "ombCategory",
          "valueCoding": {
            "system": "urn:oid:2.16.840.1.113883.6.238",
            "code": "2135-2",
            "display": "Hispanic or Latino"
          }
        }, {
          "url": "text",
          "valueString": "Hispanic or Latino"
        } ]
      } ],
      "identifier": [ {
        "system": "http://hospital.smarthealthit.org",
        "value": "999999995"
      } ],
      "name": [ {
        "family": "Bertha",
        "given": [ "Betty" ]
      } ],
      "gender": "female",
      "birthDate": "1973-12-31"
    },
    "request": {
      "method": "POST",
      "url": "Patient/57d8d494-e828-4edf-8c8b-e27da33ea223"
    }
  }, {
    "fullUrl": "https://madie.cms.gov/Encounter/Encounter-24",
    "resource": {
      "resourceType": "Encounter",
      "id": "Encounter-24",
      "meta": {
        "profile": [ "http://hl7.org/fhir/us/qicore/StructureDefinition/qicore-encounter" ]
      },
      "status": "finished",
      "class": {
        "system": "http://terminology.hl7.org/CodeSystem/v3-ActCode",
        "code": "AMB",
        "display": "ambulatory"
      },
      "type": [ {
        "coding": [ {
          "system": "http://snomed.info/sct",
          "code": "185463005",
          "display": "Visit out of hours (procedure)"
        } ]
      } ],
      "subject": {
        "reference": "Patient/57d8d494-e828-4edf-8c8b-e27da33ea223"
      },
      "period": {
        "start": "2025-01-01T00:00:00.000Z",
        "end": "2025-01-01T00:00:00.000Z"
      }
    },
    "request": {
      "method": "POST",
      "url": "Encounter/Encounter-24"
    }
  }, {
    "fullUrl": "https://madie.cms.gov/Encounter/Encounter-24.1",
    "resource": {
      "resourceType": "Encounter",
      "id": "Encounter-24.1",
      "meta": {
        "profile": [ "http://hl7.org/fhir/us/qicore/StructureDefinition/qicore-encounter" ]
      },
      "status": "finished",
      "class": {
        "system": "http://terminology.hl7.org/CodeSystem/v3-ActCode",
        "code": "AMB",
        "display": "ambulatory"
      },
      "type": [ {
        "coding": [ {
          "system": "http://snomed.info/sct",
          "code": "183452005",
          "display": "Emergency hospital admission (procedure)"
        } ]
      } ],
      "subject": {
        "reference": "Patient/57d8d494-e828-4edf-8c8b-e27da33ea223"
      },
      "period": {
        "start": "2024-12-31T23:59:59.000Z",
        "end": "2024-12-31T23:59:59.000Z"
      },
      "hospitalization": {
        "dischargeDisposition": {
          "coding": [ {
            "system": "http://snomed.info/sct",
            "code": "428371000124100",
            "display": "Discharge to healthcare facility for hospice care (procedure)"
          } ]
        }
      }
    },
    "request": {
      "method": "POST",
      "url": "Encounter/Encounter-24.1"
    }
  }, {
    "fullUrl": "https://madie.cms.gov/MeasureReport/0b8e7ca6-fd2f-41e4-84a0-12b6146ca873",
    "resource": {
      "resourceType": "MeasureReport",
      "id": "0b8e7ca6-fd2f-41e4-84a0-12b6146ca873",
      "meta": {
        "profile": [ "http://hl7.org/fhir/us/cqfmeasures/StructureDefinition/test-case-cqfm" ]
      },
      "contained": [ {
        "resourceType": "Parameters",
        "id": "765988f7-d54d-4ea6-9530-596bbdf2716c-parameters",
        "parameter": [ {
          "name": "subject",
          "valueString": "57d8d494-e828-4edf-8c8b-e27da33ea223"
        } ]
      } ],
      "extension": [ {
        "url": "http://hl7.org/fhir/us/cqfmeasures/StructureDefinition/cqfm-inputParameters",
        "valueReference": {
          "reference": "#765988f7-d54d-4ea6-9530-596bbdf2716c-parameters"
        }
      }, {
        "url": "http://hl7.org/fhir/us/cqfmeasures/StructureDefinition/cqfm-testCaseDescription",
        "valueMarkdown": "Patient 52yo w/ an Office Visit Encounter 1/1 of the MP & Hospice Encounter that ends on 12/31 of the year before the MP."
      } ],
      "modifierExtension": [ {
        "url": "http://hl7.org/fhir/us/cqfmeasures/StructureDefinition/cqfm-isTestCase",
        "valueBoolean": true
      } ],
      "status": "complete",
      "type": "individual",
      "measure": "https://madie.cms.gov/Measure/BreastCancerScreeningFHIR",
      "period": {
        "start": "2025-01-01",
        "end": "2025-12-31"
      },
      "group": [ {
        "population": [ {
          "code": {
            "coding": [ {
              "system": "http://terminology.hl7.org/CodeSystem/measure-population",
              "code": "initial-population",
              "display": "Initial Population"
            } ]
          },
          "count": 1
        }, {
          "code": {
            "coding": [ {
              "system": "http://terminology.hl7.org/CodeSystem/measure-population",
              "code": "denominator",
              "display": "Denominator"
            } ]
          },
          "count": 1
        }, {
          "code": {
            "coding": [ {
              "system": "http://terminology.hl7.org/CodeSystem/measure-population",
              "code": "denominator-exclusion",
              "display": "Denominator Exclusion"
            } ]
          },
          "count": 0
        }, {
          "code": {
            "coding": [ {
              "system": "http://terminology.hl7.org/CodeSystem/measure-population",
              "code": "numerator",
              "display": "Numerator"
            } ]
          },
          "count": 0
        } ]
      } ],
      "evaluatedResource": [ {
        "reference": "https://madie.cms.gov/Patient/57d8d494-e828-4edf-8c8b-e27da33ea223"
      }, {
        "reference": "https://madie.cms.gov/Encounter/Encounter-24"
      }, {
        "reference": "https://madie.cms.gov/Encounter/Encounter-24.1"
      } ]
    },
    "request": {
      "method": "POST",
      "url": "MeasureReport/0b8e7ca6-fd2f-41e4-84a0-12b6146ca873"
    }
  } ]
}