{
  "resourceType": "Bundle",
  "id": "NUMER2and3PASS-BipolarDisorderEnds1YrB4MP",
  "type": "transaction",
  "entry": [ {
    "fullUrl": "https://madie.cms.gov/Patient/64c49012-0f98-41da-a00b-9cd673294d16",
    "resource": {
      "resourceType": "Patient",
      "id": "64c49012-0f98-41da-a00b-9cd673294d16",
      "meta": {
        "profile": [ "http://hl7.org/fhir/us/qicore/StructureDefinition/qicore-patient" ]
      },
      "extension": [ {
        "url": "http://hl7.org/fhir/us/core/StructureDefinition/us-core-race",
        "extension": [ {
          "url": "ombCategory",
          "valueCoding": {
            "system": "urn:oid:2.16.840.1.113883.6.238",
            "code": "2028-9",
            "display": "Asian",
            "userSelected": true
          }
        }, {
          "url": "text",
          "valueString": "Asian"
        } ]
      }, {
        "url": "http://hl7.org/fhir/us/core/StructureDefinition/us-core-ethnicity",
        "extension": [ {
          "url": "ombCategory",
          "valueCoding": {
            "system": "urn:oid:2.16.840.1.113883.6.238",
            "code": "2135-2",
            "display": "Hispanic or Latino",
            "userSelected": true
          }
        }, {
          "url": "text",
          "valueString": "Hispanic or Latino"
        } ]
      } ],
      "identifier": [ {
        "type": {
          "coding": [ {
            "system": "http://terminology.hl7.org/CodeSystem/v2-0203",
            "code": "MR"
          } ]
        },
        "system": "http://hospital.smarthealthit.org",
        "value": "999999995"
      } ],
      "name": [ {
        "family": "Bertha",
        "given": [ "Betty" ]
      } ],
      "gender": "female",
      "birthDate": "1960-01-01"
    },
    "request": {
      "method": "POST",
      "url": "Patient/64c49012-0f98-41da-a00b-9cd673294d16"
    }
  }, {
    "fullUrl": "https://madie.cms.gov/Encounter/Encounter-49",
    "resource": {
      "resourceType": "Encounter",
      "id": "Encounter-49",
      "meta": {
        "profile": [ "http://hl7.org/fhir/us/qicore/StructureDefinition/qicore-encounter" ]
      },
      "status": "finished",
      "class": {
        "system": "http://terminology.hl7.org/CodeSystem/v3-ActCode",
        "code": "AMB",
        "display": "ambulatory"
      },
      "type": [ {
        "coding": [ {
          "system": "http://snomed.info/sct",
          "code": "185317003",
          "display": "Telephone contact by consultant (procedure)"
        } ]
      } ],
      "subject": {
        "reference": "Patient/64c49012-0f98-41da-a00b-9cd673294d16"
      },
      "period": {
        "start": "2025-01-01T00:00:00.000Z",
        "end": "2025-01-01T01:15:00.000Z"
      }
    },
    "request": {
      "method": "POST",
      "url": "Encounter/Encounter-49"
    }
  }, {
    "fullUrl": "https://madie.cms.gov/Condition/Condition-8",
    "resource": {
      "resourceType": "Condition",
      "id": "Condition-8",
      "meta": {
        "profile": [ "http://hl7.org/fhir/us/qicore/StructureDefinition/qicore-condition" ]
      },
      "clinicalStatus": {
        "coding": [ {
          "system": "http://terminology.hl7.org/CodeSystem/condition-clinical",
          "code": "resolved"
        } ]
      },
      "category": [ {
        "coding": [ {
          "system": "http://terminology.hl7.org/CodeSystem/condition-category",
          "code": "problem-list-item",
          "display": "Problem List Item"
        } ]
      } ],
      "code": {
        "coding": [ {
          "system": "http://snomed.info/sct",
          "code": "10981006",
          "display": "Severe mixed bipolar I disorder with psychotic features (disorder)"
        } ]
      },
      "subject": {
        "reference": "Patient/64c49012-0f98-41da-a00b-9cd673294d16"
      },
      "onsetDateTime": "2023-01-01T00:00:00.000Z",
      "abatementDateTime": "2023-12-31T23:59:59.000Z"
    },
    "request": {
      "method": "POST",
      "url": "Condition/Condition-8"
    }
  }, {
    "fullUrl": "https://madie.cms.gov/MedicationRequest/MedicationRequest-57",
    "resource": {
      "resourceType": "MedicationRequest",
      "id": "MedicationRequest-57",
      "meta": {
        "profile": [ "http://hl7.org/fhir/us/qicore/StructureDefinition/qicore-medicationrequest" ]
      },
      "status": "active",
      "intent": "order",
      "category": [ {
        "coding": [ {
          "system": "http://terminology.hl7.org/CodeSystem/medicationrequest-category",
          "code": "discharge",
          "display": "Discharge"
        } ]
      } ],
      "medicationCodeableConcept": {
        "coding": [ {
          "system": "http://www.nlm.nih.gov/research/umls/rxnorm",
          "code": "1006801",
          "display": "clozapine 150 MG Disintegrating Oral Tablet",
          "userSelected": true
        } ]
      },
      "subject": {
        "reference": "Patient/64c49012-0f98-41da-a00b-9cd673294d16"
      },
      "authoredOn": "2025-01-01T00:00:00.000Z",
      "requester": {
        "reference": "Practitioner/example"
      }
    },
    "request": {
      "method": "POST",
      "url": "MedicationRequest/MedicationRequest-57"
    }
  }, {
    "fullUrl": "https://madie.cms.gov/MedicationRequest/MedicationRequest-58",
    "resource": {
      "resourceType": "MedicationRequest",
      "id": "MedicationRequest-58",
      "meta": {
        "profile": [ "http://hl7.org/fhir/us/qicore/StructureDefinition/qicore-medicationrequest" ]
      },
      "status": "active",
      "intent": "order",
      "category": [ {
        "coding": [ {
          "system": "http://terminology.hl7.org/CodeSystem/medicationrequest-category",
          "code": "discharge",
          "display": "Discharge"
        } ]
      } ],
      "medicationCodeableConcept": {
        "coding": [ {
          "system": "http://www.nlm.nih.gov/research/umls/rxnorm",
          "code": "1006801",
          "display": "clozapine 150 MG Disintegrating Oral Tablet",
          "userSelected": true
        } ]
      },
      "subject": {
        "reference": "Patient/64c49012-0f98-41da-a00b-9cd673294d16"
      },
      "authoredOn": "2025-12-31T23:59:00.000Z",
      "requester": {
        "reference": "Practitioner/example"
      }
    },
    "request": {
      "method": "POST",
      "url": "MedicationRequest/MedicationRequest-58"
    }
  }, {
    "fullUrl": "https://madie.cms.gov/MeasureReport/79d8382a-c838-496f-97de-311f3ed11c16",
    "resource": {
      "resourceType": "MeasureReport",
      "id": "79d8382a-c838-496f-97de-311f3ed11c16",
      "meta": {
        "profile": [ "http://hl7.org/fhir/us/cqfmeasures/StructureDefinition/test-case-cqfm" ]
      },
      "contained": [ {
        "resourceType": "Parameters",
        "id": "6da2bb82-38ed-414d-97a4-dcf23f17ded5-parameters",
        "parameter": [ {
          "name": "subject",
          "valueString": "64c49012-0f98-41da-a00b-9cd673294d16"
        } ]
      } ],
      "extension": [ {
        "url": "http://hl7.org/fhir/us/cqfmeasures/StructureDefinition/cqfm-inputParameters",
        "valueReference": {
          "reference": "#6da2bb82-38ed-414d-97a4-dcf23f17ded5-parameters"
        }
      }, {
        "url": "http://hl7.org/fhir/us/cqfmeasures/StructureDefinition/cqfm-testCaseDescription",
        "valueMarkdown": "Bipolar disorder ends 1 year before MP"
      } ],
      "modifierExtension": [ {
        "url": "http://hl7.org/fhir/us/cqfmeasures/StructureDefinition/cqfm-isTestCase",
        "valueBoolean": true
      } ],
      "status": "complete",
      "type": "individual",
      "measure": "https://madie.cms.gov/Measure/UseofHighRiskMedicationsintheElderlyFHIR",
      "period": {
        "start": "2025-01-01",
        "end": "2025-12-31"
      },
      "group": [ {
        "population": [ {
          "code": {
            "coding": [ {
              "system": "http://terminology.hl7.org/CodeSystem/measure-population",
              "code": "initial-population",
              "display": "Initial Population"
            } ]
          },
          "count": 1
        }, {
          "code": {
            "coding": [ {
              "system": "http://terminology.hl7.org/CodeSystem/measure-population",
              "code": "denominator",
              "display": "Denominator"
            } ]
          },
          "count": 1
        }, {
          "code": {
            "coding": [ {
              "system": "http://terminology.hl7.org/CodeSystem/measure-population",
              "code": "denominator-exclusion",
              "display": "Denominator Exclusion"
            } ]
          },
          "count": 0
        }, {
          "code": {
            "coding": [ {
              "system": "http://terminology.hl7.org/CodeSystem/measure-population",
              "code": "numerator",
              "display": "Numerator"
            } ]
          },
          "count": 0
        } ]
      }, {
        "population": [ {
          "code": {
            "coding": [ {
              "system": "http://terminology.hl7.org/CodeSystem/measure-population",
              "code": "initial-population",
              "display": "Initial Population"
            } ]
          },
          "count": 1
        }, {
          "code": {
            "coding": [ {
              "system": "http://terminology.hl7.org/CodeSystem/measure-population",
              "code": "denominator",
              "display": "Denominator"
            } ]
          },
          "count": 1
        }, {
          "code": {
            "coding": [ {
              "system": "http://terminology.hl7.org/CodeSystem/measure-population",
              "code": "denominator-exclusion",
              "display": "Denominator Exclusion"
            } ]
          },
          "count": 0
        }, {
          "code": {
            "coding": [ {
              "system": "http://terminology.hl7.org/CodeSystem/measure-population",
              "code": "numerator",
              "display": "Numerator"
            } ]
          },
          "count": 1
        } ]
      }, {
        "population": [ {
          "code": {
            "coding": [ {
              "system": "http://terminology.hl7.org/CodeSystem/measure-population",
              "code": "initial-population",
              "display": "Initial Population"
            } ]
          },
          "count": 1
        }, {
          "code": {
            "coding": [ {
              "system": "http://terminology.hl7.org/CodeSystem/measure-population",
              "code": "denominator",
              "display": "Denominator"
            } ]
          },
          "count": 1
        }, {
          "code": {
            "coding": [ {
              "system": "http://terminology.hl7.org/CodeSystem/measure-population",
              "code": "denominator-exclusion",
              "display": "Denominator Exclusion"
            } ]
          },
          "count": 0
        }, {
          "code": {
            "coding": [ {
              "system": "http://terminology.hl7.org/CodeSystem/measure-population",
              "code": "numerator",
              "display": "Numerator"
            } ]
          },
          "count": 1
        } ]
      } ],
      "evaluatedResource": [ {
        "reference": "https://madie.cms.gov/Patient/64c49012-0f98-41da-a00b-9cd673294d16"
      }, {
        "reference": "https://madie.cms.gov/Encounter/Encounter-49"
      }, {
        "reference": "https://madie.cms.gov/Condition/Condition-8"
      }, {
        "reference": "https://madie.cms.gov/MedicationRequest/MedicationRequest-57"
      }, {
        "reference": "https://madie.cms.gov/MedicationRequest/MedicationRequest-58"
      } ]
    },
    "request": {
      "method": "POST",
      "url": "MeasureReport/79d8382a-c838-496f-97de-311f3ed11c16"
    }
  } ]
}