{"resourceType":"Bundle","id":"tests-c3a81338-d107-4762-84a8-3a8ce88b781a-bundle","type":"transaction","entry":[{"fullUrl":"https://madie.cms.gov/Patient/c3a81338-d107-4762-84a8-3a8ce88b781a","resource":{"resourceType":"Patient","id":"c3a81338-d107-4762-84a8-3a8ce88b781a","meta":{"profile":["http://hl7.org/fhir/us/qicore/StructureDefinition/qicore-patient"]},"extension":[{"url":"http://hl7.org/fhir/us/core/StructureDefinition/us-core-race","extension":[{"url":"ombCategory","valueCoding":{"system":"urn:oid:2.16.840.1.113883.6.238","code":"2076-8","display":"Native Hawaiian or Other Pacific Islander","userSelected":true}},{"url":"text","valueString":"Native Hawaiian or Other Pacific Islander"}]},{"url":"http://hl7.org/fhir/us/core/StructureDefinition/us-core-ethnicity","extension":[{"url":"ombCategory","valueCoding":{"system":"urn:oid:2.16.840.1.113883.6.238","code":"2186-5","display":"Not Hispanic or Latino","userSelected":true}},{"url":"text","valueString":"Not Hispanic or Latino"}]}],"identifier":[{"type":{"coding":[{"system":"http://terminology.hl7.org/CodeSystem/v2-0203","code":"MR"}]},"system":"https://bonnie-fhir.healthit.gov/","value":"64998d9ccea95c34d9e57771"}],"name":[{"family":"NumPass","given":["2TestsduringMP1Over1Less"]}],"gender":"female","birthDate":"1986-05-25"},"request":{"method":"PUT","url":"Patient/c3a81338-d107-4762-84a8-3a8ce88b781a"}},{"fullUrl":"https://madie.cms.gov/Encounter/preventive-care-services-initial-office-visit-0-to-17-7772","resource":{"resourceType":"Encounter","id":"8b8238e1-82f5-44ee-9d7a-d172ddf35e00","meta":{"profile":["http://hl7.org/fhir/us/qicore/StructureDefinition/qicore-encounter"]},"status":"finished","class":{"system":"http://terminology.hl7.org/CodeSystem/v3-ActCode","code":"AMB","display":"ambulatory"},"type":[{"coding":[{"system":"http://www.ama-assn.org/go/cpt","version":"2023","code":"99381","display":"Initial comprehensive preventive medicine evaluation and management of an individual including an age and gender appropriate history, examination, counseling/anticipatory guidance/risk factor reduction interventions, and the ordering of laboratory/diagnostic procedures, new patient; infant (age younger than 1 year)","userSelected":true}]}],"subject":{"reference":"Patient/c3a81338-d107-4762-84a8-3a8ce88b781a"},"period":{"start":"2025-03-07T10:00:00.000+00:00","end":"2025-03-07T10:30:00.000+00:00"}},"request":{"method":"PUT","url":"Encounter/8b8238e1-82f5-44ee-9d7a-d172ddf35e00"}},{"fullUrl":"https://madie.cms.gov/Condition/hiv-7774","resource":{"resourceType":"Condition","id":"03b0c4f3-267e-4b2a-b3ac-83f92168895f","meta":{"profile":["http://hl7.org/fhir/us/qicore/StructureDefinition/qicore-condition"]},"clinicalStatus":{"coding":[{"system":"http://terminology.hl7.org/CodeSystem/condition-clinical","code":"active","display":"active","userSelected":true}]},"category":[{"coding":[{"system":"http://terminology.hl7.org/CodeSystem/condition-category","code":"problem-list-item","display":"Problem List Item"}]}],"code":{"coding":[{"system":"http://hl7.org/fhir/sid/icd-9-cm","version":"2013","code":"042","display":"Human immunodeficiency virus [HIV] disease","userSelected":true},{"system":"http://snomed.info/sct","code":"165816005","userSelected":true}]},"subject":{"reference":"Patient/c3a81338-d107-4762-84a8-3a8ce88b781a"},"onsetDateTime":"2019-12-02T12:00:00.000+00:00","recordedDate":"2019-12-02T12:00:00.000+00:00"},"request":{"method":"PUT","url":"Condition/03b0c4f3-267e-4b2a-b3ac-83f92168895f"}},{"fullUrl":"https://madie.cms.gov/Observation/hiv-viral-load-7775","resource":{"resourceType":"Observation","id":"9f37c935-c013-4b56-a882-901367ef2a55","meta":{"profile":["http://hl7.org/fhir/us/qicore/StructureDefinition/qicore-observation"]},"status":"final","category":[{"coding":[{"system":"http://terminology.hl7.org/CodeSystem/observation-category"}]}],"code":{"coding":[{"system":"http://loinc.org","version":"2.73","code":"10351-5","display":"HIV 1 RNA [Units/volume] (viral load) in Serum or Plasma by Probe with amplification","userSelected":true}]},"subject":{"reference":"Patient/c3a81338-d107-4762-84a8-3a8ce88b781a"},"effectiveDateTime":"2025-03-07T08:00:00.000+00:00","issued":"2025-03-07T08:00:00.000+00:00","valueQuantity":{"value":208,"unit":"{copies}/mL"}},"request":{"method":"PUT","url":"Observation/9f37c935-c013-4b56-a882-901367ef2a55"}},{"fullUrl":"https://madie.cms.gov/Observation/hiv-viral-load-7776","resource":{"resourceType":"Observation","id":"bf8c204c-bb1b-42c1-b868-f1eb9dce66d6","meta":{"profile":["http://hl7.org/fhir/us/qicore/StructureDefinition/qicore-observation"]},"status":"final","category":[{"coding":[{"system":"http://terminology.hl7.org/CodeSystem/observation-category"}]}],"code":{"coding":[{"system":"http://loinc.org","version":"2.73","code":"10351-5","display":"HIV 1 RNA [Units/volume] (viral load) in Serum or Plasma by Probe with amplification","userSelected":true}]},"subject":{"reference":"Patient/c3a81338-d107-4762-84a8-3a8ce88b781a"},"effectiveDateTime":"2025-12-31T08:02:00.000+00:00","issued":"2025-12-31T08:02:00.000+00:00","valueQuantity":{"value":160,"unit":"{copies}/mL"}},"request":{"method":"PUT","url":"Observation/bf8c204c-bb1b-42c1-b868-f1eb9dce66d6"}},{"fullUrl":"https://madie.cms.gov/Coverage/1","resource":{"resourceType":"Coverage","id":"d0247e81-66a7-4b23-98c0-40f11b4a0907","meta":{"profile":["http://hl7.org/fhir/us/qicore/StructureDefinition/qicore-coverage"]},"status":"active","beneficiary":{"reference":"Patient/c3a81338-d107-4762-84a8-3a8ce88b781a"},"payor":[{"reference":"Organization/26111c91-b0e2-476c-a20b-e3f39799f8f5"}]},"request":{"method":"PUT","url":"Coverage/d0247e81-66a7-4b23-98c0-40f11b4a0907"}},{"fullUrl":"https://madie.cms.gov/Organization/123456","resource":{"resourceType":"Organization","id":"26111c91-b0e2-476c-a20b-e3f39799f8f5","meta":{"profile":["http://hl7.org/fhir/us/qicore/StructureDefinition/qicore-organization"]},"identifier":[{"use":"temp","system":"urn:oid:2.16.840.1.113883.4.4","value":"21-3259825"}],"active":true,"type":[{"coding":[{"system":"http://terminology.hl7.org/CodeSystem/organization-type","code":"pay","display":"Payer"}]}],"name":"Blue Cross Blue Shield of Texas","telecom":[{"system":"phone","value":"(+1) 972-766-6900"}],"address":[{"use":"billing","type":"postal","line":["P.O. Box 660044"],"city":"Dallas","state":"TX","postalCode":"75266-0044","country":"USA"}]},"request":{"method":"PUT","url":"Organization/26111c91-b0e2-476c-a20b-e3f39799f8f5"}},{"fullUrl":"https://madie.cms.gov/Practitioner/practitioner-123456","resource":{"resourceType":"Practitioner","id":"b0165038-991b-40d3-83db-6632613af0e7","meta":{"profile":["http://hl7.org/fhir/us/qicore/StructureDefinition/qicore-practitioner"]},"identifier":[{"system":"http://hl7.org/fhir/sid/us-npi","value":"123456"}],"name":[{"family":"Evil","prefix":["Dr"]}]},"request":{"method":"PUT","url":"Practitioner/b0165038-991b-40d3-83db-6632613af0e7"}},{"fullUrl":"https://madie.cms.gov/MeasureReport/466804cd-b9d3-4730-89ae-9b47443e7e32","resource":{"resourceType":"MeasureReport","id":"466804cd-b9d3-4730-89ae-9b47443e7e32","meta":{"profile":["http://hl7.org/fhir/us/cqfmeasures/StructureDefinition/test-case-cqfm"]},"contained":[{"resourceType":"Parameters","id":"d6d4cc10-3c7e-4aa5-b0be-6ed20c34898c-parameters","parameter":[{"name":"subject","valueString":"c3a81338-d107-4762-84a8-3a8ce88b781a"}]}],"extension":[{"url":"http://hl7.org/fhir/us/cqfmeasures/StructureDefinition/cqfm-inputParameters","valueReference":{"reference":"#d6d4cc10-3c7e-4aa5-b0be-6ed20c34898c-parameters"}},{"url":"http://hl7.org/fhir/us/cqfmeasures/StructureDefinition/cqfm-testCaseDescription","valueMarkdown":"Patient with a diagnosis of HIV years before start of the MP and a qualifying encounter during the MP with 2 tests during the MP, most recent under 200"}],"modifierExtension":[{"url":"http://hl7.org/fhir/us/cqfmeasures/StructureDefinition/cqfm-isTestCase","valueBoolean":true}],"status":"complete","type":"individual","measure":"https://madie.cms.gov/Measure/HIVViralSuppressionFHIR","period":{"start":"2025-01-01","end":"2025-12-31"},"group":[{"population":[{"code":{"coding":[{"system":"http://terminology.hl7.org/CodeSystem/measure-population","code":"initial-population","display":"Initial Population"}]},"count":1},{"code":{"coding":[{"system":"http://terminology.hl7.org/CodeSystem/measure-population","code":"denominator","display":"Denominator"}]},"count":1},{"code":{"coding":[{"system":"http://terminology.hl7.org/CodeSystem/measure-population","code":"numerator","display":"Numerator"}]},"count":1}]}]},"request":{"method":"PUT","url":"MeasureReport/466804cd-b9d3-4730-89ae-9b47443e7e32"}}]}