{"resourceType":"Bundle","id":"tests-8d786705-7605-4c33-a5d4-0ef145a3bcbc-bundle","type":"transaction","entry":[{"fullUrl":"https://madie.cms.gov/Patient/8d786705-7605-4c33-a5d4-0ef145a3bcbc","resource":{"resourceType":"Patient","id":"8d786705-7605-4c33-a5d4-0ef145a3bcbc","meta":{"profile":["http://hl7.org/fhir/us/qicore/StructureDefinition/qicore-patient"]},"extension":[{"url":"http://hl7.org/fhir/us/core/StructureDefinition/us-core-race","extension":[{"url":"ombCategory","valueCoding":{"system":"urn:oid:2.16.840.1.113883.6.238","code":"2054-5","display":"Black or African American","userSelected":true}},{"url":"text","valueString":"Black or African American"}]},{"url":"http://hl7.org/fhir/us/core/StructureDefinition/us-core-ethnicity","extension":[{"url":"ombCategory","valueCoding":{"system":"urn:oid:2.16.840.1.113883.6.238","code":"2135-2","display":"Hispanic or Latino","userSelected":true}},{"url":"text","valueString":"Hispanic or Latino"}]}],"identifier":[{"type":{"coding":[{"system":"http://terminology.hl7.org/CodeSystem/v2-0203","code":"MR"}]},"system":"https://bonnie-fhir.healthit.gov/","value":"6499b4f7f75cf8dae8f2f3d5"}],"name":[{"family":"NumPass","given":["2VLTestsduringMPwithMostRecentResultUnder"]}],"gender":"male","birthDate":"1986-05-25"},"request":{"method":"PUT","url":"Patient/8d786705-7605-4c33-a5d4-0ef145a3bcbc"}},{"fullUrl":"https://madie.cms.gov/Condition/hiv-f3d6","resource":{"resourceType":"Condition","id":"253925ae-9d31-44d3-b106-1c820ad4ae12","meta":{"profile":["http://hl7.org/fhir/us/qicore/StructureDefinition/qicore-condition"]},"clinicalStatus":{"coding":[{"system":"http://terminology.hl7.org/CodeSystem/condition-clinical","code":"active","display":"active","userSelected":true}]},"category":[{"coding":[{"system":"http://terminology.hl7.org/CodeSystem/condition-category","code":"problem-list-item","display":"Problem List Item"}]}],"code":{"coding":[{"system":"http://hl7.org/fhir/sid/icd-9-cm","version":"2013","code":"042","display":"Human immunodeficiency virus [HIV] disease","userSelected":true},{"system":"http://snomed.info/sct","code":"165816005","userSelected":true}]},"subject":{"reference":"Patient/8d786705-7605-4c33-a5d4-0ef145a3bcbc"},"onsetDateTime":"2023-01-01T12:00:00.000+00:00","recordedDate":"2023-01-01T12:00:00.000+00:00"},"request":{"method":"PUT","url":"Condition/253925ae-9d31-44d3-b106-1c820ad4ae12"}},{"fullUrl":"https://madie.cms.gov/Encounter/preventive-care-services-established-office-visit-18-and-up-f3d7","resource":{"resourceType":"Encounter","id":"d07a874a-bcf8-43a3-a99e-9e9eb8d79885","meta":{"profile":["http://hl7.org/fhir/us/qicore/StructureDefinition/qicore-encounter"]},"status":"finished","class":{"system":"http://terminology.hl7.org/CodeSystem/v3-ActCode","code":"AMB","display":"ambulatory"},"type":[{"coding":[{"system":"http://www.ama-assn.org/go/cpt","version":"2023","code":"99395","display":"Periodic comprehensive preventive medicine reevaluation and management of an individual including an age and gender appropriate history, examination, counseling/anticipatory guidance/risk factor reduction interventions, and the ordering of laboratory/diagnostic procedures, established patient; 18-39 years","userSelected":true}]}],"subject":{"reference":"Patient/8d786705-7605-4c33-a5d4-0ef145a3bcbc"},"period":{"start":"2025-01-01T11:00:00.000+00:00","end":"2025-01-01T11:22:00.000+00:00"}},"request":{"method":"PUT","url":"Encounter/d07a874a-bcf8-43a3-a99e-9e9eb8d79885"}},{"fullUrl":"https://madie.cms.gov/Observation/hiv-viral-load-f3d8","resource":{"resourceType":"Observation","id":"84cd0657-a3f5-4acd-aaf4-e4b23bc45426","meta":{"profile":["http://hl7.org/fhir/us/qicore/StructureDefinition/qicore-observation"]},"status":"final","category":[{"coding":[{"system":"http://terminology.hl7.org/CodeSystem/observation-category"}]}],"code":{"coding":[{"system":"http://loinc.org","version":"2.73","code":"10351-5","display":"HIV 1 RNA [Units/volume] (viral load) in Serum or Plasma by Probe with amplification","userSelected":true}]},"subject":{"reference":"Patient/8d786705-7605-4c33-a5d4-0ef145a3bcbc"},"effectiveDateTime":"2025-08-28T07:59:00.000+00:00","issued":"2025-08-28T07:59:00.000+00:00","valueQuantity":{"value":199,"unit":"{copies}/mL"}},"request":{"method":"PUT","url":"Observation/84cd0657-a3f5-4acd-aaf4-e4b23bc45426"}},{"fullUrl":"https://madie.cms.gov/Observation/hiv-viral-load-f3d9","resource":{"resourceType":"Observation","id":"80ad0ee5-b1c6-4126-a9fa-97bb81daf788","meta":{"profile":["http://hl7.org/fhir/us/qicore/StructureDefinition/qicore-observation"]},"status":"final","category":[{"coding":[{"system":"http://terminology.hl7.org/CodeSystem/observation-category"}]}],"code":{"coding":[{"system":"http://loinc.org","code":"51780-5","userSelected":true}]},"subject":{"reference":"Patient/8d786705-7605-4c33-a5d4-0ef145a3bcbc"},"effectiveDateTime":"2025-01-01T08:00:00.000+00:00","issued":"2025-01-01T08:00:00.000+00:00","valueQuantity":{"value":201,"unit":"{copies}/mL"}},"request":{"method":"PUT","url":"Observation/80ad0ee5-b1c6-4126-a9fa-97bb81daf788"}},{"fullUrl":"https://madie.cms.gov/Coverage/1","resource":{"resourceType":"Coverage","id":"73a8398c-064a-4d6f-b267-59e964dc8c0b","meta":{"profile":["http://hl7.org/fhir/us/qicore/StructureDefinition/qicore-coverage"]},"status":"active","beneficiary":{"reference":"Patient/8d786705-7605-4c33-a5d4-0ef145a3bcbc"},"payor":[{"reference":"Organization/26111c91-b0e2-476c-a20b-e3f39799f8f5"}]},"request":{"method":"PUT","url":"Coverage/73a8398c-064a-4d6f-b267-59e964dc8c0b"}},{"fullUrl":"https://madie.cms.gov/Organization/123456","resource":{"resourceType":"Organization","id":"26111c91-b0e2-476c-a20b-e3f39799f8f5","meta":{"profile":["http://hl7.org/fhir/us/qicore/StructureDefinition/qicore-organization"]},"identifier":[{"use":"temp","system":"urn:oid:2.16.840.1.113883.4.4","value":"21-3259825"}],"active":true,"type":[{"coding":[{"system":"http://terminology.hl7.org/CodeSystem/organization-type","code":"pay","display":"Payer"}]}],"name":"Blue Cross Blue Shield of Texas","telecom":[{"system":"phone","value":"(+1) 972-766-6900"}],"address":[{"use":"billing","type":"postal","line":["P.O. Box 660044"],"city":"Dallas","state":"TX","postalCode":"75266-0044","country":"USA"}]},"request":{"method":"PUT","url":"Organization/26111c91-b0e2-476c-a20b-e3f39799f8f5"}},{"fullUrl":"https://madie.cms.gov/Practitioner/practitioner-123456","resource":{"resourceType":"Practitioner","id":"315ae5c1-a7c6-4d6a-a46c-79f778ff0c57","meta":{"profile":["http://hl7.org/fhir/us/qicore/StructureDefinition/qicore-practitioner"]},"identifier":[{"system":"http://hl7.org/fhir/sid/us-npi","value":"123456"}],"name":[{"family":"Evil","prefix":["Dr"]}]},"request":{"method":"PUT","url":"Practitioner/315ae5c1-a7c6-4d6a-a46c-79f778ff0c57"}},{"fullUrl":"https://madie.cms.gov/MeasureReport/3277992a-4589-4f0c-b655-31de7ae6b39c","resource":{"resourceType":"MeasureReport","id":"3277992a-4589-4f0c-b655-31de7ae6b39c","meta":{"profile":["http://hl7.org/fhir/us/cqfmeasures/StructureDefinition/test-case-cqfm"]},"contained":[{"resourceType":"Parameters","id":"3e1ee019-c95e-4222-947d-0f6ba81f449e-parameters","parameter":[{"name":"subject","valueString":"8d786705-7605-4c33-a5d4-0ef145a3bcbc"}]}],"extension":[{"url":"http://hl7.org/fhir/us/cqfmeasures/StructureDefinition/cqfm-inputParameters","valueReference":{"reference":"#3e1ee019-c95e-4222-947d-0f6ba81f449e-parameters"}},{"url":"http://hl7.org/fhir/us/cqfmeasures/StructureDefinition/cqfm-testCaseDescription","valueMarkdown":"Patient with a diagnosis of HIV on Jan 1 years before MP and a qualifying encounter on Jan 1 of the MP with TWO viral load tests - 1) Jan 1 with result > 200, 2) Aug 28 < 200"}],"modifierExtension":[{"url":"http://hl7.org/fhir/us/cqfmeasures/StructureDefinition/cqfm-isTestCase","valueBoolean":true}],"status":"complete","type":"individual","measure":"https://madie.cms.gov/Measure/HIVViralSuppressionFHIR","period":{"start":"2025-01-01","end":"2025-12-31"},"group":[{"population":[{"code":{"coding":[{"system":"http://terminology.hl7.org/CodeSystem/measure-population","code":"initial-population","display":"Initial Population"}]},"count":1},{"code":{"coding":[{"system":"http://terminology.hl7.org/CodeSystem/measure-population","code":"denominator","display":"Denominator"}]},"count":1},{"code":{"coding":[{"system":"http://terminology.hl7.org/CodeSystem/measure-population","code":"numerator","display":"Numerator"}]},"count":1}]}]},"request":{"method":"PUT","url":"MeasureReport/3277992a-4589-4f0c-b655-31de7ae6b39c"}}]}