{"resourceType":"Bundle","id":"tests-6e5d5e93-aaf8-440f-9f99-7fbb105dce3c-bundle","type":"transaction","entry":[{"fullUrl":"https://madie.cms.gov/Patient/6e5d5e93-aaf8-440f-9f99-7fbb105dce3c","resource":{"resourceType":"Patient","id":"6e5d5e93-aaf8-440f-9f99-7fbb105dce3c","meta":{"profile":["http://hl7.org/fhir/us/qicore/StructureDefinition/qicore-patient"]},"extension":[{"url":"http://hl7.org/fhir/us/core/StructureDefinition/us-core-race","extension":[{"url":"ombCategory","valueCoding":{"system":"urn:oid:2.16.840.1.113883.6.238","code":"2054-5","display":"Black or African American","userSelected":true}},{"url":"text","valueString":"Black or African American"}]},{"url":"http://hl7.org/fhir/us/core/StructureDefinition/us-core-ethnicity","extension":[{"url":"ombCategory","valueCoding":{"system":"urn:oid:2.16.840.1.113883.6.238","code":"2186-5","display":"Not Hispanic or Latino","userSelected":true}},{"url":"text","valueString":"Not Hispanic or Latino"}]}],"identifier":[{"type":{"coding":[{"system":"http://terminology.hl7.org/CodeSystem/v2-0203","code":"MR"}]},"system":"https://bonnie-fhir.healthit.gov/","value":"649f3586ee658463ed0fd36b"}],"name":[{"family":"NUMFail","given":["2LabBeforeMP1LabDuringMP"]}],"gender":"female","birthDate":"2000-02-04"},"request":{"method":"PUT","url":"Patient/6e5d5e93-aaf8-440f-9f99-7fbb105dce3c"}},{"fullUrl":"https://madie.cms.gov/Condition/hiv-d36b","resource":{"resourceType":"Condition","id":"fab432f6-8248-4e69-8477-f30b430645b5","meta":{"profile":["http://hl7.org/fhir/us/qicore/StructureDefinition/qicore-condition"]},"clinicalStatus":{"coding":[{"system":"http://terminology.hl7.org/CodeSystem/condition-clinical","code":"active","display":"active","userSelected":true}]},"category":[{"coding":[{"system":"http://terminology.hl7.org/CodeSystem/condition-category","code":"problem-list-item","display":"Problem List Item"}]}],"code":{"coding":[{"system":"http://hl7.org/fhir/sid/icd-9-cm","version":"2013","code":"042","display":"Human immunodeficiency virus [HIV] disease","userSelected":true},{"system":"http://snomed.info/sct","code":"165816005","userSelected":true}]},"subject":{"reference":"Patient/6e5d5e93-aaf8-440f-9f99-7fbb105dce3c"},"onsetDateTime":"2017-09-28T08:00:00.000+00:00","recordedDate":"2017-09-28T08:00:00.000+00:00"},"request":{"method":"PUT","url":"Condition/fab432f6-8248-4e69-8477-f30b430645b5"}},{"fullUrl":"https://madie.cms.gov/Encounter/unlisted-preventive-medicine-service-d36c","resource":{"resourceType":"Encounter","id":"42c0247d-8f30-4d42-b6ed-c6cdf97d2c6e","meta":{"profile":["http://hl7.org/fhir/us/qicore/StructureDefinition/qicore-encounter"]},"status":"finished","class":{"system":"http://terminology.hl7.org/CodeSystem/v3-ActCode","code":"AMB","display":"ambulatory"},"type":[{"coding":[{"system":"http://www.ama-assn.org/go/cpt","code":"99429","display":"Unlisted preventive medicine service","userSelected":true}]}],"subject":{"reference":"Patient/6e5d5e93-aaf8-440f-9f99-7fbb105dce3c"},"period":{"start":"2025-10-31T08:00:00.000+00:00","end":"2025-10-31T08:15:00.000+00:00"}},"request":{"method":"PUT","url":"Encounter/42c0247d-8f30-4d42-b6ed-c6cdf97d2c6e"}},{"fullUrl":"https://madie.cms.gov/Observation/syphilis-tests-d36d","resource":{"resourceType":"Observation","id":"e8880445-e810-4fff-92c3-ca7a4fbaf9de","meta":{"profile":["http://hl7.org/fhir/us/qicore/StructureDefinition/qicore-observation"]},"status":"final","category":[{"coding":[{"system":"http://terminology.hl7.org/CodeSystem/observation-category"}]}],"code":{"coding":[{"system":"http://loinc.org","version":"2.73","code":"11084-1","display":"Reagin Ab [Titer] in Serum","userSelected":true}]},"subject":{"reference":"Patient/6e5d5e93-aaf8-440f-9f99-7fbb105dce3c"},"effectiveDateTime":"2023-10-31T08:16:00.000+00:00","issued":"2023-10-31T08:16:00.000+00:00"},"request":{"method":"PUT","url":"Observation/e8880445-e810-4fff-92c3-ca7a4fbaf9de"}},{"fullUrl":"https://madie.cms.gov/Observation/gonorrhea-screening-d36e","resource":{"resourceType":"Observation","id":"c0804613-ab09-48cc-b9cf-2910c3187844","meta":{"profile":["http://hl7.org/fhir/us/qicore/StructureDefinition/qicore-observation"]},"status":"final","category":[{"coding":[{"system":"http://terminology.hl7.org/CodeSystem/observation-category"}]}],"code":{"coding":[{"system":"http://loinc.org","version":"2.73","code":"21414-8","display":"Neisseria gonorrhoeae DNA [Presence] in Cervical mucus by NAA with probe detection","userSelected":true}]},"subject":{"reference":"Patient/6e5d5e93-aaf8-440f-9f99-7fbb105dce3c"},"effectiveDateTime":"2023-10-31T08:00:00.000+00:00","issued":"2023-10-31T08:00:00.000+00:00"},"request":{"method":"PUT","url":"Observation/c0804613-ab09-48cc-b9cf-2910c3187844"}},{"fullUrl":"https://madie.cms.gov/Observation/chlamydia-screening-d36f","resource":{"resourceType":"Observation","id":"d64c7ef3-8890-4da0-b229-86c789a02f45","meta":{"profile":["http://hl7.org/fhir/us/qicore/StructureDefinition/qicore-observation"]},"status":"final","category":[{"coding":[{"system":"http://terminology.hl7.org/CodeSystem/observation-category"}]}],"code":{"coding":[{"system":"http://loinc.org","version":"2.73","code":"14463-4","display":"Chlamydia trachomatis [Presence] in Cervix by Organism specific culture","userSelected":true}]},"subject":{"reference":"Patient/6e5d5e93-aaf8-440f-9f99-7fbb105dce3c"},"effectivePeriod":{"start":"2025-10-31T08:16:00.000+00:00","end":"2025-10-31T08:17:00.000+00:00"},"issued":"2025-10-31T08:16:00.000+00:00"},"request":{"method":"PUT","url":"Observation/d64c7ef3-8890-4da0-b229-86c789a02f45"}},{"fullUrl":"https://madie.cms.gov/Coverage/1","resource":{"resourceType":"Coverage","id":"3ebc996c-362a-4339-a6a0-33f705bc9dcf","meta":{"profile":["http://hl7.org/fhir/us/qicore/StructureDefinition/qicore-coverage"]},"status":"active","beneficiary":{"reference":"Patient/6e5d5e93-aaf8-440f-9f99-7fbb105dce3c"},"payor":[{"reference":"Organization/4b5a882f-1f43-485c-85c6-f5ad2337d5b1"}]},"request":{"method":"PUT","url":"Coverage/3ebc996c-362a-4339-a6a0-33f705bc9dcf"}},{"fullUrl":"https://madie.cms.gov/Organization/123456","resource":{"resourceType":"Organization","id":"4b5a882f-1f43-485c-85c6-f5ad2337d5b1","meta":{"profile":["http://hl7.org/fhir/us/qicore/StructureDefinition/qicore-organization"]},"identifier":[{"use":"temp","system":"urn:oid:2.16.840.1.113883.4.4","value":"21-3259825"}],"active":true,"type":[{"coding":[{"system":"http://terminology.hl7.org/CodeSystem/organization-type","code":"pay","display":"Payer"}]}],"name":"Blue Cross Blue Shield of Texas","telecom":[{"system":"phone","value":"(+1) 972-766-6900"}],"address":[{"use":"billing","type":"postal","line":["P.O. Box 660044"],"city":"Dallas","state":"TX","postalCode":"75266-0044","country":"USA"}]},"request":{"method":"PUT","url":"Organization/4b5a882f-1f43-485c-85c6-f5ad2337d5b1"}},{"fullUrl":"https://madie.cms.gov/Practitioner/practitioner-123456","resource":{"resourceType":"Practitioner","id":"254bb249-7d55-4a67-b816-b89b0029def1","meta":{"profile":["http://hl7.org/fhir/us/qicore/StructureDefinition/qicore-practitioner"]},"identifier":[{"system":"http://hl7.org/fhir/sid/us-npi","value":"123456"}],"name":[{"family":"Evil","prefix":["Dr"]}]},"request":{"method":"PUT","url":"Practitioner/254bb249-7d55-4a67-b816-b89b0029def1"}},{"fullUrl":"https://madie.cms.gov/MeasureReport/1a472b5a-b06e-4f11-b799-0ee0aa64e8df","resource":{"resourceType":"MeasureReport","id":"1a472b5a-b06e-4f11-b799-0ee0aa64e8df","meta":{"profile":["http://hl7.org/fhir/us/cqfmeasures/StructureDefinition/test-case-cqfm"]},"contained":[{"resourceType":"Parameters","id":"b85afbca-ddb8-4b46-940c-36d957944518-parameters","parameter":[{"name":"subject","valueString":"6e5d5e93-aaf8-440f-9f99-7fbb105dce3c"}]}],"extension":[{"url":"http://hl7.org/fhir/us/cqfmeasures/StructureDefinition/cqfm-inputParameters","valueReference":{"reference":"#b85afbca-ddb8-4b46-940c-36d957944518-parameters"}},{"url":"http://hl7.org/fhir/us/cqfmeasures/StructureDefinition/cqfm-testCaseDescription","valueMarkdown":"Patient is over 13 years old with an encounter - 2 STI screen before MP, 1 STI screen during MP with Unlisted preventive medicine service encounter"}],"modifierExtension":[{"url":"http://hl7.org/fhir/us/cqfmeasures/StructureDefinition/cqfm-isTestCase","valueBoolean":true}],"status":"complete","type":"individual","measure":"https://madie.cms.gov/Measure/HIVSTITestingFHIR","period":{"start":"2025-01-01","end":"2025-12-31"},"group":[{"population":[{"code":{"coding":[{"system":"http://terminology.hl7.org/CodeSystem/measure-population","code":"initial-population","display":"Initial Population"}]},"count":1},{"code":{"coding":[{"system":"http://terminology.hl7.org/CodeSystem/measure-population","code":"denominator","display":"Denominator"}]},"count":1},{"code":{"coding":[{"system":"http://terminology.hl7.org/CodeSystem/measure-population","code":"numerator","display":"Numerator"}]},"count":0}]}]},"request":{"method":"PUT","url":"MeasureReport/1a472b5a-b06e-4f11-b799-0ee0aa64e8df"}}]}