{"resourceType":"Bundle","id":"tests-f0f73fe9-f8ae-4994-911f-1745e5efbce3-bundle","type":"transaction","entry":[{"fullUrl":"https://madie.cms.gov/Patient/f0f73fe9-f8ae-4994-911f-1745e5efbce3","resource":{"resourceType":"Patient","id":"f0f73fe9-f8ae-4994-911f-1745e5efbce3","meta":{"profile":["http://hl7.org/fhir/us/qicore/StructureDefinition/qicore-patient"]},"text":{"status":"generated","div":"<div xmlns=\"http://www.w3.org/1999/xhtml\"><div class=\"hapiHeaderText\">CancerDxEndsPriorOfficeEnc<b>IPPFAILPOP1</b></div><table class=\"hapiPropertyTable\"><tbody><tr><td>Identifier</td><td>2c49e0586ead45a42884f353188a6a41</td></tr><tr><td>Date of birth</td><td><span>15 May 1966</span></td></tr></tbody></table></div>"},"extension":[{"url":"http://hl7.org/fhir/us/core/StructureDefinition/us-core-race","extension":[{"url":"ombCategory","valueCoding":{"system":"urn:oid:2.16.840.1.113883.6.238","code":"1002-5","display":"American Indian or Alaska Native","userSelected":true}},{"url":"text","valueString":"American Indian or Alaska Native"}]},{"url":"http://hl7.org/fhir/us/core/StructureDefinition/us-core-ethnicity","extension":[{"url":"ombCategory","valueCoding":{"system":"urn:oid:2.16.840.1.113883.6.238","code":"2135-2","display":"Hispanic or Latino","userSelected":true}},{"url":"text","valueString":"Hispanic or Latino"}]}],"identifier":[{"type":{"coding":[{"system":"http://terminology.hl7.org/CodeSystem/v2-0203","code":"MR"}]},"system":"https://bonnie-fhir.healthit.gov/","value":"62c880ec0111a60120dc220b"}],"active":true,"name":[{"use":"usual","family":"IPPFailPop1","given":["CancerDxEndsPriorEnc"]}],"gender":"male","birthDate":"1966-05-15"},"request":{"method":"PUT","url":"Patient/f0f73fe9-f8ae-4994-911f-1745e5efbce3"}},{"fullUrl":"https://madie.cms.gov/Condition/5ca52606b8484613a555a91e","resource":{"resourceType":"Condition","id":"fb49affb-f944-42aa-8de9-34a49f6052ec","meta":{"profile":["http://hl7.org/fhir/us/qicore/StructureDefinition/qicore-condition"]},"clinicalStatus":{"coding":[{"system":"http://terminology.hl7.org/CodeSystem/condition-clinical","code":"remission","display":"remission","userSelected":true}]},"verificationStatus":{"coding":[{"system":"http://terminology.hl7.org/CodeSystem/condition-ver-status","code":"confirmed","display":"Confirmed"}]},"category":[{"coding":[{"system":"http://terminology.hl7.org/CodeSystem/condition-category","code":"problem-list-item","display":"Problem List Item"}]}],"code":{"coding":[{"system":"http://snomed.info/sct","code":"278453007"}]},"subject":{"reference":"Patient/f0f73fe9-f8ae-4994-911f-1745e5efbce3"},"onsetDateTime":"2025-01-02T14:00:00.000Z","abatementDateTime":"2025-02-10T14:45:00.000Z"},"request":{"method":"PUT","url":"Condition/fb49affb-f944-42aa-8de9-34a49f6052ec"}},{"fullUrl":"https://madie.cms.gov/Encounter/5ca52606b8484613a555a91f","resource":{"resourceType":"Encounter","id":"5dc95386-171d-4f13-95c5-225eabbc8cd2","meta":{"profile":["http://hl7.org/fhir/us/qicore/StructureDefinition/qicore-encounter"]},"status":"finished","class":{"system":"http://terminology.hl7.org/CodeSystem/v3-ActCode","code":"AMB","display":"ambulatory","userSelected":true},"type":[{"coding":[{"system":"http://www.ama-assn.org/go/cpt","code":"99213"}]}],"subject":{"reference":"Patient/f0f73fe9-f8ae-4994-911f-1745e5efbce3"},"period":{"start":"2025-02-11T11:45:00.000Z","end":"2025-02-11T11:45:00.000Z"}},"request":{"method":"PUT","url":"Encounter/5dc95386-171d-4f13-95c5-225eabbc8cd2"}},{"fullUrl":"https://madie.cms.gov/Coverage/60099ac51c76ba64612b061f","resource":{"resourceType":"Coverage","id":"fe2b9771-1ca8-43b4-ba56-51cab10708f4","meta":{"profile":["http://hl7.org/fhir/us/qicore/StructureDefinition/qicore-coverage"]},"status":"active","beneficiary":{"reference":"Patient/f0f73fe9-f8ae-4994-911f-1745e5efbce3"},"period":{"start":"1966-05-15T08:00:00.000Z"},"payor":[{"reference":"Organization/26111c91-b0e2-476c-a20b-e3f39799f8f5"}]},"request":{"method":"PUT","url":"Coverage/fe2b9771-1ca8-43b4-ba56-51cab10708f4"}},{"fullUrl":"https://madie.cms.gov/Procedure/5ca52606b8484613a555a920","resource":{"resourceType":"Procedure","id":"20cf4f7f-efe2-4019-a9cf-49a4bf3fd962","meta":{"profile":["http://hl7.org/fhir/us/qicore/StructureDefinition/qicore-procedure"]},"extension":[{"url":"http://hl7.org/fhir/us/qicore/StructureDefinition/qicore-recorded","valueDateTime":"2025-02-11T10:55:00.000Z"}],"status":"completed","code":{"coding":[{"system":"http://www.ama-assn.org/go/cpt","code":"96446"}]},"subject":{"reference":"Patient/f0f73fe9-f8ae-4994-911f-1745e5efbce3"},"performedPeriod":{"start":"2025-02-11T10:50:00.000Z","end":"2025-02-11T10:50:00.000Z"}},"request":{"method":"PUT","url":"Procedure/20cf4f7f-efe2-4019-a9cf-49a4bf3fd962"}},{"fullUrl":"https://madie.cms.gov/Procedure/5ca52606b8484613a555a922","resource":{"resourceType":"Procedure","id":"53e0df90-6dff-476e-b3fe-0226ab3a4530","meta":{"profile":["http://hl7.org/fhir/us/qicore/StructureDefinition/qicore-procedure"]},"extension":[{"url":"http://hl7.org/fhir/us/qicore/StructureDefinition/qicore-recorded","valueDateTime":"2025-02-23T11:50:00.000Z"}],"status":"completed","code":{"coding":[{"system":"http://www.ama-assn.org/go/cpt","code":"96446"}]},"subject":{"reference":"Patient/f0f73fe9-f8ae-4994-911f-1745e5efbce3"},"performedPeriod":{"start":"2025-02-23T11:45:00.000Z","end":"2025-02-23T11:45:00.000Z"}},"request":{"method":"PUT","url":"Procedure/53e0df90-6dff-476e-b3fe-0226ab3a4530"}},{"fullUrl":"https://madie.cms.gov/Organization/123456","resource":{"resourceType":"Organization","id":"26111c91-b0e2-476c-a20b-e3f39799f8f5","meta":{"profile":["http://hl7.org/fhir/us/qicore/StructureDefinition/qicore-organization"]},"identifier":[{"use":"temp","system":"urn:oid:2.16.840.1.113883.4.4","value":"21-3259825"}],"active":true,"type":[{"coding":[{"system":"http://terminology.hl7.org/CodeSystem/organization-type","code":"pay","display":"Payer"}]}],"name":"Blue Cross Blue Shield of Texas","telecom":[{"system":"phone","value":"(+1) 972-766-6900"}],"address":[{"use":"billing","type":"postal","line":["P.O. Box 660044"],"city":"Dallas","state":"TX","postalCode":"75266-0044","country":"USA"}]},"request":{"method":"PUT","url":"Organization/26111c91-b0e2-476c-a20b-e3f39799f8f5"}},{"fullUrl":"https://madie.cms.gov/Practitioner/practitioner-123456","resource":{"resourceType":"Practitioner","id":"4488f5fd-7014-4145-b4e9-cb12cfdba895","meta":{"profile":["http://hl7.org/fhir/us/qicore/StructureDefinition/qicore-practitioner"]},"identifier":[{"system":"http://hl7.org/fhir/sid/us-npi","value":"123456"}],"name":[{"family":"Evil","prefix":["Dr"]}]},"request":{"method":"PUT","url":"Practitioner/4488f5fd-7014-4145-b4e9-cb12cfdba895"}},{"fullUrl":"https://madie.cms.gov/MeasureReport/44d0412b-8bcd-4360-aeb9-c06694754d8b","resource":{"resourceType":"MeasureReport","id":"44d0412b-8bcd-4360-aeb9-c06694754d8b","meta":{"profile":["http://hl7.org/fhir/us/cqfmeasures/StructureDefinition/test-case-cqfm"]},"contained":[{"resourceType":"Parameters","id":"ac1fc9b7-384b-489e-9e89-93c97068bde2-parameters","parameter":[{"name":"subject","valueString":"f0f73fe9-f8ae-4994-911f-1745e5efbce3"}]}],"extension":[{"url":"http://hl7.org/fhir/us/cqfmeasures/StructureDefinition/cqfm-inputParameters","valueReference":{"reference":"#ac1fc9b7-384b-489e-9e89-93c97068bde2-parameters"}},{"url":"http://hl7.org/fhir/us/cqfmeasures/StructureDefinition/cqfm-testCaseDescription","valueMarkdown":"Patient with cancer diagnosis ending before office visit.\n"}],"modifierExtension":[{"url":"http://hl7.org/fhir/us/cqfmeasures/StructureDefinition/cqfm-isTestCase","valueBoolean":true}],"status":"complete","type":"individual","measure":"https://madie.cms.gov/Measure/OncologyPainIntensityQuantifiedFHIR","period":{"start":"2025-01-01","end":"2025-12-31"},"group":[{"population":[{"code":{"coding":[{"system":"http://terminology.hl7.org/CodeSystem/measure-population","code":"initial-population","display":"Initial Population"}]},"count":0},{"code":{"coding":[{"system":"http://terminology.hl7.org/CodeSystem/measure-population","code":"denominator","display":"Denominator"}]},"count":0},{"code":{"coding":[{"system":"http://terminology.hl7.org/CodeSystem/measure-population","code":"numerator","display":"Numerator"}]},"count":0}]},{"population":[{"code":{"coding":[{"system":"http://terminology.hl7.org/CodeSystem/measure-population","code":"initial-population","display":"Initial Population"}]},"count":0},{"code":{"coding":[{"system":"http://terminology.hl7.org/CodeSystem/measure-population","code":"denominator","display":"Denominator"}]},"count":0},{"code":{"coding":[{"system":"http://terminology.hl7.org/CodeSystem/measure-population","code":"numerator","display":"Numerator"}]},"count":0}]}]},"request":{"method":"PUT","url":"MeasureReport/44d0412b-8bcd-4360-aeb9-c06694754d8b"}}]}