{"resourceType":"Bundle","id":"tests-ba6d787f-d15f-4e22-8ee4-30c12d53aa37-bundle","type":"transaction","entry":[{"fullUrl":"https://madie.cms.gov/Patient/ba6d787f-d15f-4e22-8ee4-30c12d53aa37","resource":{"resourceType":"Patient","id":"ba6d787f-d15f-4e22-8ee4-30c12d53aa37","meta":{"profile":["http://hl7.org/fhir/us/qicore/StructureDefinition/qicore-patient"]},"text":{"status":"generated","div":"<div xmlns=\"http://www.w3.org/1999/xhtml\"><div class=\"hapiHeaderText\">NoEncChemoOrRadTx<b>IPPFailPop1And2</b></div><table class=\"hapiPropertyTable\"><tbody><tr><td>Identifier</td><td>70907baa15b476ae78501f3d66740457</td></tr><tr><td>Date of birth</td><td><span>10 January 1991</span></td></tr></tbody></table></div>"},"extension":[{"url":"http://hl7.org/fhir/us/core/StructureDefinition/us-core-race","extension":[{"url":"ombCategory","valueCoding":{"system":"urn:oid:2.16.840.1.113883.6.238","code":"1002-5","display":"American Indian or Alaska Native","userSelected":true}},{"url":"text","valueString":"American Indian or Alaska Native"}]},{"url":"http://hl7.org/fhir/us/core/StructureDefinition/us-core-ethnicity","extension":[{"url":"ombCategory","valueCoding":{"system":"urn:oid:2.16.840.1.113883.6.238","code":"2135-2","display":"Hispanic or Latino","userSelected":true}},{"url":"text","valueString":"Hispanic or Latino"}]}],"identifier":[{"type":{"coding":[{"system":"http://terminology.hl7.org/CodeSystem/v2-0203","code":"MR"}]},"system":"https://bonnie-fhir.healthit.gov/","value":"62c880eb0111a60120dc21eb"}],"active":true,"name":[{"use":"usual","family":"IPPFailPop1And2","given":["NoEncChemoOrRadTx"]}],"gender":"female","birthDate":"1991-01-10"},"request":{"method":"PUT","url":"Patient/ba6d787f-d15f-4e22-8ee4-30c12d53aa37"}},{"fullUrl":"https://madie.cms.gov/Condition/5ca52607b8484613a555a928","resource":{"resourceType":"Condition","id":"9a0b996e-aab2-4749-a211-28328ae9f018","meta":{"profile":["http://hl7.org/fhir/us/qicore/StructureDefinition/qicore-condition"]},"clinicalStatus":{"coding":[{"system":"http://terminology.hl7.org/CodeSystem/condition-clinical","code":"active","display":"active","userSelected":true}]},"verificationStatus":{"coding":[{"system":"http://terminology.hl7.org/CodeSystem/condition-ver-status","code":"confirmed","display":"Confirmed"}]},"category":[{"coding":[{"system":"http://terminology.hl7.org/CodeSystem/condition-category","code":"problem-list-item","display":"Problem List Item"}]}],"code":{"coding":[{"system":"http://snomed.info/sct","code":"443136000"}]},"subject":{"reference":"Patient/ba6d787f-d15f-4e22-8ee4-30c12d53aa37"},"onsetDateTime":"2025-01-02T14:30:00.000Z"},"request":{"method":"PUT","url":"Condition/9a0b996e-aab2-4749-a211-28328ae9f018"}},{"fullUrl":"https://madie.cms.gov/Coverage/60099ac41c76ba64612b0613","resource":{"resourceType":"Coverage","id":"f20fc88b-38b7-473e-9dc3-5d8c2155ea8a","meta":{"profile":["http://hl7.org/fhir/us/qicore/StructureDefinition/qicore-coverage"]},"status":"active","beneficiary":{"reference":"Patient/ba6d787f-d15f-4e22-8ee4-30c12d53aa37"},"period":{"start":"1991-01-10T08:00:00.000Z"},"payor":[{"reference":"Organization/26111c91-b0e2-476c-a20b-e3f39799f8f5"}]},"request":{"method":"PUT","url":"Coverage/f20fc88b-38b7-473e-9dc3-5d8c2155ea8a"}},{"fullUrl":"https://madie.cms.gov/Organization/123456","resource":{"resourceType":"Organization","id":"26111c91-b0e2-476c-a20b-e3f39799f8f5","meta":{"profile":["http://hl7.org/fhir/us/qicore/StructureDefinition/qicore-organization"]},"identifier":[{"use":"temp","system":"urn:oid:2.16.840.1.113883.4.4","value":"21-3259825"}],"active":true,"type":[{"coding":[{"system":"http://terminology.hl7.org/CodeSystem/organization-type","code":"pay","display":"Payer"}]}],"name":"Blue Cross Blue Shield of Texas","telecom":[{"system":"phone","value":"(+1) 972-766-6900"}],"address":[{"use":"billing","type":"postal","line":["P.O. Box 660044"],"city":"Dallas","state":"TX","postalCode":"75266-0044","country":"USA"}]},"request":{"method":"PUT","url":"Organization/26111c91-b0e2-476c-a20b-e3f39799f8f5"}},{"fullUrl":"https://madie.cms.gov/Practitioner/practitioner-123456","resource":{"resourceType":"Practitioner","id":"cfa28695-0981-4f61-9189-7e0c57ff481d","meta":{"profile":["http://hl7.org/fhir/us/qicore/StructureDefinition/qicore-practitioner"]},"identifier":[{"system":"http://hl7.org/fhir/sid/us-npi","value":"123456"}],"name":[{"family":"Evil","prefix":["Dr"]}]},"request":{"method":"PUT","url":"Practitioner/cfa28695-0981-4f61-9189-7e0c57ff481d"}},{"fullUrl":"https://madie.cms.gov/MeasureReport/0a45badc-be18-4f0a-9c1a-c38c7dd9b8b3","resource":{"resourceType":"MeasureReport","id":"0a45badc-be18-4f0a-9c1a-c38c7dd9b8b3","meta":{"profile":["http://hl7.org/fhir/us/cqfmeasures/StructureDefinition/test-case-cqfm"]},"contained":[{"resourceType":"Parameters","id":"2df9dfa3-d801-4b62-b431-e1d3c1c849a1-parameters","parameter":[{"name":"subject","valueString":"ba6d787f-d15f-4e22-8ee4-30c12d53aa37"}]}],"extension":[{"url":"http://hl7.org/fhir/us/cqfmeasures/StructureDefinition/cqfm-inputParameters","valueReference":{"reference":"#2df9dfa3-d801-4b62-b431-e1d3c1c849a1-parameters"}},{"url":"http://hl7.org/fhir/us/cqfmeasures/StructureDefinition/cqfm-testCaseDescription","valueMarkdown":"Patient with cancer diagnosis, but no encounter, no chemotherapy or radiation treatment management. \n"}],"modifierExtension":[{"url":"http://hl7.org/fhir/us/cqfmeasures/StructureDefinition/cqfm-isTestCase","valueBoolean":true}],"status":"complete","type":"individual","measure":"https://madie.cms.gov/Measure/OncologyPainIntensityQuantifiedFHIR","period":{"start":"2025-01-01","end":"2025-12-31"},"group":[{"population":[{"code":{"coding":[{"system":"http://terminology.hl7.org/CodeSystem/measure-population","code":"initial-population","display":"Initial Population"}]},"count":0},{"code":{"coding":[{"system":"http://terminology.hl7.org/CodeSystem/measure-population","code":"denominator","display":"Denominator"}]},"count":0},{"code":{"coding":[{"system":"http://terminology.hl7.org/CodeSystem/measure-population","code":"numerator","display":"Numerator"}]},"count":0}]},{"population":[{"code":{"coding":[{"system":"http://terminology.hl7.org/CodeSystem/measure-population","code":"initial-population","display":"Initial Population"}]},"count":0},{"code":{"coding":[{"system":"http://terminology.hl7.org/CodeSystem/measure-population","code":"denominator","display":"Denominator"}]},"count":0},{"code":{"coding":[{"system":"http://terminology.hl7.org/CodeSystem/measure-population","code":"numerator","display":"Numerator"}]},"count":0}]}]},"request":{"method":"PUT","url":"MeasureReport/0a45badc-be18-4f0a-9c1a-c38c7dd9b8b3"}}]}