{"resourceType":"Bundle","id":"tests-1e0e0760-4753-41f3-9638-424028d00381-bundle","type":"transaction","entry":[{"fullUrl":"https://madie.cms.gov/Patient/1e0e0760-4753-41f3-9638-424028d00381","resource":{"resourceType":"Patient","id":"1e0e0760-4753-41f3-9638-424028d00381","meta":{"profile":["http://hl7.org/fhir/us/qicore/StructureDefinition/qicore-patient"]},"text":{"status":"generated","div":"<div xmlns=\"http://www.w3.org/1999/xhtml\"><div class=\"hapiHeaderText\">CancerDxStartsAfterRadTx<b>IPPFailPop2</b></div><table class=\"hapiPropertyTable\"><tbody><tr><td>Identifier</td><td>b72e5f89763c87db67d9b2ca3d51e949</td></tr><tr><td>Date of birth</td><td><span>22 January 1921</span></td></tr></tbody></table></div>"},"extension":[{"url":"http://hl7.org/fhir/us/core/StructureDefinition/us-core-race","extension":[{"url":"ombCategory","valueCoding":{"system":"urn:oid:2.16.840.1.113883.6.238","code":"1002-5","display":"American Indian or Alaska Native","userSelected":true}},{"url":"text","valueString":"American Indian or Alaska Native"}]},{"url":"http://hl7.org/fhir/us/core/StructureDefinition/us-core-ethnicity","extension":[{"url":"ombCategory","valueCoding":{"system":"urn:oid:2.16.840.1.113883.6.238","code":"2135-2","display":"Hispanic or Latino","userSelected":true}},{"url":"text","valueString":"Hispanic or Latino"}]}],"identifier":[{"type":{"coding":[{"system":"http://terminology.hl7.org/CodeSystem/v2-0203","code":"MR"}]},"system":"https://bonnie-fhir.healthit.gov/","value":"62c880ec0111a60120dc21f4"}],"active":true,"name":[{"use":"usual","family":"IPPFailPop2","given":["CancerDxStartsAfterRadTx"]}],"gender":"female","birthDate":"1921-01-22"},"request":{"method":"PUT","url":"Patient/1e0e0760-4753-41f3-9638-424028d00381"}},{"fullUrl":"https://madie.cms.gov/Condition/5ca52603b8484613a555a8ea","resource":{"resourceType":"Condition","id":"02103937-8d70-405f-9cd5-b47951fa48b1","meta":{"profile":["http://hl7.org/fhir/us/qicore/StructureDefinition/qicore-condition"]},"clinicalStatus":{"coding":[{"system":"http://terminology.hl7.org/CodeSystem/condition-clinical","code":"active","display":"active","userSelected":true}]},"verificationStatus":{"coding":[{"system":"http://terminology.hl7.org/CodeSystem/condition-ver-status","code":"confirmed","display":"Confirmed"}]},"category":[{"coding":[{"system":"http://terminology.hl7.org/CodeSystem/condition-category","code":"problem-list-item","display":"Problem List Item"}]}],"code":{"coding":[{"system":"http://snomed.info/sct","code":"408644002"}]},"subject":{"reference":"Patient/1e0e0760-4753-41f3-9638-424028d00381"},"onsetDateTime":"2025-03-30T12:00:00.000Z"},"request":{"method":"PUT","url":"Condition/02103937-8d70-405f-9cd5-b47951fa48b1"}},{"fullUrl":"https://madie.cms.gov/Coverage/60099ac61c76ba64612b063a","resource":{"resourceType":"Coverage","id":"5c49783e-78d4-4481-a5d4-2063b1bc6fd0","meta":{"profile":["http://hl7.org/fhir/us/qicore/StructureDefinition/qicore-coverage"]},"status":"active","beneficiary":{"reference":"Patient/1e0e0760-4753-41f3-9638-424028d00381"},"period":{"start":"1921-01-22T08:00:00.000Z"},"payor":[{"reference":"Organization/26111c91-b0e2-476c-a20b-e3f39799f8f5"}]},"request":{"method":"PUT","url":"Coverage/5c49783e-78d4-4481-a5d4-2063b1bc6fd0"}},{"fullUrl":"https://madie.cms.gov/Encounter/5ca52603b8484613a555a8eb","resource":{"resourceType":"Encounter","id":"1f31c099-bc6a-4a81-b55e-43628ac0dbdb","meta":{"profile":["http://hl7.org/fhir/us/qicore/StructureDefinition/qicore-encounter"]},"status":"finished","class":{"system":"http://terminology.hl7.org/CodeSystem/v3-ActCode","code":"AMB","display":"ambulatory","userSelected":true},"type":[{"coding":[{"system":"http://www.ama-assn.org/go/cpt","version":"2023","code":"77427","userSelected":true}]}],"subject":{"reference":"Patient/1e0e0760-4753-41f3-9638-424028d00381"},"period":{"start":"2025-03-01T13:45:00.000Z","end":"2025-03-01T13:45:00.000Z"}},"request":{"method":"PUT","url":"Encounter/1f31c099-bc6a-4a81-b55e-43628ac0dbdb"}},{"fullUrl":"https://madie.cms.gov/Organization/123456","resource":{"resourceType":"Organization","id":"26111c91-b0e2-476c-a20b-e3f39799f8f5","meta":{"profile":["http://hl7.org/fhir/us/qicore/StructureDefinition/qicore-organization"]},"identifier":[{"use":"temp","system":"urn:oid:2.16.840.1.113883.4.4","value":"21-3259825"}],"active":true,"type":[{"coding":[{"system":"http://terminology.hl7.org/CodeSystem/organization-type","code":"pay","display":"Payer"}]}],"name":"Blue Cross Blue Shield of Texas","telecom":[{"system":"phone","value":"(+1) 972-766-6900"}],"address":[{"use":"billing","type":"postal","line":["P.O. Box 660044"],"city":"Dallas","state":"TX","postalCode":"75266-0044","country":"USA"}]},"request":{"method":"PUT","url":"Organization/26111c91-b0e2-476c-a20b-e3f39799f8f5"}},{"fullUrl":"https://madie.cms.gov/Practitioner/practitioner-123456","resource":{"resourceType":"Practitioner","id":"b20408c6-4890-4c84-9872-3130f17211f0","meta":{"profile":["http://hl7.org/fhir/us/qicore/StructureDefinition/qicore-practitioner"]},"identifier":[{"system":"http://hl7.org/fhir/sid/us-npi","value":"123456"}],"name":[{"family":"Evil","prefix":["Dr"]}]},"request":{"method":"PUT","url":"Practitioner/b20408c6-4890-4c84-9872-3130f17211f0"}},{"fullUrl":"https://madie.cms.gov/MeasureReport/48b89d54-79bb-4161-ae60-d5287a0e90de","resource":{"resourceType":"MeasureReport","id":"48b89d54-79bb-4161-ae60-d5287a0e90de","meta":{"profile":["http://hl7.org/fhir/us/cqfmeasures/StructureDefinition/test-case-cqfm"]},"contained":[{"resourceType":"Parameters","id":"2fc83ad2-5458-4c6f-a696-27061622568f-parameters","parameter":[{"name":"subject","valueString":"1e0e0760-4753-41f3-9638-424028d00381"}]}],"extension":[{"url":"http://hl7.org/fhir/us/cqfmeasures/StructureDefinition/cqfm-inputParameters","valueReference":{"reference":"#2fc83ad2-5458-4c6f-a696-27061622568f-parameters"}},{"url":"http://hl7.org/fhir/us/cqfmeasures/StructureDefinition/cqfm-testCaseDescription","valueMarkdown":"Patient with cancer diagnosis that starts after radiation treatment management.\n"}],"modifierExtension":[{"url":"http://hl7.org/fhir/us/cqfmeasures/StructureDefinition/cqfm-isTestCase","valueBoolean":true}],"status":"complete","type":"individual","measure":"https://madie.cms.gov/Measure/OncologyPainIntensityQuantifiedFHIR","period":{"start":"2025-01-01","end":"2025-12-31"},"group":[{"population":[{"code":{"coding":[{"system":"http://terminology.hl7.org/CodeSystem/measure-population","code":"initial-population","display":"Initial Population"}]},"count":0},{"code":{"coding":[{"system":"http://terminology.hl7.org/CodeSystem/measure-population","code":"denominator","display":"Denominator"}]},"count":0},{"code":{"coding":[{"system":"http://terminology.hl7.org/CodeSystem/measure-population","code":"numerator","display":"Numerator"}]},"count":0}]},{"population":[{"code":{"coding":[{"system":"http://terminology.hl7.org/CodeSystem/measure-population","code":"initial-population","display":"Initial Population"}]},"count":0},{"code":{"coding":[{"system":"http://terminology.hl7.org/CodeSystem/measure-population","code":"denominator","display":"Denominator"}]},"count":0},{"code":{"coding":[{"system":"http://terminology.hl7.org/CodeSystem/measure-population","code":"numerator","display":"Numerator"}]},"count":0}]}]},"request":{"method":"PUT","url":"MeasureReport/48b89d54-79bb-4161-ae60-d5287a0e90de"}}]}