{"resourceType":"Bundle","id":"tests-e085c0d1-a736-4596-a5cd-7de785d0d144-bundle","type":"transaction","entry":[{"fullUrl":"https://madie.cms.gov/Patient/e085c0d1-a736-4596-a5cd-7de785d0d144","resource":{"resourceType":"Patient","id":"e085c0d1-a736-4596-a5cd-7de785d0d144","meta":{"profile":["http://hl7.org/fhir/us/qicore/StructureDefinition/qicore-patient"]},"text":{"status":"generated","div":"<div xmlns=\"http://www.w3.org/1999/xhtml\"><div class=\"hapiHeaderText\">PainAssessStartsSameTimeAsRadTx<b>NUMERPASSPOP2</b></div><table class=\"hapiPropertyTable\"><tbody><tr><td>Identifier</td><td>5bf13d9f68257ca8bfe6d3b34a3d7b01</td></tr><tr><td>Date of birth</td><td><span>25 April 1975</span></td></tr></tbody></table></div>"},"extension":[{"url":"http://hl7.org/fhir/us/core/StructureDefinition/us-core-race","extension":[{"url":"ombCategory","valueCoding":{"system":"urn:oid:2.16.840.1.113883.6.238","code":"1002-5","display":"American Indian or Alaska Native","userSelected":true}},{"url":"text","valueString":"American Indian or Alaska Native"}]},{"url":"http://hl7.org/fhir/us/core/StructureDefinition/us-core-ethnicity","extension":[{"url":"ombCategory","valueCoding":{"system":"urn:oid:2.16.840.1.113883.6.238","code":"2135-2","display":"Hispanic or Latino","userSelected":true}},{"url":"text","valueString":"Hispanic or Latino"}]}],"identifier":[{"type":{"coding":[{"system":"http://terminology.hl7.org/CodeSystem/v2-0203","code":"MR"}]},"system":"https://bonnie-fhir.healthit.gov/","value":"62c880ed0111a60120dc2215"}],"active":true,"name":[{"use":"usual","family":"NUMERPassPop2","given":["PainAssessStartsSameTimeAsRadTx"]}],"gender":"male","birthDate":"1975-04-25"},"request":{"method":"PUT","url":"Patient/e085c0d1-a736-4596-a5cd-7de785d0d144"}},{"fullUrl":"https://madie.cms.gov/Observation/5ca5260ab8484613a555a951","resource":{"resourceType":"Observation","id":"8a708f4b-7105-47bc-8d79-736463c9f8ac","meta":{"profile":["http://hl7.org/fhir/us/qicore/StructureDefinition/qicore-observation"]},"status":"final","category":[{"coding":[{"system":"http://terminology.hl7.org/CodeSystem/observation-category","code":"survey","display":"Survey"}],"text":"Survey"}],"code":{"coding":[{"system":"http://loinc.org","code":"38208-5"}]},"subject":{"reference":"Patient/e085c0d1-a736-4596-a5cd-7de785d0d144"},"effectiveDateTime":"2025-05-06T12:45:00.000+00:00","valueInteger":9},"request":{"method":"PUT","url":"Observation/8a708f4b-7105-47bc-8d79-736463c9f8ac"}},{"fullUrl":"https://madie.cms.gov/Condition/5ca5260ab8484613a555a94e","resource":{"resourceType":"Condition","id":"0f31fe17-ca1c-45f7-877e-b8b8b3dc23d1","meta":{"profile":["http://hl7.org/fhir/us/qicore/StructureDefinition/qicore-condition"]},"clinicalStatus":{"coding":[{"system":"http://terminology.hl7.org/CodeSystem/condition-clinical","code":"active","display":"active","userSelected":true}]},"verificationStatus":{"coding":[{"system":"http://terminology.hl7.org/CodeSystem/condition-ver-status","code":"confirmed","display":"Confirmed"}]},"category":[{"coding":[{"system":"http://terminology.hl7.org/CodeSystem/condition-category","code":"problem-list-item","display":"Problem List Item"}]}],"code":{"coding":[{"system":"http://hl7.org/fhir/sid/icd-10-cm","code":"C22.0"}]},"subject":{"reference":"Patient/e085c0d1-a736-4596-a5cd-7de785d0d144"},"onsetDateTime":"2021-05-06T12:45:00.000Z"},"request":{"method":"PUT","url":"Condition/0f31fe17-ca1c-45f7-877e-b8b8b3dc23d1"}},{"fullUrl":"https://madie.cms.gov/Coverage/60099acc1c76ba64612b06af","resource":{"resourceType":"Coverage","id":"7a0fa13d-b3ee-43f9-a8b0-a71169bbbfbc","meta":{"profile":["http://hl7.org/fhir/us/qicore/StructureDefinition/qicore-coverage"]},"status":"active","beneficiary":{"reference":"Patient/e085c0d1-a736-4596-a5cd-7de785d0d144"},"period":{"start":"1975-04-25T08:00:00.000Z"},"payor":[{"reference":"Organization/26111c91-b0e2-476c-a20b-e3f39799f8f5"}]},"request":{"method":"PUT","url":"Coverage/7a0fa13d-b3ee-43f9-a8b0-a71169bbbfbc"}},{"fullUrl":"https://madie.cms.gov/Encounter/radiation-treatment-management-7c19","resource":{"resourceType":"Encounter","id":"6d16cc73-ff4b-4b62-84ff-d3a7e68f6d91","meta":{"profile":["http://hl7.org/fhir/us/qicore/StructureDefinition/qicore-encounter"]},"status":"finished","class":{"system":"http://terminology.hl7.org/CodeSystem/v3-ActCode","code":"AMB","display":"ambulatory","userSelected":true},"type":[{"coding":[{"system":"http://www.ama-assn.org/go/cpt","version":"2023","code":"77427","display":"Radiation treatment management, 5 treatments","userSelected":true}]}],"subject":{"reference":"Patient/e085c0d1-a736-4596-a5cd-7de785d0d144"},"period":{"start":"2025-05-06T12:45:00.000+00:00","end":"2025-05-06T13:00:00.000+00:00"}},"request":{"method":"PUT","url":"Encounter/6d16cc73-ff4b-4b62-84ff-d3a7e68f6d91"}},{"fullUrl":"https://madie.cms.gov/Organization/123456","resource":{"resourceType":"Organization","id":"26111c91-b0e2-476c-a20b-e3f39799f8f5","meta":{"profile":["http://hl7.org/fhir/us/qicore/StructureDefinition/qicore-organization"]},"identifier":[{"use":"temp","system":"urn:oid:2.16.840.1.113883.4.4","value":"21-3259825"}],"active":true,"type":[{"coding":[{"system":"http://terminology.hl7.org/CodeSystem/organization-type","code":"pay","display":"Payer"}]}],"name":"Blue Cross Blue Shield of Texas","telecom":[{"system":"phone","value":"(+1) 972-766-6900"}],"address":[{"use":"billing","type":"postal","line":["P.O. Box 660044"],"city":"Dallas","state":"TX","postalCode":"75266-0044","country":"USA"}]},"request":{"method":"PUT","url":"Organization/26111c91-b0e2-476c-a20b-e3f39799f8f5"}},{"fullUrl":"https://madie.cms.gov/Practitioner/practitioner-123456","resource":{"resourceType":"Practitioner","id":"dfae2281-57cc-4860-8e20-337bdf0df703","meta":{"profile":["http://hl7.org/fhir/us/qicore/StructureDefinition/qicore-practitioner"]},"identifier":[{"system":"http://hl7.org/fhir/sid/us-npi","value":"123456"}],"name":[{"family":"Evil","prefix":["Dr"]}]},"request":{"method":"PUT","url":"Practitioner/dfae2281-57cc-4860-8e20-337bdf0df703"}},{"fullUrl":"https://madie.cms.gov/MeasureReport/8ee4bafa-48b4-4b84-a29f-ee8ba22d4c50","resource":{"resourceType":"MeasureReport","id":"8ee4bafa-48b4-4b84-a29f-ee8ba22d4c50","meta":{"profile":["http://hl7.org/fhir/us/cqfmeasures/StructureDefinition/test-case-cqfm"]},"contained":[{"resourceType":"Parameters","id":"1573f464-17b3-45a2-9003-1de3dcdce4bd-parameters","parameter":[{"name":"subject","valueString":"e085c0d1-a736-4596-a5cd-7de785d0d144"}]}],"extension":[{"url":"http://hl7.org/fhir/us/cqfmeasures/StructureDefinition/cqfm-inputParameters","valueReference":{"reference":"#1573f464-17b3-45a2-9003-1de3dcdce4bd-parameters"}},{"url":"http://hl7.org/fhir/us/cqfmeasures/StructureDefinition/cqfm-testCaseDescription","valueMarkdown":"Patient with cancer diagnosis that overlaps radiation treatment management during measurement period. Pain intensity assessment was performed same date and time as the start of radiation treatment management encounter. "}],"modifierExtension":[{"url":"http://hl7.org/fhir/us/cqfmeasures/StructureDefinition/cqfm-isTestCase","valueBoolean":true}],"status":"complete","type":"individual","measure":"https://madie.cms.gov/Measure/OncologyPainIntensityQuantifiedFHIR","period":{"start":"2025-01-01","end":"2025-12-31"},"group":[{"population":[{"code":{"coding":[{"system":"http://terminology.hl7.org/CodeSystem/measure-population","code":"initial-population","display":"Initial Population"}]},"count":0},{"code":{"coding":[{"system":"http://terminology.hl7.org/CodeSystem/measure-population","code":"denominator","display":"Denominator"}]},"count":0},{"code":{"coding":[{"system":"http://terminology.hl7.org/CodeSystem/measure-population","code":"numerator","display":"Numerator"}]},"count":0}]},{"population":[{"code":{"coding":[{"system":"http://terminology.hl7.org/CodeSystem/measure-population","code":"initial-population","display":"Initial Population"}]},"count":1},{"code":{"coding":[{"system":"http://terminology.hl7.org/CodeSystem/measure-population","code":"denominator","display":"Denominator"}]},"count":1},{"code":{"coding":[{"system":"http://terminology.hl7.org/CodeSystem/measure-population","code":"numerator","display":"Numerator"}]},"count":1}]}]},"request":{"method":"PUT","url":"MeasureReport/8ee4bafa-48b4-4b84-a29f-ee8ba22d4c50"}}]}