{"resourceType":"Bundle","id":"tests-be20e6d8-f2f2-49d9-abc1-39e93ba36a1c-bundle","type":"transaction","entry":[{"fullUrl":"https://madie.cms.gov/Patient/be20e6d8-f2f2-49d9-abc1-39e93ba36a1c","resource":{"resourceType":"Patient","id":"be20e6d8-f2f2-49d9-abc1-39e93ba36a1c","meta":{"profile":["http://hl7.org/fhir/us/qicore/StructureDefinition/qicore-patient"]},"text":{"status":"generated","div":"<div xmlns=\"http://www.w3.org/1999/xhtml\"><div class=\"hapiHeaderText\">OVEncAndChemoAfterMP<b>IPPFAILPOP1</b></div><table class=\"hapiPropertyTable\"><tbody><tr><td>Identifier</td><td>ac1da6e0409af00bfb044b9882b4de26</td></tr><tr><td>Date of birth</td><td><span>12 March 1981</span></td></tr></tbody></table></div>"},"extension":[{"url":"http://hl7.org/fhir/us/core/StructureDefinition/us-core-race","extension":[{"url":"ombCategory","valueCoding":{"system":"urn:oid:2.16.840.1.113883.6.238","code":"1002-5","display":"American Indian or Alaska Native","userSelected":true}},{"url":"text","valueString":"American Indian or Alaska Native"}]},{"url":"http://hl7.org/fhir/us/core/StructureDefinition/us-core-ethnicity","extension":[{"url":"ombCategory","valueCoding":{"system":"urn:oid:2.16.840.1.113883.6.238","code":"2135-2","display":"Hispanic or Latino","userSelected":true}},{"url":"text","valueString":"Hispanic or Latino"}]}],"identifier":[{"type":{"coding":[{"system":"http://terminology.hl7.org/CodeSystem/v2-0203","code":"MR"}]},"system":"https://bonnie-fhir.healthit.gov/","value":"62c880ec0111a60120dc2201"}],"active":true,"name":[{"use":"usual","family":"IPPFailPop1","given":["EncAfterMP"]}],"gender":"female","birthDate":"1981-03-12"},"request":{"method":"PUT","url":"Patient/be20e6d8-f2f2-49d9-abc1-39e93ba36a1c"}},{"fullUrl":"https://madie.cms.gov/Condition/5ca52604b8484613a555a8ee","resource":{"resourceType":"Condition","id":"d08e99c4-0a17-46d3-bbee-fdca92937e7d","meta":{"profile":["http://hl7.org/fhir/us/qicore/StructureDefinition/qicore-condition"]},"clinicalStatus":{"coding":[{"system":"http://terminology.hl7.org/CodeSystem/condition-clinical","code":"remission","display":"remission"}]},"verificationStatus":{"coding":[{"system":"http://terminology.hl7.org/CodeSystem/condition-ver-status","code":"confirmed","display":"Confirmed"}]},"category":[{"coding":[{"system":"http://terminology.hl7.org/CodeSystem/condition-category","code":"problem-list-item","display":"Problem List Item"}]}],"code":{"coding":[{"system":"http://snomed.info/sct","code":"271323007"}]},"subject":{"reference":"Patient/be20e6d8-f2f2-49d9-abc1-39e93ba36a1c"},"onsetDateTime":"2025-12-21T13:30:00.000Z","abatementDateTime":"2025-12-30T14:15:00.000Z"},"request":{"method":"PUT","url":"Condition/d08e99c4-0a17-46d3-bbee-fdca92937e7d"}},{"fullUrl":"https://madie.cms.gov/Encounter/5ca52604b8484613a555a8ef","resource":{"resourceType":"Encounter","id":"bf3c7bbe-77cb-4eb3-8c57-1d9278f569d1","meta":{"profile":["http://hl7.org/fhir/us/qicore/StructureDefinition/qicore-encounter"]},"status":"finished","class":{"system":"http://terminology.hl7.org/CodeSystem/v3-ActCode","code":"AMB","display":"ambulatory","userSelected":true},"type":[{"coding":[{"system":"http://www.ama-assn.org/go/cpt","code":"99205"}]}],"subject":{"reference":"Patient/be20e6d8-f2f2-49d9-abc1-39e93ba36a1c"},"period":{"start":"2025-01-02T14:30:00.000Z","end":"2025-01-02T14:30:00.000Z"}},"request":{"method":"PUT","url":"Encounter/bf3c7bbe-77cb-4eb3-8c57-1d9278f569d1"}},{"fullUrl":"https://madie.cms.gov/Coverage/60099ac41c76ba64612b0616","resource":{"resourceType":"Coverage","id":"f4e8fb30-6b9a-43b3-aa69-4d7e8615d2d7","meta":{"profile":["http://hl7.org/fhir/us/qicore/StructureDefinition/qicore-coverage"]},"status":"active","beneficiary":{"reference":"Patient/be20e6d8-f2f2-49d9-abc1-39e93ba36a1c"},"period":{"start":"1981-03-12T08:00:00.000Z"},"payor":[{"reference":"Organization/26111c91-b0e2-476c-a20b-e3f39799f8f5"}]},"request":{"method":"PUT","url":"Coverage/f4e8fb30-6b9a-43b3-aa69-4d7e8615d2d7"}},{"fullUrl":"https://madie.cms.gov/Procedure/5ca52604b8484613a555a8f0","resource":{"resourceType":"Procedure","id":"819d31f2-3850-4f2e-8872-df3f7e38a9b9","meta":{"profile":["http://hl7.org/fhir/us/qicore/StructureDefinition/qicore-procedure"]},"extension":[{"url":"http://hl7.org/fhir/us/qicore/StructureDefinition/qicore-recorded","valueDateTime":"2025-12-22T14:50:00.000Z"}],"status":"completed","code":{"coding":[{"system":"http://www.ama-assn.org/go/cpt","code":"96405"}]},"subject":{"reference":"Patient/be20e6d8-f2f2-49d9-abc1-39e93ba36a1c"},"performedPeriod":{"start":"2025-12-22T14:45:00.000Z","end":"2025-12-22T14:45:00.000Z"}},"request":{"method":"PUT","url":"Procedure/819d31f2-3850-4f2e-8872-df3f7e38a9b9"}},{"fullUrl":"https://madie.cms.gov/Procedure/5ca52604b8484613a555a8f1","resource":{"resourceType":"Procedure","id":"1cd00532-8e93-470c-b1c7-be435601e531","meta":{"profile":["http://hl7.org/fhir/us/qicore/StructureDefinition/qicore-procedure"]},"extension":[{"url":"http://hl7.org/fhir/us/qicore/StructureDefinition/qicore-recorded","valueDateTime":"2025-01-03T15:35:00.000Z"}],"status":"completed","code":{"coding":[{"system":"http://www.ama-assn.org/go/cpt","code":"96405"}]},"subject":{"reference":"Patient/be20e6d8-f2f2-49d9-abc1-39e93ba36a1c"},"performedPeriod":{"start":"2025-01-03T15:00:00.000Z","end":"2025-01-03T15:00:00.000Z"}},"request":{"method":"PUT","url":"Procedure/1cd00532-8e93-470c-b1c7-be435601e531"}},{"fullUrl":"https://madie.cms.gov/Organization/123456","resource":{"resourceType":"Organization","id":"26111c91-b0e2-476c-a20b-e3f39799f8f5","meta":{"profile":["http://hl7.org/fhir/us/qicore/StructureDefinition/qicore-organization"]},"identifier":[{"use":"temp","system":"urn:oid:2.16.840.1.113883.4.4","value":"21-3259825"}],"active":true,"type":[{"coding":[{"system":"http://terminology.hl7.org/CodeSystem/organization-type","code":"pay","display":"Payer"}]}],"name":"Blue Cross Blue Shield of Texas","telecom":[{"system":"phone","value":"(+1) 972-766-6900"}],"address":[{"use":"billing","type":"postal","line":["P.O. Box 660044"],"city":"Dallas","state":"TX","postalCode":"75266-0044","country":"USA"}]},"request":{"method":"PUT","url":"Organization/26111c91-b0e2-476c-a20b-e3f39799f8f5"}},{"fullUrl":"https://madie.cms.gov/Practitioner/practitioner-123456","resource":{"resourceType":"Practitioner","id":"9a2fbbd6-3a06-4474-ad6f-8dd9b6b6bd1f","meta":{"profile":["http://hl7.org/fhir/us/qicore/StructureDefinition/qicore-practitioner"]},"identifier":[{"system":"http://hl7.org/fhir/sid/us-npi","value":"123456"}],"name":[{"family":"Evil","prefix":["Dr"]}]},"request":{"method":"PUT","url":"Practitioner/9a2fbbd6-3a06-4474-ad6f-8dd9b6b6bd1f"}},{"fullUrl":"https://madie.cms.gov/MeasureReport/96ae20ed-0d62-4c2b-8c68-b289177105de","resource":{"resourceType":"MeasureReport","id":"96ae20ed-0d62-4c2b-8c68-b289177105de","meta":{"profile":["http://hl7.org/fhir/us/cqfmeasures/StructureDefinition/test-case-cqfm"]},"contained":[{"resourceType":"Parameters","id":"a7b15c9c-47c6-49be-9dbd-f6da99e65240-parameters","parameter":[{"name":"subject","valueString":"be20e6d8-f2f2-49d9-abc1-39e93ba36a1c"}]}],"extension":[{"url":"http://hl7.org/fhir/us/cqfmeasures/StructureDefinition/cqfm-inputParameters","valueReference":{"reference":"#a7b15c9c-47c6-49be-9dbd-f6da99e65240-parameters"}},{"url":"http://hl7.org/fhir/us/cqfmeasures/StructureDefinition/cqfm-testCaseDescription","valueMarkdown":"Patient with cancer diagnosis that overlaps the office visit. Office visit occurs after the measurement period."}],"modifierExtension":[{"url":"http://hl7.org/fhir/us/cqfmeasures/StructureDefinition/cqfm-isTestCase","valueBoolean":true}],"status":"complete","type":"individual","measure":"https://madie.cms.gov/Measure/OncologyPainIntensityQuantifiedFHIR","period":{"start":"2025-01-01","end":"2025-12-31"},"group":[{"population":[{"code":{"coding":[{"system":"http://terminology.hl7.org/CodeSystem/measure-population","code":"initial-population","display":"Initial Population"}]},"count":0},{"code":{"coding":[{"system":"http://terminology.hl7.org/CodeSystem/measure-population","code":"denominator","display":"Denominator"}]},"count":0},{"code":{"coding":[{"system":"http://terminology.hl7.org/CodeSystem/measure-population","code":"numerator","display":"Numerator"}]},"count":0}]},{"population":[{"code":{"coding":[{"system":"http://terminology.hl7.org/CodeSystem/measure-population","code":"initial-population","display":"Initial Population"}]},"count":0},{"code":{"coding":[{"system":"http://terminology.hl7.org/CodeSystem/measure-population","code":"denominator","display":"Denominator"}]},"count":0},{"code":{"coding":[{"system":"http://terminology.hl7.org/CodeSystem/measure-population","code":"numerator","display":"Numerator"}]},"count":0}]}]},"request":{"method":"PUT","url":"MeasureReport/96ae20ed-0d62-4c2b-8c68-b289177105de"}}]}