{"resourceType":"Bundle","id":"tests-719a6ae4-ac86-406f-a762-380383e4a74d-bundle","type":"transaction","entry":[{"fullUrl":"https://madie.cms.gov/Patient/719a6ae4-ac86-406f-a762-380383e4a74d","resource":{"resourceType":"Patient","id":"719a6ae4-ac86-406f-a762-380383e4a74d","meta":{"profile":["http://hl7.org/fhir/us/qicore/StructureDefinition/qicore-patient"]},"text":{"status":"generated","div":"<div xmlns=\"http://www.w3.org/1999/xhtml\"><div class=\"hapiHeaderText\">MultEp2Num1Den2<b>NUMERPassPop1</b></div><table class=\"hapiPropertyTable\"><tbody><tr><td>Identifier</td><td>3d64e5f7a37d9e8f441d6730bc0bb02c10b4ee6481741cad529c3ff180eab3d3</td></tr><tr><td>Date of birth</td><td><span>13 May 1937</span></td></tr></tbody></table></div>"},"extension":[{"url":"http://hl7.org/fhir/us/core/StructureDefinition/us-core-race","extension":[{"url":"ombCategory","valueCoding":{"system":"urn:oid:2.16.840.1.113883.6.238","code":"1002-5","display":"American Indian or Alaska Native","userSelected":true}},{"url":"text","valueString":"American Indian or Alaska Native"}]},{"url":"http://hl7.org/fhir/us/core/StructureDefinition/us-core-ethnicity","extension":[{"url":"ombCategory","valueCoding":{"system":"urn:oid:2.16.840.1.113883.6.238","code":"2135-2","display":"Hispanic or Latino","userSelected":true}},{"url":"text","valueString":"Hispanic or Latino"}]}],"identifier":[{"type":{"coding":[{"system":"http://terminology.hl7.org/CodeSystem/v2-0203","code":"MR"}]},"system":"https://bonnie-fhir.healthit.gov/","value":"62c880ec0111a60120dc21f0"}],"active":true,"name":[{"use":"usual","family":"NUMERPassPop1","given":["MultEp1Num1Den2"]}],"gender":"female","birthDate":"1937-05-13"},"request":{"method":"PUT","url":"Patient/719a6ae4-ac86-406f-a762-380383e4a74d"}},{"fullUrl":"https://madie.cms.gov/Observation/5ca5260fb8484613a555a9c0","resource":{"resourceType":"Observation","id":"32e96757-71af-49cc-a58b-03ee07af3635","meta":{"profile":["http://hl7.org/fhir/us/qicore/StructureDefinition/qicore-observation"]},"status":"final","category":[{"coding":[{"system":"http://terminology.hl7.org/CodeSystem/observation-category","code":"survey","display":"Survey"}],"text":"Survey"}],"code":{"coding":[{"system":"http://loinc.org","code":"38208-5","display":"Pain severity - Reported"}],"text":"Pain severity - Reported"},"subject":{"reference":"Patient/719a6ae4-ac86-406f-a762-380383e4a74d"},"effectiveDateTime":"2025-03-03T14:00:00.000+00:00","valueInteger":10},"request":{"method":"PUT","url":"Observation/32e96757-71af-49cc-a58b-03ee07af3635"}},{"fullUrl":"https://madie.cms.gov/Observation/5ca5260fb8484613a555a9c2","resource":{"resourceType":"Observation","id":"21c40792-75ec-4ad1-a5df-3496ef1e03b8","meta":{"profile":["http://hl7.org/fhir/us/qicore/StructureDefinition/qicore-observation"]},"status":"final","category":[{"coding":[{"system":"http://terminology.hl7.org/CodeSystem/observation-category","code":"survey","display":"Survey"}],"text":"Survey"}],"code":{"coding":[{"system":"http://loinc.org","code":"38208-5","display":"Pain severity - Reported"}],"text":"Pain severity - Reported"},"subject":{"reference":"Patient/719a6ae4-ac86-406f-a762-380383e4a74d"},"effectiveDateTime":"2025-05-22T08:00:00.000+00:00"},"request":{"method":"PUT","url":"Observation/21c40792-75ec-4ad1-a5df-3496ef1e03b8"}},{"fullUrl":"https://madie.cms.gov/Condition/5ca5260fb8484613a555a9b7","resource":{"resourceType":"Condition","id":"1e0b778b-99dc-4b31-a769-912e9d2e1e69","meta":{"profile":["http://hl7.org/fhir/us/qicore/StructureDefinition/qicore-condition"]},"clinicalStatus":{"coding":[{"system":"http://terminology.hl7.org/CodeSystem/condition-clinical","code":"active","display":"active","userSelected":true}]},"verificationStatus":{"coding":[{"system":"http://terminology.hl7.org/CodeSystem/condition-ver-status","code":"confirmed","display":"Confirmed"}]},"category":[{"coding":[{"system":"http://terminology.hl7.org/CodeSystem/condition-category","code":"problem-list-item","display":"Problem List Item"}]}],"code":{"coding":[{"system":"http://hl7.org/fhir/sid/icd-10-cm","code":"C00.0"}]},"subject":{"reference":"Patient/719a6ae4-ac86-406f-a762-380383e4a74d"},"onsetDateTime":"2023-11-01T13:30:00.000Z"},"request":{"method":"PUT","url":"Condition/1e0b778b-99dc-4b31-a769-912e9d2e1e69"}},{"fullUrl":"https://madie.cms.gov/Encounter/5ca5260fb8484613a555a9b8","resource":{"resourceType":"Encounter","id":"57112b30-7db8-4a0c-92cf-5918c9f3e92b","meta":{"profile":["http://hl7.org/fhir/us/qicore/StructureDefinition/qicore-encounter"]},"status":"finished","class":{"system":"http://terminology.hl7.org/CodeSystem/v3-ActCode","code":"AMB","display":"ambulatory","userSelected":true},"type":[{"coding":[{"system":"http://snomed.info/sct","code":"185463005"}]}],"subject":{"reference":"Patient/719a6ae4-ac86-406f-a762-380383e4a74d"},"period":{"start":"2025-01-30T14:00:00.000Z","end":"2025-01-30T15:00:00.000Z"}},"request":{"method":"PUT","url":"Encounter/57112b30-7db8-4a0c-92cf-5918c9f3e92b"}},{"fullUrl":"https://madie.cms.gov/Encounter/5ca5260fb8484613a555a9b9","resource":{"resourceType":"Encounter","id":"dd94267e-eb8d-4363-9ca7-fc3fca4f6caf","meta":{"profile":["http://hl7.org/fhir/us/qicore/StructureDefinition/qicore-encounter"]},"status":"finished","class":{"system":"http://terminology.hl7.org/CodeSystem/v3-ActCode","code":"AMB","display":"ambulatory","userSelected":true},"type":[{"coding":[{"system":"http://snomed.info/sct","code":"185463005"}]}],"subject":{"reference":"Patient/719a6ae4-ac86-406f-a762-380383e4a74d"},"period":{"start":"2025-03-03T13:30:00.000Z","end":"2025-03-03T14:30:00.000Z"}},"request":{"method":"PUT","url":"Encounter/dd94267e-eb8d-4363-9ca7-fc3fca4f6caf"}},{"fullUrl":"https://madie.cms.gov/Encounter/5ca5260fb8484613a555a9ba","resource":{"resourceType":"Encounter","id":"636479c3-cd58-4585-8fb2-888ad065165e","meta":{"profile":["http://hl7.org/fhir/us/qicore/StructureDefinition/qicore-encounter"]},"status":"finished","class":{"system":"http://terminology.hl7.org/CodeSystem/v3-ActCode","code":"AMB","display":"ambulatory","userSelected":true},"type":[{"coding":[{"system":"http://www.ama-assn.org/go/cpt","code":"99203"}]}],"subject":{"reference":"Patient/719a6ae4-ac86-406f-a762-380383e4a74d"},"period":{"start":"2025-05-30T12:45:00.000Z","end":"2025-05-30T13:45:00.000Z"}},"request":{"method":"PUT","url":"Encounter/636479c3-cd58-4585-8fb2-888ad065165e"}},{"fullUrl":"https://madie.cms.gov/Encounter/5ca5260fb8484613a555a9bb","resource":{"resourceType":"Encounter","id":"0763fae8-718d-4bb6-b129-39f6830f85fd","meta":{"profile":["http://hl7.org/fhir/us/qicore/StructureDefinition/qicore-encounter"]},"status":"finished","class":{"system":"http://terminology.hl7.org/CodeSystem/v3-ActCode","code":"AMB","display":"ambulatory","userSelected":true},"type":[{"coding":[{"system":"http://www.ama-assn.org/go/cpt","code":"99202"}]}],"subject":{"reference":"Patient/719a6ae4-ac86-406f-a762-380383e4a74d"},"period":{"start":"2025-07-03T10:45:00.000Z","end":"2025-07-03T11:45:00.000Z"}},"request":{"method":"PUT","url":"Encounter/0763fae8-718d-4bb6-b129-39f6830f85fd"}},{"fullUrl":"https://madie.cms.gov/Coverage/60099aca1c76ba64612b0685","resource":{"resourceType":"Coverage","id":"1fb1ed20-221b-4c67-bad1-b0d1deaf4e97","meta":{"profile":["http://hl7.org/fhir/us/qicore/StructureDefinition/qicore-coverage"]},"status":"active","beneficiary":{"reference":"Patient/719a6ae4-ac86-406f-a762-380383e4a74d"},"period":{"start":"1937-05-13T08:00:00.000Z"},"payor":[{"reference":"Organization/26111c91-b0e2-476c-a20b-e3f39799f8f5"}]},"request":{"method":"PUT","url":"Coverage/1fb1ed20-221b-4c67-bad1-b0d1deaf4e97"}},{"fullUrl":"https://madie.cms.gov/Procedure/5ca5260fb8484613a555a9bc","resource":{"resourceType":"Procedure","id":"f3928e7b-5f12-41b2-836a-4f82cc564d42","meta":{"profile":["http://hl7.org/fhir/us/qicore/StructureDefinition/qicore-procedure"]},"extension":[{"url":"http://hl7.org/fhir/us/qicore/StructureDefinition/qicore-recorded","valueDateTime":"2025-02-27T11:35:00.000Z"}],"status":"completed","code":{"coding":[{"system":"http://www.ama-assn.org/go/cpt","code":"96409"}]},"subject":{"reference":"Patient/719a6ae4-ac86-406f-a762-380383e4a74d"},"performedPeriod":{"start":"2025-02-27T11:30:00.000Z","end":"2025-02-27T11:30:00.000Z"}},"request":{"method":"PUT","url":"Procedure/f3928e7b-5f12-41b2-836a-4f82cc564d42"}},{"fullUrl":"https://madie.cms.gov/Procedure/5ca5260fb8484613a555a9bd","resource":{"resourceType":"Procedure","id":"b6ce0a54-ef6c-4130-940b-5ad4df5a9f82","meta":{"profile":["http://hl7.org/fhir/us/qicore/StructureDefinition/qicore-procedure"]},"extension":[{"url":"http://hl7.org/fhir/us/qicore/StructureDefinition/qicore-recorded","valueDateTime":"2025-04-01T12:35:00.000Z"}],"status":"completed","code":{"coding":[{"system":"http://www.ama-assn.org/go/cpt","code":"96409"}]},"subject":{"reference":"Patient/719a6ae4-ac86-406f-a762-380383e4a74d"},"performedPeriod":{"start":"2025-04-01T12:30:00.000Z","end":"2025-04-01T12:30:00.000Z"}},"request":{"method":"PUT","url":"Procedure/b6ce0a54-ef6c-4130-940b-5ad4df5a9f82"}},{"fullUrl":"https://madie.cms.gov/Procedure/5ca5260fb8484613a555a9be","resource":{"resourceType":"Procedure","id":"cf40c5cf-26ef-43c0-8b68-43930b4b226f","meta":{"profile":["http://hl7.org/fhir/us/qicore/StructureDefinition/qicore-procedure"]},"extension":[{"url":"http://hl7.org/fhir/us/qicore/StructureDefinition/qicore-recorded","valueDateTime":"2025-05-30T12:35:00.000Z"}],"status":"completed","code":{"coding":[{"system":"http://snomed.info/sct","code":"169396008"}]},"subject":{"reference":"Patient/719a6ae4-ac86-406f-a762-380383e4a74d"},"performedPeriod":{"start":"2025-05-30T12:45:00.000Z","end":"2025-05-30T13:45:00.000Z"}},"request":{"method":"PUT","url":"Procedure/cf40c5cf-26ef-43c0-8b68-43930b4b226f"}},{"fullUrl":"https://madie.cms.gov/Procedure/5ca5260fb8484613a555a9bf","resource":{"resourceType":"Procedure","id":"1f16e48f-2cc7-4f84-a675-d47ef61509c5","meta":{"profile":["http://hl7.org/fhir/us/qicore/StructureDefinition/qicore-procedure"]},"extension":[{"url":"http://hl7.org/fhir/us/qicore/StructureDefinition/qicore-recorded","valueDateTime":"2025-06-04T12:35:00.000Z"}],"status":"completed","code":{"coding":[{"system":"http://www.ama-assn.org/go/cpt","code":"51720"}]},"subject":{"reference":"Patient/719a6ae4-ac86-406f-a762-380383e4a74d"},"performedPeriod":{"start":"2025-06-04T15:30:00.000Z","end":"2025-06-04T15:30:00.000Z"}},"request":{"method":"PUT","url":"Procedure/1f16e48f-2cc7-4f84-a675-d47ef61509c5"}},{"fullUrl":"https://madie.cms.gov/Organization/123456","resource":{"resourceType":"Organization","id":"26111c91-b0e2-476c-a20b-e3f39799f8f5","meta":{"profile":["http://hl7.org/fhir/us/qicore/StructureDefinition/qicore-organization"]},"identifier":[{"use":"temp","system":"urn:oid:2.16.840.1.113883.4.4","value":"21-3259825"}],"active":true,"type":[{"coding":[{"system":"http://terminology.hl7.org/CodeSystem/organization-type","code":"pay","display":"Payer"}]}],"name":"Blue Cross Blue Shield of Texas","telecom":[{"system":"phone","value":"(+1) 972-766-6900"}],"address":[{"use":"billing","type":"postal","line":["P.O. Box 660044"],"city":"Dallas","state":"TX","postalCode":"75266-0044","country":"USA"}]},"request":{"method":"PUT","url":"Organization/26111c91-b0e2-476c-a20b-e3f39799f8f5"}},{"fullUrl":"https://madie.cms.gov/Practitioner/practitioner-123456","resource":{"resourceType":"Practitioner","id":"8fb119a6-d70e-47e2-89ac-16f0ab3cfc25","meta":{"profile":["http://hl7.org/fhir/us/qicore/StructureDefinition/qicore-practitioner"]},"identifier":[{"system":"http://hl7.org/fhir/sid/us-npi","value":"123456"}],"name":[{"family":"Evil","prefix":["Dr"]}]},"request":{"method":"PUT","url":"Practitioner/8fb119a6-d70e-47e2-89ac-16f0ab3cfc25"}},{"fullUrl":"https://madie.cms.gov/MeasureReport/9e972d16-b4f6-4625-9f28-c926ee1126d8","resource":{"resourceType":"MeasureReport","id":"9e972d16-b4f6-4625-9f28-c926ee1126d8","meta":{"profile":["http://hl7.org/fhir/us/cqfmeasures/StructureDefinition/test-case-cqfm"]},"contained":[{"resourceType":"Parameters","id":"9d5fda4b-5686-4ea6-8446-280fd247e8e2-parameters","parameter":[{"name":"subject","valueString":"719a6ae4-ac86-406f-a762-380383e4a74d"}]}],"extension":[{"url":"http://hl7.org/fhir/us/cqfmeasures/StructureDefinition/cqfm-inputParameters","valueReference":{"reference":"#9d5fda4b-5686-4ea6-8446-280fd247e8e2-parameters"}},{"url":"http://hl7.org/fhir/us/cqfmeasures/StructureDefinition/cqfm-testCaseDescription","valueMarkdown":"Patient with cancer diagnosis overlaps multiple office visits during measurement period. Multiple chemotherapy administrations prior and after office visits. Pain intensity assessment was performed during 1 office visit."}],"modifierExtension":[{"url":"http://hl7.org/fhir/us/cqfmeasures/StructureDefinition/cqfm-isTestCase","valueBoolean":true}],"status":"complete","type":"individual","measure":"https://madie.cms.gov/Measure/OncologyPainIntensityQuantifiedFHIR","period":{"start":"2025-01-01","end":"2025-12-31"},"group":[{"population":[{"code":{"coding":[{"system":"http://terminology.hl7.org/CodeSystem/measure-population","code":"initial-population","display":"Initial Population"}]},"count":2},{"code":{"coding":[{"system":"http://terminology.hl7.org/CodeSystem/measure-population","code":"denominator","display":"Denominator"}]},"count":2},{"code":{"coding":[{"system":"http://terminology.hl7.org/CodeSystem/measure-population","code":"numerator","display":"Numerator"}]},"count":1}]},{"population":[{"code":{"coding":[{"system":"http://terminology.hl7.org/CodeSystem/measure-population","code":"initial-population","display":"Initial Population"}]},"count":0},{"code":{"coding":[{"system":"http://terminology.hl7.org/CodeSystem/measure-population","code":"denominator","display":"Denominator"}]},"count":0},{"code":{"coding":[{"system":"http://terminology.hl7.org/CodeSystem/measure-population","code":"numerator","display":"Numerator"}]},"count":0}]}]},"request":{"method":"PUT","url":"MeasureReport/9e972d16-b4f6-4625-9f28-c926ee1126d8"}}]}