{"resourceType":"Bundle","id":"tests-ea08cba3-e556-496e-8aab-3b1e6f58fda0-bundle","type":"transaction","entry":[{"fullUrl":"https://madie.cms.gov/Patient/ea08cba3-e556-496e-8aab-3b1e6f58fda0","resource":{"resourceType":"Patient","id":"ea08cba3-e556-496e-8aab-3b1e6f58fda0","meta":{"profile":["http://hl7.org/fhir/us/qicore/StructureDefinition/qicore-patient"]},"text":{"status":"generated","div":"<div xmlns=\"http://www.w3.org/1999/xhtml\"><div class=\"hapiHeaderText\">NoChemoPriorEnc<b>IPPFailPop1</b></div><table class=\"hapiPropertyTable\"><tbody><tr><td>Identifier</td><td>ff3925b673f4a036a257dd80aff86021</td></tr><tr><td>Date of birth</td><td><span>16 July 1956</span></td></tr></tbody></table></div>"},"extension":[{"url":"http://hl7.org/fhir/us/core/StructureDefinition/us-core-race","extension":[{"url":"ombCategory","valueCoding":{"system":"urn:oid:2.16.840.1.113883.6.238","code":"1002-5","display":"American Indian or Alaska Native","userSelected":true}},{"url":"text","valueString":"American Indian or Alaska Native"}]},{"url":"http://hl7.org/fhir/us/core/StructureDefinition/us-core-ethnicity","extension":[{"url":"ombCategory","valueCoding":{"system":"urn:oid:2.16.840.1.113883.6.238","code":"2135-2","display":"Hispanic or Latino","userSelected":true}},{"url":"text","valueString":"Hispanic or Latino"}]}],"identifier":[{"type":{"coding":[{"system":"http://terminology.hl7.org/CodeSystem/v2-0203","code":"MR"}]},"system":"https://bonnie-fhir.healthit.gov/","value":"62c880ec0111a60120dc2203"}],"active":true,"name":[{"use":"usual","family":"IPPFailPop1","given":["NoChemoPriorEnc"]}],"gender":"male","birthDate":"1956-07-16"},"request":{"method":"PUT","url":"Patient/ea08cba3-e556-496e-8aab-3b1e6f58fda0"}},{"fullUrl":"https://madie.cms.gov/Condition/5ca5260ab8484613a555a94a","resource":{"resourceType":"Condition","id":"d46d49f5-136c-4aeb-b5a9-1ef37efce867","meta":{"profile":["http://hl7.org/fhir/us/qicore/StructureDefinition/qicore-condition"]},"clinicalStatus":{"coding":[{"system":"http://terminology.hl7.org/CodeSystem/condition-clinical","code":"remission","display":"remission"}]},"verificationStatus":{"coding":[{"system":"http://terminology.hl7.org/CodeSystem/condition-ver-status","code":"confirmed","display":"Confirmed"}]},"category":[{"coding":[{"system":"http://terminology.hl7.org/CodeSystem/condition-category","code":"problem-list-item","display":"Problem List Item"}]}],"code":{"coding":[{"system":"http://snomed.info/sct","code":"423746001"}]},"subject":{"reference":"Patient/ea08cba3-e556-496e-8aab-3b1e6f58fda0"},"onsetDateTime":"2021-06-27T13:40:00.000Z","abatementDateTime":"2025-03-27T13:40:00.000Z"},"request":{"method":"PUT","url":"Condition/d46d49f5-136c-4aeb-b5a9-1ef37efce867"}},{"fullUrl":"https://madie.cms.gov/Encounter/5ca5260ab8484613a555a94b","resource":{"resourceType":"Encounter","id":"28a8a54d-c7d4-4ecc-9dde-566e83597463","meta":{"profile":["http://hl7.org/fhir/us/qicore/StructureDefinition/qicore-encounter"]},"status":"finished","class":{"system":"http://terminology.hl7.org/CodeSystem/v3-ActCode","code":"AMB","display":"ambulatory","userSelected":true},"type":[{"coding":[{"system":"http://snomed.info/sct","code":"185463005"}]}],"subject":{"reference":"Patient/ea08cba3-e556-496e-8aab-3b1e6f58fda0"},"period":{"start":"2025-03-27T13:40:00.000Z","end":"2025-03-27T13:40:00.000Z"}},"request":{"method":"PUT","url":"Encounter/28a8a54d-c7d4-4ecc-9dde-566e83597463"}},{"fullUrl":"https://madie.cms.gov/Coverage/60099ac51c76ba64612b062b","resource":{"resourceType":"Coverage","id":"c3a66e5e-75cb-440f-977b-1f09ffa4c5b3","meta":{"profile":["http://hl7.org/fhir/us/qicore/StructureDefinition/qicore-coverage"]},"status":"active","beneficiary":{"reference":"Patient/ea08cba3-e556-496e-8aab-3b1e6f58fda0"},"period":{"start":"1956-07-16T08:00:00.000Z"},"payor":[{"reference":"Organization/26111c91-b0e2-476c-a20b-e3f39799f8f5"}]},"request":{"method":"PUT","url":"Coverage/c3a66e5e-75cb-440f-977b-1f09ffa4c5b3"}},{"fullUrl":"https://madie.cms.gov/Procedure/5ca5260ab8484613a555a94c","resource":{"resourceType":"Procedure","id":"53569cb0-c5fa-49e2-ad75-eb164d9bae9c","meta":{"profile":["http://hl7.org/fhir/us/qicore/StructureDefinition/qicore-procedure"]},"extension":[{"url":"http://hl7.org/fhir/us/qicore/StructureDefinition/qicore-recorded","valueDateTime":"2025-03-28T13:45:00.000Z"}],"status":"completed","code":{"coding":[{"system":"http://snomed.info/sct","code":"169396008"}]},"subject":{"reference":"Patient/ea08cba3-e556-496e-8aab-3b1e6f58fda0"},"performedPeriod":{"start":"2025-03-28T13:40:00.000Z","end":"2025-03-28T13:40:00.000Z"}},"request":{"method":"PUT","url":"Procedure/53569cb0-c5fa-49e2-ad75-eb164d9bae9c"}},{"fullUrl":"https://madie.cms.gov/Procedure/5ca5260ab8484613a555a94d","resource":{"resourceType":"Procedure","id":"98487eb3-c4ff-493e-9987-fc185565613c","meta":{"profile":["http://hl7.org/fhir/us/qicore/StructureDefinition/qicore-procedure"]},"extension":[{"url":"http://hl7.org/fhir/us/qicore/StructureDefinition/qicore-recorded","valueDateTime":"2025-04-03T15:55:00.000Z"}],"status":"completed","code":{"coding":[{"system":"http://snomed.info/sct","code":"84755001"}]},"subject":{"reference":"Patient/ea08cba3-e556-496e-8aab-3b1e6f58fda0"},"performedPeriod":{"start":"2025-04-03T15:50:00.000Z","end":"2025-04-03T15:50:00.000Z"}},"request":{"method":"PUT","url":"Procedure/98487eb3-c4ff-493e-9987-fc185565613c"}},{"fullUrl":"https://madie.cms.gov/Organization/123456","resource":{"resourceType":"Organization","id":"26111c91-b0e2-476c-a20b-e3f39799f8f5","meta":{"profile":["http://hl7.org/fhir/us/qicore/StructureDefinition/qicore-organization"]},"identifier":[{"use":"temp","system":"urn:oid:2.16.840.1.113883.4.4","value":"21-3259825"}],"active":true,"type":[{"coding":[{"system":"http://terminology.hl7.org/CodeSystem/organization-type","code":"pay","display":"Payer"}]}],"name":"Blue Cross Blue Shield of Texas","telecom":[{"system":"phone","value":"(+1) 972-766-6900"}],"address":[{"use":"billing","type":"postal","line":["P.O. Box 660044"],"city":"Dallas","state":"TX","postalCode":"75266-0044","country":"USA"}]},"request":{"method":"PUT","url":"Organization/26111c91-b0e2-476c-a20b-e3f39799f8f5"}},{"fullUrl":"https://madie.cms.gov/Practitioner/practitioner-123456","resource":{"resourceType":"Practitioner","id":"ca3ec045-721e-48ce-97e8-83b2a5d16ff5","meta":{"profile":["http://hl7.org/fhir/us/qicore/StructureDefinition/qicore-practitioner"]},"identifier":[{"system":"http://hl7.org/fhir/sid/us-npi","value":"123456"}],"name":[{"family":"Evil","prefix":["Dr"]}]},"request":{"method":"PUT","url":"Practitioner/ca3ec045-721e-48ce-97e8-83b2a5d16ff5"}},{"fullUrl":"https://madie.cms.gov/MeasureReport/00e8b51b-6f55-4438-bba0-080f14ebea35","resource":{"resourceType":"MeasureReport","id":"00e8b51b-6f55-4438-bba0-080f14ebea35","meta":{"profile":["http://hl7.org/fhir/us/cqfmeasures/StructureDefinition/test-case-cqfm"]},"contained":[{"resourceType":"Parameters","id":"3ef1d95b-64db-4c1b-a5d3-e07f90a3bc91-parameters","parameter":[{"name":"subject","valueString":"ea08cba3-e556-496e-8aab-3b1e6f58fda0"}]}],"extension":[{"url":"http://hl7.org/fhir/us/cqfmeasures/StructureDefinition/cqfm-inputParameters","valueReference":{"reference":"#3ef1d95b-64db-4c1b-a5d3-e07f90a3bc91-parameters"}},{"url":"http://hl7.org/fhir/us/cqfmeasures/StructureDefinition/cqfm-testCaseDescription","valueMarkdown":"Patient with cancer diagnosis ending at the start of the office visit during the measurement period. No chemotherapy administered prior to the office visit. \n"}],"modifierExtension":[{"url":"http://hl7.org/fhir/us/cqfmeasures/StructureDefinition/cqfm-isTestCase","valueBoolean":true}],"status":"complete","type":"individual","measure":"https://madie.cms.gov/Measure/OncologyPainIntensityQuantifiedFHIR","period":{"start":"2025-01-01","end":"2025-12-31"},"group":[{"population":[{"code":{"coding":[{"system":"http://terminology.hl7.org/CodeSystem/measure-population","code":"initial-population","display":"Initial Population"}]},"count":0},{"code":{"coding":[{"system":"http://terminology.hl7.org/CodeSystem/measure-population","code":"denominator","display":"Denominator"}]},"count":0},{"code":{"coding":[{"system":"http://terminology.hl7.org/CodeSystem/measure-population","code":"numerator","display":"Numerator"}]},"count":0}]},{"population":[{"code":{"coding":[{"system":"http://terminology.hl7.org/CodeSystem/measure-population","code":"initial-population","display":"Initial Population"}]},"count":0},{"code":{"coding":[{"system":"http://terminology.hl7.org/CodeSystem/measure-population","code":"denominator","display":"Denominator"}]},"count":0},{"code":{"coding":[{"system":"http://terminology.hl7.org/CodeSystem/measure-population","code":"numerator","display":"Numerator"}]},"count":0}]}]},"request":{"method":"PUT","url":"MeasureReport/00e8b51b-6f55-4438-bba0-080f14ebea35"}}]}