{
  "resourceType": "Bundle",
  "id": "62ec2fa6ea03a4ebacd6a087",
  "type": "transaction",
  "entry": [ {
    "fullUrl": "https://madie.cms.gov/Patient/1e7961df-78d4-4788-9e0e-594173ea45d0",
    "resource": {
      "resourceType": "Patient",
      "id": "1e7961df-78d4-4788-9e0e-594173ea45d0",
      "meta": {
        "profile": [ "http://hl7.org/fhir/us/qicore/StructureDefinition/qicore-patient" ]
      },
      "extension": [ {
        "url": "http://hl7.org/fhir/us/core/StructureDefinition/us-core-race",
        "extension": [ {
          "url": "ombCategory",
          "valueCoding": {
            "system": "urn:oid:2.16.840.1.113883.6.238",
            "code": "1002-5",
            "display": "American Indian or Alaska Native",
            "userSelected": true
          }
        }, {
          "url": "text",
          "valueString": "American Indian or Alaska Native"
        } ]
      }, {
        "url": "http://hl7.org/fhir/us/core/StructureDefinition/us-core-ethnicity",
        "extension": [ {
          "url": "ombCategory",
          "valueCoding": {
            "system": "urn:oid:2.16.840.1.113883.6.238",
            "code": "2135-2",
            "display": "Hispanic or Latino",
            "userSelected": true
          }
        }, {
          "url": "text",
          "valueString": "Hispanic or Latino"
        } ]
      } ],
      "identifier": [ {
        "type": {
          "coding": [ {
            "system": "http://terminology.hl7.org/CodeSystem/v2-0203",
            "code": "MR"
          } ]
        },
        "system": "https://bonnie-fhir.healthit.gov/",
        "value": "62ec2fa6ea03a4ebacd6a087"
      } ],
      "name": [ {
        "family": "NumerFail",
        "given": [ "MedsNoDocAfterEncPeriod" ]
      } ],
      "gender": "unknown",
      "birthDate": "1966-01-19"
    },
    "request": {
      "method": "POST",
      "url": "Patient/1e7961df-78d4-4788-9e0e-594173ea45d0"
    }
  }, {
    "fullUrl": "https://madie.cms.gov/Encounter/encounter-to-document-medications-a085",
    "resource": {
      "resourceType": "Encounter",
      "id": "encounter-to-document-medications-a085",
      "meta": {
        "profile": [ "http://hl7.org/fhir/us/qicore/StructureDefinition/qicore-encounter" ]
      },
      "status": "finished",
      "class": {
        "system": "http://terminology.hl7.org/CodeSystem/v3-ActCode",
        "code": "IMP",
        "display": "inpatient encounter"
      },
      "type": [ {
        "coding": [ {
          "system": "http://snomed.info/sct",
          "version": "2022-03",
          "code": "10197000",
          "display": "Psychiatric interview and evaluation (procedure)",
          "userSelected": true
        } ]
      } ],
      "subject": {
        "reference": "Patient/1e7961df-78d4-4788-9e0e-594173ea45d0"
      },
      "period": {
        "start": "2025-10-03T10:00:00.000+00:00",
        "end": "2025-10-03T11:15:00.000+00:00"
      }
    },
    "request": {
      "method": "POST",
      "url": "Encounter/encounter-to-document-medications-a085"
    }
  }, {
    "fullUrl": "https://madie.cms.gov/Task/documentation-of-current-medications-procedure-a086",
    "resource": {
      "resourceType": "Task",
      "id": "documentation-of-current-medications-procedure-a086",
      "meta": {
        "profile": [ "http://hl7.org/fhir/us/qicore/StructureDefinition/qicore-task" ]
      },
      "identifier": [ {
        "use": "official",
        "system": "http:/goodhealth.org/identifiers",
        "value": "20170201-002"
      } ],
      "status": "accepted",
      "intent": "proposal",
      "priority": "routine",
      "code": {
        "coding": [ {
          "system": "http://snomed.info/sct",
          "code": "428191000124101",
          "display": "Documentation of current medications (procedure)",
          "userSelected": true
        } ]
      },
      "for": {
        "reference": "Patient/1e7961df-78d4-4788-9e0e-594173ea45d0"
      },
      "executionPeriod": {
        "start": "2025-08-04T12:00:00+10:00"
      },
      "authoredOn": "2025-08-04T12:00:00.000+00:00"
    },
    "request": {
      "method": "POST",
      "url": "Task/documentation-of-current-medications-procedure-a086"
    }
  }, {
    "fullUrl": "https://madie.cms.gov/MeasureReport/01dff3f9-2849-4d70-9ce2-d1b4f71a94c5",
    "resource": {
      "resourceType": "MeasureReport",
      "id": "01dff3f9-2849-4d70-9ce2-d1b4f71a94c5",
      "meta": {
        "profile": [ "http://hl7.org/fhir/us/cqfmeasures/StructureDefinition/test-case-cqfm" ]
      },
      "contained": [ {
        "resourceType": "Parameters",
        "id": "596d2d00-4904-4832-b9f7-87535d7cee7a-parameters",
        "parameter": [ {
          "name": "subject",
          "valueString": "1e7961df-78d4-4788-9e0e-594173ea45d0"
        } ]
      } ],
      "extension": [ {
        "url": "http://hl7.org/fhir/us/cqfmeasures/StructureDefinition/cqfm-inputParameters",
        "valueReference": {
          "reference": "#596d2d00-4904-4832-b9f7-87535d7cee7a-parameters"
        }
      }, {
        "url": "http://hl7.org/fhir/us/cqfmeasures/StructureDefinition/cqfm-testCaseDescription",
        "valueMarkdown": "Qualifying encounter (status finished) during MP.   Medications documented after encounter period (edge test) status = received"
      } ],
      "modifierExtension": [ {
        "url": "http://hl7.org/fhir/us/cqfmeasures/StructureDefinition/cqfm-isTestCase",
        "valueBoolean": true
      } ],
      "status": "complete",
      "type": "individual",
      "measure": "https://madie.cms.gov/Measure/DocumentationofCurrentMedicationsFHIR",
      "period": {
        "start": "2025-01-01",
        "end": "2025-12-31"
      },
      "group": [ {
        "population": [ {
          "code": {
            "coding": [ {
              "system": "http://terminology.hl7.org/CodeSystem/measure-population",
              "code": "initial-population",
              "display": "Initial Population"
            } ]
          },
          "count": 1
        }, {
          "code": {
            "coding": [ {
              "system": "http://terminology.hl7.org/CodeSystem/measure-population",
              "code": "denominator",
              "display": "Denominator"
            } ]
          },
          "count": 1
        }, {
          "code": {
            "coding": [ {
              "system": "http://terminology.hl7.org/CodeSystem/measure-population",
              "code": "numerator",
              "display": "Numerator"
            } ]
          },
          "count": 0
        }, {
          "code": {
            "coding": [ {
              "system": "http://terminology.hl7.org/CodeSystem/measure-population",
              "code": "denominator-exception",
              "display": "Denominator Exception"
            } ]
          },
          "count": 0
        } ]
      } ],
      "evaluatedResource": [ {
        "reference": "https://madie.cms.gov/Patient/1e7961df-78d4-4788-9e0e-594173ea45d0"
      }, {
        "reference": "https://madie.cms.gov/Encounter/encounter-to-document-medications-a085"
      }, {
        "reference": "https://madie.cms.gov/Task/documentation-of-current-medications-procedure-a086"
      } ]
    },
    "request": {
      "method": "POST",
      "url": "MeasureReport/01dff3f9-2849-4d70-9ce2-d1b4f71a94c5"
    }
  } ]
}