{"resourceType":"Bundle","id":"tests-3e98ff8c-6d30-4a34-aabe-579419dd834f-bundle","type":"transaction","entry":[{"fullUrl":"https://madie.cms.gov/Patient/3e98ff8c-6d30-4a34-aabe-579419dd834f","resource":{"resourceType":"Patient","id":"3e98ff8c-6d30-4a34-aabe-579419dd834f","meta":{"profile":["http://hl7.org/fhir/us/qicore/StructureDefinition/qicore-patient"]},"extension":[{"url":"http://hl7.org/fhir/us/core/StructureDefinition/us-core-race","extension":[{"url":"ombCategory","valueCoding":{"system":"urn:oid:2.16.840.1.113883.6.238","code":"2028-9","display":"Asian"}},{"url":"text","valueString":"Asian"}]},{"url":"http://hl7.org/fhir/us/core/StructureDefinition/us-core-ethnicity","extension":[{"url":"ombCategory","valueCoding":{"system":"urn:oid:2.16.840.1.113883.6.238","code":"2135-2","display":"Hispanic or Latino"}},{"url":"text","valueString":"Hispanic or Latino"}]}],"identifier":[{"system":"http://hospital.smarthealthit.org","value":"999999995"}],"name":[{"family":"Bertha","given":["Betty"]}],"gender":"female","birthDate":"2005-01-01"},"request":{"method":"PUT","url":"Patient/3e98ff8c-6d30-4a34-aabe-579419dd834f"}},{"fullUrl":"https://madie.cms.gov/Encounter/Encounter-2","resource":{"resourceType":"Encounter","id":"9a3ff4c6-c0ad-4432-9ad2-eabbfad81522","meta":{"profile":["http://hl7.org/fhir/us/qicore/StructureDefinition/qicore-encounter"]},"status":"finished","class":{"system":"http://terminology.hl7.org/CodeSystem/v3-ActCode","code":"AMB","display":"ambulatory"},"type":[{"coding":[{"system":"http://www.ada.org/cdt","code":"D0120","display":"periodic oral evaluation - established patient"}]}],"subject":{"reference":"Patient/3e98ff8c-6d30-4a34-aabe-579419dd834f"},"period":{"start":"2025-12-31T00:00:00.000Z","end":"2025-12-31T01:15:00.000Z"}},"request":{"method":"PUT","url":"Encounter/9a3ff4c6-c0ad-4432-9ad2-eabbfad81522"}},{"fullUrl":"https://madie.cms.gov/MeasureReport/89f6a04b-19e8-4be2-8edc-73ce04db0f27","resource":{"resourceType":"MeasureReport","id":"89f6a04b-19e8-4be2-8edc-73ce04db0f27","meta":{"profile":["http://hl7.org/fhir/us/cqfmeasures/StructureDefinition/test-case-cqfm"]},"contained":[{"resourceType":"Parameters","id":"e2ed11e9-0c74-41b7-b09a-9a33186042bc-parameters","parameter":[{"name":"subject","valueString":"3e98ff8c-6d30-4a34-aabe-579419dd834f"}]}],"extension":[{"url":"http://hl7.org/fhir/us/cqfmeasures/StructureDefinition/cqfm-inputParameters","valueReference":{"reference":"#e2ed11e9-0c74-41b7-b09a-9a33186042bc-parameters"}},{"url":"http://hl7.org/fhir/us/cqfmeasures/StructureDefinition/cqfm-testCaseDescription","valueMarkdown":"Patient 20yo w/ an Oral Evaluation Encounter 12/31 of the Measurement Period."}],"modifierExtension":[{"url":"http://hl7.org/fhir/us/cqfmeasures/StructureDefinition/cqfm-isTestCase","valueBoolean":true}],"status":"complete","type":"individual","measure":"https://madie.cms.gov/Measure/ChildrenWhoHaveDentalDecayOrCavitiesFHIR","period":{"start":"2025-01-01","end":"2025-12-31"},"group":[{"population":[{"code":{"coding":[{"system":"http://terminology.hl7.org/CodeSystem/measure-population","code":"initial-population","display":"Initial Population"}]},"count":1},{"code":{"coding":[{"system":"http://terminology.hl7.org/CodeSystem/measure-population","code":"denominator","display":"Denominator"}]},"count":1},{"code":{"coding":[{"system":"http://terminology.hl7.org/CodeSystem/measure-population","code":"denominator-exclusion","display":"Denominator Exclusion"}]},"count":0},{"code":{"coding":[{"system":"http://terminology.hl7.org/CodeSystem/measure-population","code":"numerator","display":"Numerator"}]},"count":0}]}]},"request":{"method":"PUT","url":"MeasureReport/89f6a04b-19e8-4be2-8edc-73ce04db0f27"}}]}