{"resourceType":"Bundle","id":"tests-e72e9b43-d488-41d1-835d-9222337639b2-bundle","type":"transaction","entry":[{"fullUrl":"https://madie.cms.gov/Patient/e72e9b43-d488-41d1-835d-9222337639b2","resource":{"resourceType":"Patient","id":"e72e9b43-d488-41d1-835d-9222337639b2","meta":{"profile":["http://hl7.org/fhir/us/qicore/StructureDefinition/qicore-patient"]},"extension":[{"url":"http://hl7.org/fhir/us/core/StructureDefinition/us-core-race","extension":[{"url":"ombCategory","valueCoding":{"system":"urn:oid:2.16.840.1.113883.6.238","code":"2028-9","display":"Asian"}},{"url":"text","valueString":"Asian"}]},{"url":"http://hl7.org/fhir/us/core/StructureDefinition/us-core-ethnicity","extension":[{"url":"ombCategory","valueCoding":{"system":"urn:oid:2.16.840.1.113883.6.238","code":"2135-2","display":"Hispanic or Latino"}},{"url":"text","valueString":"Hispanic or Latino"}]}],"identifier":[{"system":"http://hospital.smarthealthit.org","value":"999999995"}],"name":[{"family":"Bertha","given":["Betty"]}],"gender":"female","birthDate":"2005-01-01"},"request":{"method":"PUT","url":"Patient/e72e9b43-d488-41d1-835d-9222337639b2"}},{"fullUrl":"https://madie.cms.gov/Encounter/Encounter-7","resource":{"resourceType":"Encounter","id":"276d54ed-478e-47c4-ad96-85829025bb80","meta":{"profile":["http://hl7.org/fhir/us/qicore/StructureDefinition/qicore-encounter"]},"status":"finished","class":{"system":"http://terminology.hl7.org/CodeSystem/v3-ActCode","code":"AMB","display":"ambulatory"},"type":[{"coding":[{"system":"http://www.ada.org/cdt","code":"D0120","display":"periodic oral evaluation - established patient"}]}],"subject":{"reference":"Patient/e72e9b43-d488-41d1-835d-9222337639b2"},"period":{"start":"2025-01-01T00:00:00.000Z","end":"2025-01-01T01:15:00.000Z"}},"request":{"method":"PUT","url":"Encounter/276d54ed-478e-47c4-ad96-85829025bb80"}},{"fullUrl":"https://madie.cms.gov/Encounter/Encounter-7.1","resource":{"resourceType":"Encounter","id":"1fb1c1e3-0b08-4f07-a7a6-3b99be915a33","meta":{"profile":["http://hl7.org/fhir/us/qicore/StructureDefinition/qicore-encounter"]},"status":"finished","class":{"system":"http://terminology.hl7.org/CodeSystem/v3-ActCode","code":"AMB","display":"ambulatory"},"type":[{"coding":[{"system":"http://snomed.info/sct","code":"183452005","display":"Emergency hospital admission (procedure)"}]}],"subject":{"reference":"Patient/e72e9b43-d488-41d1-835d-9222337639b2"},"period":{"start":"2024-12-31T00:00:00.000Z","end":"2024-12-31T23:59:59.000Z"},"hospitalization":{"dischargeDisposition":{"coding":[{"system":"http://snomed.info/sct","code":"428361000124107","display":"Discharge to home for hospice care (procedure)"}]}}},"request":{"method":"PUT","url":"Encounter/1fb1c1e3-0b08-4f07-a7a6-3b99be915a33"}},{"fullUrl":"https://madie.cms.gov/MeasureReport/b262f0da-dd27-4fdc-a4ec-721c477bbb7a","resource":{"resourceType":"MeasureReport","id":"b262f0da-dd27-4fdc-a4ec-721c477bbb7a","meta":{"profile":["http://hl7.org/fhir/us/cqfmeasures/StructureDefinition/test-case-cqfm"]},"contained":[{"resourceType":"Parameters","id":"5b88922d-04d3-41ad-a4c2-2b208081fb64-parameters","parameter":[{"name":"subject","valueString":"e72e9b43-d488-41d1-835d-9222337639b2"}]}],"extension":[{"url":"http://hl7.org/fhir/us/cqfmeasures/StructureDefinition/cqfm-inputParameters","valueReference":{"reference":"#5b88922d-04d3-41ad-a4c2-2b208081fb64-parameters"}},{"url":"http://hl7.org/fhir/us/cqfmeasures/StructureDefinition/cqfm-testCaseDescription","valueMarkdown":"Encounter Inpatient Discharge to Home - For meeting 100% coverage"}],"modifierExtension":[{"url":"http://hl7.org/fhir/us/cqfmeasures/StructureDefinition/cqfm-isTestCase","valueBoolean":true}],"status":"complete","type":"individual","measure":"https://madie.cms.gov/Measure/ChildrenWhoHaveDentalDecayOrCavitiesFHIR","period":{"start":"2025-01-01","end":"2025-12-31"},"group":[{"population":[{"code":{"coding":[{"system":"http://terminology.hl7.org/CodeSystem/measure-population","code":"initial-population","display":"Initial Population"}]},"count":1},{"code":{"coding":[{"system":"http://terminology.hl7.org/CodeSystem/measure-population","code":"denominator","display":"Denominator"}]},"count":1},{"code":{"coding":[{"system":"http://terminology.hl7.org/CodeSystem/measure-population","code":"denominator-exclusion","display":"Denominator Exclusion"}]},"count":0},{"code":{"coding":[{"system":"http://terminology.hl7.org/CodeSystem/measure-population","code":"numerator","display":"Numerator"}]},"count":0}]}]},"request":{"method":"PUT","url":"MeasureReport/b262f0da-dd27-4fdc-a4ec-721c477bbb7a"}}]}