{
  "resourceType": "Bundle",
  "id": "NUM1Fail-IncorrectObservationCategoryAndCodeForTobaccoNonUser",
  "type": "transaction",
  "entry": [ {
    "fullUrl": "https://madie.cms.gov/Patient/c764b0d7-3e29-4c57-a89e-de672eac6469",
    "resource": {
      "resourceType": "Patient",
      "id": "c764b0d7-3e29-4c57-a89e-de672eac6469",
      "meta": {
        "profile": [ "http://hl7.org/fhir/us/qicore/StructureDefinition/qicore-patient" ]
      },
      "extension": [ {
        "url": "http://hl7.org/fhir/us/core/StructureDefinition/us-core-race",
        "extension": [ {
          "url": "ombCategory",
          "valueCoding": {
            "system": "urn:oid:2.16.840.1.113883.6.238",
            "code": "2028-9",
            "display": "Asian"
          }
        }, {
          "url": "text",
          "valueString": "Asian"
        } ]
      }, {
        "url": "http://hl7.org/fhir/us/core/StructureDefinition/us-core-ethnicity",
        "extension": [ {
          "url": "ombCategory",
          "valueCoding": {
            "system": "urn:oid:2.16.840.1.113883.6.238",
            "code": "2135-2",
            "display": "Hispanic or Latino"
          }
        }, {
          "url": "text",
          "valueString": "Hispanic or Latino"
        } ]
      } ],
      "identifier": [ {
        "system": "http://hospital.smarthealthit.org",
        "value": "999999995"
      } ],
      "name": [ {
        "family": "Bertha",
        "given": [ "Betty" ]
      } ],
      "gender": "female",
      "birthDate": "2012-12-31"
    },
    "request": {
      "method": "POST",
      "url": "Patient/c764b0d7-3e29-4c57-a89e-de672eac6469"
    }
  }, {
    "fullUrl": "https://madie.cms.gov/Encounter/Encounter-12",
    "resource": {
      "resourceType": "Encounter",
      "id": "Encounter-12",
      "meta": {
        "profile": [ "http://hl7.org/fhir/us/qicore/StructureDefinition/qicore-encounter" ]
      },
      "status": "finished",
      "class": {
        "system": "http://terminology.hl7.org/CodeSystem/v3-ActCode",
        "code": "AMB",
        "display": "ambulatory"
      },
      "type": [ {
        "coding": [ {
          "system": "http://snomed.info/sct",
          "code": "185463005",
          "display": "Visit out of hours (procedure)"
        } ]
      } ],
      "subject": {
        "reference": "Patient/c764b0d7-3e29-4c57-a89e-de672eac6469"
      },
      "period": {
        "start": "2025-01-01T01:00:00.000Z",
        "end": "2025-01-01T01:15:00.000Z"
      }
    },
    "request": {
      "method": "POST",
      "url": "Encounter/Encounter-12"
    }
  }, {
    "fullUrl": "https://madie.cms.gov/Encounter/Encounter-13",
    "resource": {
      "resourceType": "Encounter",
      "id": "Encounter-13",
      "meta": {
        "profile": [ "http://hl7.org/fhir/us/qicore/StructureDefinition/qicore-encounter" ]
      },
      "status": "finished",
      "class": {
        "system": "http://terminology.hl7.org/CodeSystem/v3-ActCode",
        "code": "AMB",
        "display": "ambulatory"
      },
      "type": [ {
        "coding": [ {
          "system": "http://snomed.info/sct",
          "code": "41375007",
          "display": "Medical evaluation of hearing problem (procedure)"
        } ]
      } ],
      "subject": {
        "reference": "Patient/c764b0d7-3e29-4c57-a89e-de672eac6469"
      },
      "period": {
        "start": "2025-01-01T01:00:00.000Z",
        "end": "2025-01-01T01:15:00.000Z"
      }
    },
    "request": {
      "method": "POST",
      "url": "Encounter/Encounter-13"
    }
  }, {
    "fullUrl": "https://madie.cms.gov/Observation/Observation-4",
    "resource": {
      "resourceType": "Observation",
      "id": "Observation-4",
      "meta": {
        "profile": [ "http://hl7.org/fhir/us/qicore/StructureDefinition/qicore-observation" ]
      },
      "status": "final",
      "category": [ {
        "coding": [ {
          "system": "http://terminology.hl7.org/CodeSystem/observation-category",
          "code": "survey",
          "display": "laboratory"
        } ],
        "text": "laboratory"
      } ],
      "code": {
        "coding": [ {
          "system": "http://loinc.org",
          "code": "39240-7",
          "display": "Tobacco use status CPHS"
        } ]
      },
      "subject": {
        "reference": "Patient/c764b0d7-3e29-4c57-a89e-de672eac6469"
      },
      "effectivePeriod": {
        "start": "2025-01-01T23:00:00.000Z",
        "end": "2025-01-01T23:59:00.000Z"
      },
      "valueCodeableConcept": {
        "coding": [ {
          "system": "http://snomed.info/sct",
          "code": "123",
          "display": "Non-smoker for personal reasons (finding)"
        } ]
      }
    },
    "request": {
      "method": "POST",
      "url": "Observation/Observation-4"
    }
  }, {
    "fullUrl": "https://madie.cms.gov/MeasureReport/c1aa306b-834f-48f4-94c0-31440de4be3a",
    "resource": {
      "resourceType": "MeasureReport",
      "id": "c1aa306b-834f-48f4-94c0-31440de4be3a",
      "meta": {
        "profile": [ "http://hl7.org/fhir/us/cqfmeasures/StructureDefinition/test-case-cqfm" ]
      },
      "contained": [ {
        "resourceType": "Parameters",
        "id": "5d6f43c2-ccb9-46fd-8c9c-cc9fc5e61041-parameters",
        "parameter": [ {
          "name": "subject",
          "valueString": "c764b0d7-3e29-4c57-a89e-de672eac6469"
        } ]
      } ],
      "extension": [ {
        "url": "http://hl7.org/fhir/us/cqfmeasures/StructureDefinition/cqfm-inputParameters",
        "valueReference": {
          "reference": "#5d6f43c2-ccb9-46fd-8c9c-cc9fc5e61041-parameters"
        }
      }, {
        "url": "http://hl7.org/fhir/us/cqfmeasures/StructureDefinition/cqfm-testCaseDescription",
        "valueMarkdown": "Patient 12 seen for 2 visits with an incorrect observation category of \"laboratory\" for tobacco user and incorrect code '123' for tobacco non user"
      } ],
      "modifierExtension": [ {
        "url": "http://hl7.org/fhir/us/cqfmeasures/StructureDefinition/cqfm-isTestCase",
        "valueBoolean": true
      } ],
      "status": "complete",
      "type": "individual",
      "measure": "https://madie.cms.gov/Measure/PreventiveCareAndTobaccoUseScreeningAndCessationInterventionFHIR",
      "period": {
        "start": "2025-01-01",
        "end": "2025-12-31"
      },
      "group": [ {
        "population": [ {
          "code": {
            "coding": [ {
              "system": "http://terminology.hl7.org/CodeSystem/measure-population",
              "code": "initial-population",
              "display": "Initial Population"
            } ]
          },
          "count": 1
        }, {
          "code": {
            "coding": [ {
              "system": "http://terminology.hl7.org/CodeSystem/measure-population",
              "code": "denominator",
              "display": "Denominator"
            } ]
          },
          "count": 1
        }, {
          "code": {
            "coding": [ {
              "system": "http://terminology.hl7.org/CodeSystem/measure-population",
              "code": "denominator-exclusion",
              "display": "Denominator Exclusion"
            } ]
          },
          "count": 0
        }, {
          "code": {
            "coding": [ {
              "system": "http://terminology.hl7.org/CodeSystem/measure-population",
              "code": "numerator",
              "display": "Numerator"
            } ]
          },
          "count": 0
        } ]
      }, {
        "population": [ {
          "code": {
            "coding": [ {
              "system": "http://terminology.hl7.org/CodeSystem/measure-population",
              "code": "initial-population",
              "display": "Initial Population"
            } ]
          },
          "count": 1
        }, {
          "code": {
            "coding": [ {
              "system": "http://terminology.hl7.org/CodeSystem/measure-population",
              "code": "denominator",
              "display": "Denominator"
            } ]
          },
          "count": 0
        }, {
          "code": {
            "coding": [ {
              "system": "http://terminology.hl7.org/CodeSystem/measure-population",
              "code": "denominator-exclusion",
              "display": "Denominator Exclusion"
            } ]
          },
          "count": 0
        }, {
          "code": {
            "coding": [ {
              "system": "http://terminology.hl7.org/CodeSystem/measure-population",
              "code": "numerator",
              "display": "Numerator"
            } ]
          },
          "count": 0
        } ]
      }, {
        "population": [ {
          "code": {
            "coding": [ {
              "system": "http://terminology.hl7.org/CodeSystem/measure-population",
              "code": "initial-population",
              "display": "Initial Population"
            } ]
          },
          "count": 1
        }, {
          "code": {
            "coding": [ {
              "system": "http://terminology.hl7.org/CodeSystem/measure-population",
              "code": "denominator",
              "display": "Denominator"
            } ]
          },
          "count": 1
        }, {
          "code": {
            "coding": [ {
              "system": "http://terminology.hl7.org/CodeSystem/measure-population",
              "code": "denominator-exclusion",
              "display": "Denominator Exclusion"
            } ]
          },
          "count": 0
        }, {
          "code": {
            "coding": [ {
              "system": "http://terminology.hl7.org/CodeSystem/measure-population",
              "code": "numerator",
              "display": "Numerator"
            } ]
          },
          "count": 0
        } ]
      } ],
      "evaluatedResource": [ {
        "reference": "https://madie.cms.gov/Patient/c764b0d7-3e29-4c57-a89e-de672eac6469"
      }, {
        "reference": "https://madie.cms.gov/Encounter/Encounter-12"
      }, {
        "reference": "https://madie.cms.gov/Encounter/Encounter-13"
      }, {
        "reference": "https://madie.cms.gov/Observation/Observation-4"
      } ]
    },
    "request": {
      "method": "POST",
      "url": "MeasureReport/c1aa306b-834f-48f4-94c0-31440de4be3a"
    }
  } ]
}