{
  "resourceType": "Bundle",
  "id": "463131313413",
  "type": "transaction",
  "entry": [ {
    "fullUrl": "https://madie.cms.gov/Patient/83372224-2f45-41fc-84d3-3fcd4b4a9003",
    "resource": {
      "resourceType": "Patient",
      "id": "83372224-2f45-41fc-84d3-3fcd4b4a9003",
      "meta": {
        "profile": [ "http://hl7.org/fhir/us/qicore/StructureDefinition/qicore-patient" ]
      },
      "extension": [ {
        "url": "http://hl7.org/fhir/us/core/StructureDefinition/us-core-race",
        "extension": [ {
          "url": "ombCategory",
          "valueCoding": {
            "system": "urn:oid:2.16.840.1.113883.6.238",
            "code": "2106-3",
            "display": "White"
          }
        }, {
          "url": "detailed",
          "valueCoding": {
            "system": "urn:oid:2.16.840.1.113883.6.238",
            "code": "2036-2",
            "display": "Filipino"
          }
        }, {
          "url": "text",
          "valueString": "mixed"
        } ]
      }, {
        "url": "http://hl7.org/fhir/us/core/StructureDefinition/us-core-ethnicity",
        "extension": [ {
          "url": "ombCategory",
          "valueCoding": {
            "system": "urn:oid:2.16.840.1.113883.6.238",
            "code": "2135-2",
            "display": "Hispanic or Latino"
          }
        }, {
          "url": "detailed",
          "valueCoding": {
            "system": "urn:oid:2.16.840.1.113883.6.238",
            "code": "2148-5",
            "display": "Mexican"
          }
        }, {
          "url": "text",
          "valueString": "Hispanic or Latino"
        } ]
      } ],
      "identifier": [ {
        "type": {
          "coding": [ {
            "system": "http://terminology.hl7.org/CodeSystem/v2-0203",
            "code": "MR"
          } ]
        },
        "system": "https://bonnie-fhir.healthit.gov/",
        "value": "43131346846313"
      } ],
      "active": true,
      "name": [ {
        "use": "usual",
        "family": "DENOMFail",
        "given": [ "ModToSevereLVSDAfterHFEncounters" ]
      } ],
      "gender": "male",
      "birthDate": "1972-12-13"
    },
    "request": {
      "method": "POST",
      "url": "Patient/83372224-2f45-41fc-84d3-3fcd4b4a9003"
    }
  }, {
    "fullUrl": "https://madie.cms.gov/Encounter/5c954de8b848462de0ae7670",
    "resource": {
      "resourceType": "Encounter",
      "id": "5c954de8b848462de0ae7670",
      "meta": {
        "profile": [ "http://hl7.org/fhir/us/qicore/StructureDefinition/qicore-encounter" ]
      },
      "status": "finished",
      "class": {
        "system": "http://terminology.hl7.org/CodeSystem/v3-ActCode",
        "code": "AMB",
        "display": "ambulatory"
      },
      "type": [ {
        "coding": [ {
          "system": "http://www.ama-assn.org/go/cpt",
          "version": "2024",
          "code": "99213"
        } ]
      } ],
      "subject": {
        "reference": "Patient/83372224-2f45-41fc-84d3-3fcd4b4a9003"
      },
      "period": {
        "start": "2025-04-14T14:40:00.000+00:00",
        "end": "2025-04-14T14:50:00.000+00:00"
      },
      "length": {
        "value": 0,
        "unit": "days"
      }
    },
    "request": {
      "method": "POST",
      "url": "Encounter/5c954de8b848462de0ae7670"
    }
  }, {
    "fullUrl": "https://madie.cms.gov/Encounter/5c954de8b848462de0ae7671",
    "resource": {
      "resourceType": "Encounter",
      "id": "5c954de8b848462de0ae7671",
      "meta": {
        "profile": [ "http://hl7.org/fhir/us/qicore/StructureDefinition/qicore-encounter" ]
      },
      "status": "finished",
      "class": {
        "system": "http://terminology.hl7.org/CodeSystem/v3-ActCode",
        "code": "AMB",
        "display": "ambulatory"
      },
      "type": [ {
        "coding": [ {
          "system": "http://www.ama-assn.org/go/cpt",
          "version": "2024",
          "code": "99212"
        } ]
      } ],
      "subject": {
        "reference": "Patient/83372224-2f45-41fc-84d3-3fcd4b4a9003"
      },
      "period": {
        "start": "2025-07-20T11:50:00+00:00",
        "end": "2025-07-20T12:00:00+00:00"
      },
      "length": {
        "value": 0,
        "unit": "days"
      }
    },
    "request": {
      "method": "POST",
      "url": "Encounter/5c954de8b848462de0ae7671"
    }
  }, {
    "fullUrl": "https://madie.cms.gov/Condition/5c954de8b848462de0ae766e",
    "resource": {
      "resourceType": "Condition",
      "id": "5c954de8b848462de0ae766e",
      "meta": {
        "profile": [ "http://hl7.org/fhir/us/qicore/StructureDefinition/qicore-condition" ]
      },
      "clinicalStatus": {
        "coding": [ {
          "system": "http://terminology.hl7.org/CodeSystem/condition-clinical",
          "code": "active",
          "display": "Active"
        } ]
      },
      "verificationStatus": {
        "coding": [ {
          "system": "http://terminology.hl7.org/CodeSystem/condition-ver-status",
          "code": "confirmed",
          "display": "Confirmed"
        } ]
      },
      "category": [ {
        "coding": [ {
          "system": "http://terminology.hl7.org/CodeSystem/condition-category",
          "code": "problem-list-item",
          "display": "Problem List Item"
        } ]
      } ],
      "code": {
        "coding": [ {
          "system": "http://hl7.org/fhir/sid/icd-10-cm",
          "version": "2024",
          "code": "I11.0"
        } ]
      },
      "subject": {
        "reference": "Patient/83372224-2f45-41fc-84d3-3fcd4b4a9003"
      },
      "onsetPeriod": {
        "start": "2025-04-11T10:00:00+00:00"
      }
    },
    "request": {
      "method": "POST",
      "url": "Condition/5c954de8b848462de0ae766e"
    }
  }, {
    "fullUrl": "https://madie.cms.gov/Condition/434343435453",
    "resource": {
      "resourceType": "Condition",
      "id": "434343435453",
      "meta": {
        "profile": [ "http://hl7.org/fhir/us/qicore/StructureDefinition/qicore-condition" ]
      },
      "clinicalStatus": {
        "coding": [ {
          "system": "http://terminology.hl7.org/CodeSystem/condition-clinical",
          "code": "active",
          "display": "Active"
        } ]
      },
      "verificationStatus": {
        "coding": [ {
          "system": "http://terminology.hl7.org/CodeSystem/condition-ver-status",
          "code": "confirmed",
          "display": "Confirmed"
        } ]
      },
      "category": [ {
        "coding": [ {
          "system": "http://terminology.hl7.org/CodeSystem/condition-category",
          "code": "problem-list-item",
          "display": "Problem List Item"
        } ]
      } ],
      "severity": {
        "coding": [ {
          "system": "http://snomed.info/sct",
          "version": "http://snomed.info/sct/731000124108/version/20240301",
          "code": "24484000",
          "display": "Severe (severity modifier) (qualifier value)"
        } ]
      },
      "code": {
        "coding": [ {
          "system": "http://snomed.info/sct",
          "version": "http://snomed.info/sct/731000124108/version/20240301",
          "code": "134401001",
          "display": "Left ventricular systolic dysfunction (disorder)"
        } ]
      },
      "subject": {
        "reference": "Patient/83372224-2f45-41fc-84d3-3fcd4b4a9003"
      },
      "onsetPeriod": {
        "start": "2025-08-14T14:41:00.000+00:00"
      }
    },
    "request": {
      "method": "POST",
      "url": "Condition/434343435453"
    }
  }, {
    "fullUrl": "https://madie.cms.gov/MeasureReport/b09df530-f930-480f-9773-134862eaa376",
    "resource": {
      "resourceType": "MeasureReport",
      "id": "b09df530-f930-480f-9773-134862eaa376",
      "meta": {
        "profile": [ "http://hl7.org/fhir/us/cqfmeasures/StructureDefinition/test-case-cqfm" ]
      },
      "contained": [ {
        "resourceType": "Parameters",
        "id": "0f5f5410-5643-463d-9eed-6a8dc07f3d78-parameters",
        "parameter": [ {
          "name": "subject",
          "valueString": "83372224-2f45-41fc-84d3-3fcd4b4a9003"
        } ]
      } ],
      "extension": [ {
        "url": "http://hl7.org/fhir/us/cqfmeasures/StructureDefinition/cqfm-inputParameters",
        "valueReference": {
          "reference": "#0f5f5410-5643-463d-9eed-6a8dc07f3d78-parameters"
        }
      }, {
        "url": "http://hl7.org/fhir/us/cqfmeasures/StructureDefinition/cqfm-testCaseDescription",
        "valueMarkdown": "Patient with moderate to severe LVSD.  Patient excluded from denominator due to moderate to severe LVSD diagnosis after both HF Encounters."
      } ],
      "modifierExtension": [ {
        "url": "http://hl7.org/fhir/us/cqfmeasures/StructureDefinition/cqfm-isTestCase",
        "valueBoolean": true
      } ],
      "status": "complete",
      "type": "individual",
      "measure": "https://madie.cms.gov/Measure/HFBetaBlockerTherapyforLVSDFHIR",
      "period": {
        "start": "2025-01-01",
        "end": "2025-12-31"
      },
      "group": [ {
        "population": [ {
          "code": {
            "coding": [ {
              "system": "http://terminology.hl7.org/CodeSystem/measure-population",
              "code": "initial-population",
              "display": "Initial Population"
            } ]
          },
          "count": 1
        }, {
          "code": {
            "coding": [ {
              "system": "http://terminology.hl7.org/CodeSystem/measure-population",
              "code": "denominator",
              "display": "Denominator"
            } ]
          },
          "count": 0
        }, {
          "code": {
            "coding": [ {
              "system": "http://terminology.hl7.org/CodeSystem/measure-population",
              "code": "denominator-exclusion",
              "display": "Denominator Exclusion"
            } ]
          },
          "count": 0
        }, {
          "code": {
            "coding": [ {
              "system": "http://terminology.hl7.org/CodeSystem/measure-population",
              "code": "numerator",
              "display": "Numerator"
            } ]
          },
          "count": 0
        }, {
          "code": {
            "coding": [ {
              "system": "http://terminology.hl7.org/CodeSystem/measure-population",
              "code": "denominator-exception",
              "display": "Denominator Exception"
            } ]
          },
          "count": 0
        } ]
      } ],
      "evaluatedResource": [ {
        "reference": "https://madie.cms.gov/Patient/83372224-2f45-41fc-84d3-3fcd4b4a9003"
      }, {
        "reference": "https://madie.cms.gov/Encounter/5c954de8b848462de0ae7670"
      }, {
        "reference": "https://madie.cms.gov/Encounter/5c954de8b848462de0ae7671"
      }, {
        "reference": "https://madie.cms.gov/Condition/5c954de8b848462de0ae766e"
      }, {
        "reference": "https://madie.cms.gov/Condition/434343435453"
      } ]
    },
    "request": {
      "method": "POST",
      "url": "MeasureReport/b09df530-f930-480f-9773-134862eaa376"
    }
  } ]
}