{
  "resourceType": "Bundle",
  "id": "617bfb091289f5673c8ceffb",
  "type": "transaction",
  "entry": [ {
    "fullUrl": "https://madie.cms.gov/Patient/5230ea22-66f1-4132-9acf-0e810f578472",
    "resource": {
      "resourceType": "Patient",
      "id": "5230ea22-66f1-4132-9acf-0e810f578472",
      "meta": {
        "profile": [ "http://hl7.org/fhir/us/qicore/StructureDefinition/qicore-patient" ]
      },
      "extension": [ {
        "url": "http://hl7.org/fhir/us/core/StructureDefinition/us-core-race",
        "extension": [ {
          "url": "ombCategory",
          "valueCoding": {
            "system": "urn:oid:2.16.840.1.113883.6.238",
            "code": "2076-8",
            "display": "Native Hawaiian or Other Pacific Islander",
            "userSelected": true
          }
        }, {
          "url": "text",
          "valueString": "Native Hawaiian or Other Pacific Islander"
        } ]
      }, {
        "url": "http://hl7.org/fhir/us/core/StructureDefinition/us-core-ethnicity",
        "extension": [ {
          "url": "ombCategory",
          "valueCoding": {
            "system": "urn:oid:2.16.840.1.113883.6.238",
            "code": "2135-2",
            "display": "Hispanic or Latino",
            "userSelected": true
          }
        }, {
          "url": "text",
          "valueString": "Hispanic or Latino"
        } ]
      } ],
      "identifier": [ {
        "type": {
          "coding": [ {
            "system": "http://terminology.hl7.org/CodeSystem/v2-0203",
            "code": "MR"
          } ]
        },
        "system": "https://bonnie-fhir.healthit.gov/",
        "value": "617bfb091289f5673c8ceffb"
      } ],
      "name": [ {
        "family": "DenExcl9Pass",
        "given": [ "AdverseEventStartsBeforeEDStart" ]
      } ],
      "gender": "female",
      "birthDate": "1984-12-02"
    },
    "request": {
      "method": "POST",
      "url": "Patient/5230ea22-66f1-4132-9acf-0e810f578472"
    }
  }, {
    "fullUrl": "https://madie.cms.gov/Encounter/emergency-department-visit-eff9",
    "resource": {
      "resourceType": "Encounter",
      "id": "emergency-department-visit-eff9",
      "meta": {
        "profile": [ "http://hl7.org/fhir/us/qicore/StructureDefinition/qicore-encounter" ]
      },
      "status": "finished",
      "class": {
        "system": "http://terminology.hl7.org/CodeSystem/v3-ActCode",
        "code": "EMER",
        "display": "emergency",
        "userSelected": true
      },
      "type": [ {
        "coding": [ {
          "system": "http://snomed.info/sct",
          "version": "2020-09",
          "code": "4525004",
          "display": "Emergency department patient visit (procedure)",
          "userSelected": true
        } ]
      } ],
      "subject": {
        "reference": "Patient/5230ea22-66f1-4132-9acf-0e810f578472"
      },
      "period": {
        "start": "2025-10-09T08:05:00.000+00:00",
        "end": "2025-10-10T07:15:00.000+00:00"
      },
      "reasonCode": [ {
        "coding": [ {
          "system": "http://hl7.org/fhir/sid/icd-10-cm",
          "version": "2021",
          "code": "I21.21",
          "display": "ST elevation (STEMI) myocardial infarction involving left circumflex coronary artery",
          "userSelected": true
        } ]
      } ]
    },
    "request": {
      "method": "POST",
      "url": "Encounter/emergency-department-visit-eff9"
    }
  }, {
    "fullUrl": "https://madie.cms.gov/AdverseEvent/thrombolytic-medications-effa",
    "resource": {
      "resourceType": "AdverseEvent",
      "id": "thrombolytic-medications-effa",
      "meta": {
        "profile": [ "http://hl7.org/fhir/us/qicore/StructureDefinition/qicore-adverseevent" ]
      },
      "extension": [ {
        "url": "http://hl7.org/fhir/ValueSet/adverse-event-category",
        "valueCodeableConcept": {
          "coding": [ {
            "system": "http://snomed.info/sct",
            "version": "2020-09",
            "code": "293572000",
            "display": "Urokinase adverse reaction (disorder)",
            "userSelected": true
          } ]
        }
      } ],
      "actuality": "actual",
      "event": {
        "coding": [ {
          "system": "http://snomed.info/sct",
          "version": "2020-09",
          "code": "293572000",
          "display": "Urokinase adverse reaction (disorder)",
          "userSelected": true
        } ]
      },
      "subject": {
        "reference": "Patient/5230ea22-66f1-4132-9acf-0e810f578472"
      },
      "recordedDate": "2025-10-08T08:00:00.000+00:00"
    },
    "request": {
      "method": "POST",
      "url": "AdverseEvent/thrombolytic-medications-effa"
    }
  }, {
    "fullUrl": "https://madie.cms.gov/MeasureReport/f03834f3-a426-4d96-abf5-f0863b715829",
    "resource": {
      "resourceType": "MeasureReport",
      "id": "f03834f3-a426-4d96-abf5-f0863b715829",
      "meta": {
        "profile": [ "http://hl7.org/fhir/us/cqfmeasures/StructureDefinition/test-case-cqfm" ]
      },
      "contained": [ {
        "resourceType": "Parameters",
        "id": "0f420a75-b2b7-4397-9352-e3db9da111f1-parameters",
        "parameter": [ {
          "name": "subject",
          "valueString": "5230ea22-66f1-4132-9acf-0e810f578472"
        } ]
      } ],
      "extension": [ {
        "url": "http://hl7.org/fhir/us/cqfmeasures/StructureDefinition/cqfm-inputParameters",
        "valueReference": {
          "reference": "#0f420a75-b2b7-4397-9352-e3db9da111f1-parameters"
        }
      }, {
        "url": "http://hl7.org/fhir/us/cqfmeasures/StructureDefinition/cqfm-testCaseDescription",
        "valueMarkdown": "Patient has adverse event starts before start of ED"
      } ],
      "modifierExtension": [ {
        "url": "http://hl7.org/fhir/us/cqfmeasures/StructureDefinition/cqfm-isTestCase",
        "valueBoolean": true
      } ],
      "status": "complete",
      "type": "individual",
      "measure": "https://madie.cms.gov/Measure/AppropriateTreatmentforSTEMIFHIR",
      "period": {
        "start": "2025-01-01",
        "end": "2025-12-31"
      },
      "group": [ {
        "population": [ {
          "code": {
            "coding": [ {
              "system": "http://terminology.hl7.org/CodeSystem/measure-population",
              "code": "initial-population",
              "display": "Initial Population"
            } ]
          },
          "count": 1
        }, {
          "code": {
            "coding": [ {
              "system": "http://terminology.hl7.org/CodeSystem/measure-population",
              "code": "denominator",
              "display": "Denominator"
            } ]
          },
          "count": 1
        }, {
          "code": {
            "coding": [ {
              "system": "http://terminology.hl7.org/CodeSystem/measure-population",
              "code": "denominator-exclusion",
              "display": "Denominator Exclusion"
            } ]
          },
          "count": 1
        }, {
          "code": {
            "coding": [ {
              "system": "http://terminology.hl7.org/CodeSystem/measure-population",
              "code": "numerator",
              "display": "Numerator"
            } ]
          },
          "count": 0
        }, {
          "code": {
            "coding": [ {
              "system": "http://terminology.hl7.org/CodeSystem/measure-population",
              "code": "denominator-exception",
              "display": "Denominator Exception"
            } ]
          },
          "count": 0
        } ]
      } ],
      "evaluatedResource": [ {
        "reference": "Patient/5230ea22-66f1-4132-9acf-0e810f578472"
      }, {
        "reference": "Encounter/emergency-department-visit-eff9"
      }, {
        "reference": "AdverseEvent/thrombolytic-medications-effa"
      } ]
    },
    "request": {
      "method": "POST",
      "url": "MeasureReport/f03834f3-a426-4d96-abf5-f0863b715829"
    }
  } ]
}