{
  "resourceType": "Bundle",
  "id": "641365df4b11b147841ab89b",
  "type": "transaction",
  "entry": [ {
    "fullUrl": "https://madie.cms.gov/Patient/d7e37bcf-d13b-4415-82ac-a51b5c83151c",
    "resource": {
      "resourceType": "Patient",
      "id": "d7e37bcf-d13b-4415-82ac-a51b5c83151c",
      "meta": {
        "profile": [ "http://hl7.org/fhir/us/qicore/StructureDefinition/qicore-patient" ]
      },
      "extension": [ {
        "url": "http://hl7.org/fhir/us/core/StructureDefinition/us-core-race",
        "extension": [ {
          "url": "ombCategory",
          "valueCoding": {
            "system": "urn:oid:2.16.840.1.113883.6.238",
            "code": "2076-8",
            "display": "Native Hawaiian or Other Pacific Islander",
            "userSelected": true
          }
        }, {
          "url": "text",
          "valueString": "Native Hawaiian or Other Pacific Islander"
        } ]
      }, {
        "url": "http://hl7.org/fhir/us/core/StructureDefinition/us-core-ethnicity",
        "extension": [ {
          "url": "ombCategory",
          "valueCoding": {
            "system": "urn:oid:2.16.840.1.113883.6.238",
            "code": "2186-5",
            "display": "Not Hispanic or Latino",
            "userSelected": true
          }
        }, {
          "url": "text",
          "valueString": "Not Hispanic or Latino"
        } ]
      } ],
      "identifier": [ {
        "type": {
          "coding": [ {
            "system": "http://terminology.hl7.org/CodeSystem/v2-0203",
            "code": "MR"
          } ]
        },
        "system": "https://bonnie-fhir.healthit.gov/",
        "value": "641365df4b11b147841ab89b"
      } ],
      "name": [ {
        "family": "DENEXPass",
        "given": [ "DiagnosisPalliativeCare" ]
      } ],
      "gender": "male",
      "birthDate": "1963-03-22"
    },
    "request": {
      "method": "POST",
      "url": "Patient/d7e37bcf-d13b-4415-82ac-a51b5c83151c"
    }
  }, {
    "fullUrl": "https://madie.cms.gov/Condition/diabetes-b89c",
    "resource": {
      "resourceType": "Condition",
      "id": "diabetes-b89c",
      "meta": {
        "profile": [ "http://hl7.org/fhir/us/qicore/StructureDefinition/qicore-condition" ]
      },
      "clinicalStatus": {
        "coding": [ {
          "system": "http://terminology.hl7.org/CodeSystem/condition-clinical",
          "code": "active",
          "display": "active",
          "userSelected": true
        } ]
      },
      "category": [ {
        "coding": [ {
          "system": "http://terminology.hl7.org/CodeSystem/condition-category",
          "code": "problem-list-item",
          "display": "problem-list-item",
          "userSelected": true
        } ]
      } ],
      "code": {
        "coding": [ {
          "system": "http://snomed.info/sct",
          "version": "2021-09",
          "code": "102781000119107",
          "display": "Sensory neuropathy due to type 1 diabetes mellitus (disorder)",
          "userSelected": true
        } ]
      },
      "subject": {
        "reference": "Patient/d7e37bcf-d13b-4415-82ac-a51b5c83151c"
      },
      "onsetDateTime": "2025-03-01T08:00:00.000+00:00"
    },
    "request": {
      "method": "POST",
      "url": "Condition/diabetes-b89c"
    }
  }, {
    "fullUrl": "https://madie.cms.gov/Encounter/annual-wellness-visit-b89d",
    "resource": {
      "resourceType": "Encounter",
      "id": "annual-wellness-visit-b89d",
      "meta": {
        "profile": [ "http://hl7.org/fhir/us/qicore/StructureDefinition/qicore-encounter" ]
      },
      "status": "finished",
      "class": {
        "system": "http://terminology.hl7.org/CodeSystem/v3-ActCode",
        "code": "AMB",
        "display": "ambulatory",
        "userSelected": true
      },
      "type": [ {
        "coding": [ {
          "system": "http://snomed.info/sct",
          "version": "2021-09",
          "code": "444971000124105",
          "display": "Annual wellness visit (procedure)",
          "userSelected": true
        } ]
      } ],
      "subject": {
        "reference": "Patient/d7e37bcf-d13b-4415-82ac-a51b5c83151c"
      },
      "period": {
        "start": "2025-03-06T08:00:00.000+00:00",
        "end": "2025-03-06T08:15:00.000+00:00"
      }
    },
    "request": {
      "method": "POST",
      "url": "Encounter/annual-wellness-visit-b89d"
    }
  }, {
    "fullUrl": "https://madie.cms.gov/Condition/encounter-for-palliative-care-b89e",
    "resource": {
      "resourceType": "Condition",
      "id": "encounter-for-palliative-care-b89e",
      "meta": {
        "profile": [ "http://hl7.org/fhir/us/qicore/StructureDefinition/qicore-condition" ]
      },
      "clinicalStatus": {
        "coding": [ {
          "system": "http://terminology.hl7.org/CodeSystem/condition-clinical",
          "code": "active",
          "display": "active",
          "userSelected": true
        } ]
      },
      "category": [ {
        "coding": [ {
          "system": "http://terminology.hl7.org/CodeSystem/condition-category",
          "code": "problem-list-item",
          "display": "problem-list-item",
          "userSelected": true
        } ]
      } ],
      "code": {
        "coding": [ {
          "system": "http://hl7.org/fhir/sid/icd-10-cm",
          "code": "Z51.5",
          "display": "Encounter for palliative care",
          "userSelected": true
        } ]
      },
      "subject": {
        "reference": "Patient/d7e37bcf-d13b-4415-82ac-a51b5c83151c"
      },
      "onsetDateTime": "2025-03-14T08:00:00.000+00:00"
    },
    "request": {
      "method": "POST",
      "url": "Condition/encounter-for-palliative-care-b89e"
    }
  }, {
    "fullUrl": "https://madie.cms.gov/MeasureReport/cbe92be0-bf40-4634-bc56-95a452e50aea",
    "resource": {
      "resourceType": "MeasureReport",
      "id": "cbe92be0-bf40-4634-bc56-95a452e50aea",
      "meta": {
        "profile": [ "http://hl7.org/fhir/us/cqfmeasures/StructureDefinition/test-case-cqfm" ]
      },
      "contained": [ {
        "resourceType": "Parameters",
        "id": "84d94c61-0d62-4dbc-ab5a-e41c92d0ba5a-parameters",
        "parameter": [ {
          "name": "subject",
          "valueString": "d7e37bcf-d13b-4415-82ac-a51b5c83151c"
        } ]
      } ],
      "extension": [ {
        "url": "http://hl7.org/fhir/us/cqfmeasures/StructureDefinition/cqfm-inputParameters",
        "valueReference": {
          "reference": "#84d94c61-0d62-4dbc-ab5a-e41c92d0ba5a-parameters"
        }
      }, {
        "url": "http://hl7.org/fhir/us/cqfmeasures/StructureDefinition/cqfm-testCaseDescription",
        "valueMarkdown": "This patient is 60 years old with a qualifying encounter and active diabetes diagnosis, with a Palliative Care diagnosis in the Measurement Period. This case tests the denominator exclusion criteria."
      } ],
      "modifierExtension": [ {
        "url": "http://hl7.org/fhir/us/cqfmeasures/StructureDefinition/cqfm-isTestCase",
        "valueBoolean": true
      } ],
      "status": "complete",
      "type": "individual",
      "measure": "https://madie.cms.gov/Measure/KidneyHealthEvaluationFHIR",
      "period": {
        "start": "2025-01-01",
        "end": "2025-12-31"
      },
      "group": [ {
        "population": [ {
          "code": {
            "coding": [ {
              "system": "http://terminology.hl7.org/CodeSystem/measure-population",
              "code": "initial-population",
              "display": "Initial Population"
            } ]
          },
          "count": 1
        }, {
          "code": {
            "coding": [ {
              "system": "http://terminology.hl7.org/CodeSystem/measure-population",
              "code": "denominator",
              "display": "Denominator"
            } ]
          },
          "count": 1
        }, {
          "code": {
            "coding": [ {
              "system": "http://terminology.hl7.org/CodeSystem/measure-population",
              "code": "denominator-exclusion",
              "display": "Denominator Exclusion"
            } ]
          },
          "count": 1
        }, {
          "code": {
            "coding": [ {
              "system": "http://terminology.hl7.org/CodeSystem/measure-population",
              "code": "numerator",
              "display": "Numerator"
            } ]
          },
          "count": 0
        } ]
      } ],
      "evaluatedResource": [ {
        "reference": "Patient/d7e37bcf-d13b-4415-82ac-a51b5c83151c"
      }, {
        "reference": "Condition/diabetes-b89c"
      }, {
        "reference": "Encounter/annual-wellness-visit-b89d"
      }, {
        "reference": "Condition/encounter-for-palliative-care-b89e"
      } ]
    },
    "request": {
      "method": "POST",
      "url": "MeasureReport/cbe92be0-bf40-4634-bc56-95a452e50aea"
    }
  } ]
}