{"resourceType":"Bundle","id":"tests-6f3d7b20-08da-459f-9d12-db2f6caa2177-bundle","type":"transaction","entry":[{"fullUrl":"https://madie.cms.gov/Patient/6f3d7b20-08da-459f-9d12-db2f6caa2177","resource":{"resourceType":"Patient","id":"6f3d7b20-08da-459f-9d12-db2f6caa2177","meta":{"profile":["http://hl7.org/fhir/us/qicore/StructureDefinition/qicore-patient"]},"extension":[{"url":"http://hl7.org/fhir/us/core/StructureDefinition/us-core-race","extension":[{"url":"ombCategory","valueCoding":{"system":"urn:oid:2.16.840.1.113883.6.238","code":"2106-3","display":"White"}},{"url":"text","valueString":"White"}]},{"url":"http://hl7.org/fhir/us/core/StructureDefinition/us-core-ethnicity","extension":[{"url":"ombCategory","valueCoding":{"system":"urn:oid:2.16.840.1.113883.6.238","code":"2186-5","display":"Non Hispanic or Latino"}},{"url":"text","valueString":"Non Hispanic or Latino"}]}],"identifier":[{"type":{"coding":[{"system":"http://terminology.hl7.org/CodeSystem/v2-0203","code":"MR"}]},"system":"https://myGoodHealthcare.com/","value":"4851351681610651"}],"name":[{"family":"IPFail","given":["2ndUSS1MinAfter12MonthBPHDx"]}],"gender":"other","birthDate":"1942-05-13"},"request":{"method":"PUT","url":"Patient/6f3d7b20-08da-459f-9d12-db2f6caa2177"}},{"fullUrl":"https://madie.cms.gov/Encounter/635431","resource":{"resourceType":"Encounter","id":"9de98753-fbfe-4f31-bda1-52879460f956","meta":{"profile":["http://hl7.org/fhir/us/qicore/StructureDefinition/qicore-encounter"]},"status":"finished","class":{"system":"http://terminology.hl7.org/CodeSystem/v3-ActCode","code":"AMB","display":"ambulatory"},"type":[{"coding":[{"system":"http://snomed.info/sct","version":"http://snomed.info/sct/731000124108/version/20240301","code":"185463005","display":"Visit out of hours (procedure)"}]}],"subject":{"reference":"Patient/6f3d7b20-08da-459f-9d12-db2f6caa2177"},"period":{"start":"2025-02-12T08:00:00.000+00:00","end":"2025-02-12T08:15:00.000+00:00"}},"request":{"method":"PUT","url":"Encounter/9de98753-fbfe-4f31-bda1-52879460f956"}},{"fullUrl":"https://madie.cms.gov/Condition/65461532","resource":{"resourceType":"Condition","id":"079bf695-439a-41a6-97a0-d59b59327ab4","meta":{"profile":["http://hl7.org/fhir/us/qicore/StructureDefinition/qicore-condition"]},"clinicalStatus":{"coding":[{"system":"http://terminology.hl7.org/CodeSystem/condition-clinical","code":"active","display":"Active"}]},"verificationStatus":{"coding":[{"system":"http://terminology.hl7.org/CodeSystem/condition-ver-status","code":"confirmed","display":"Confirmed"}]},"category":[{"coding":[{"system":"http://terminology.hl7.org/CodeSystem/condition-category","code":"encounter-diagnosis","display":"Encounter Diagnosis"}]}],"code":{"coding":[{"system":"http://hl7.org/fhir/sid/icd-10-cm","version":"2024","code":"N40.1","display":"Benign prostatic hyperplasia with lower urinary tract symptoms"}]},"subject":{"reference":"Patient/6f3d7b20-08da-459f-9d12-db2f6caa2177"},"onsetPeriod":{"start":"2024-12-12T08:00:00.000+00:00"}},"request":{"method":"PUT","url":"Condition/079bf695-439a-41a6-97a0-d59b59327ab4"}},{"fullUrl":"https://madie.cms.gov/Observation/6845654","resource":{"resourceType":"Observation","id":"70949519-9c5c-4029-baa4-0d4f31e3932b","meta":{"profile":["http://hl7.org/fhir/us/qicore/StructureDefinition/qicore-observation"]},"status":"final","category":[{"coding":[{"system":"http://terminology.hl7.org/CodeSystem/observation-category","code":"survey","display":"Survey"}]}],"code":{"coding":[{"system":"http://loinc.org","version":"2.76","code":"80976-4","display":"International Prostate Symptom Score [IPSS]"}]},"subject":{"reference":"Patient/6f3d7b20-08da-459f-9d12-db2f6caa2177"},"effectiveDateTime":"2024-12-12T08:01:00.000+00:00","valueInteger":5},"request":{"method":"PUT","url":"Observation/70949519-9c5c-4029-baa4-0d4f31e3932b"}},{"fullUrl":"https://madie.cms.gov/Observation/132135","resource":{"resourceType":"Observation","id":"2bb1ab99-95cb-4fee-8d7e-ecbb0f3d7b1e","meta":{"profile":["http://hl7.org/fhir/us/qicore/StructureDefinition/qicore-observation"]},"status":"final","category":[{"coding":[{"system":"http://terminology.hl7.org/CodeSystem/observation-category","code":"survey","display":"Survey"}]}],"code":{"coding":[{"system":"http://loinc.org","version":"2.76","code":"80976-4","display":"International Prostate Symptom Score [IPSS]"}]},"subject":{"reference":"Patient/6f3d7b20-08da-459f-9d12-db2f6caa2177"},"effectiveDateTime":"2024-12-13T23:59:00.000+00:00","valueInteger":2},"request":{"method":"PUT","url":"Observation/2bb1ab99-95cb-4fee-8d7e-ecbb0f3d7b1e"}},{"fullUrl":"https://madie.cms.gov/MeasureReport/9bad0f01-f38c-4e18-a10b-053cc099ca20","resource":{"resourceType":"MeasureReport","id":"9bad0f01-f38c-4e18-a10b-053cc099ca20","meta":{"profile":["http://hl7.org/fhir/us/cqfmeasures/StructureDefinition/test-case-cqfm"]},"contained":[{"resourceType":"Parameters","id":"a2e9789f-3aa2-4a27-8327-117039ae0fcd-parameters","parameter":[{"name":"subject","valueString":"6f3d7b20-08da-459f-9d12-db2f6caa2177"}]}],"extension":[{"url":"http://hl7.org/fhir/us/cqfmeasures/StructureDefinition/cqfm-inputParameters","valueReference":{"reference":"#a2e9789f-3aa2-4a27-8327-117039ae0fcd-parameters"}},{"url":"http://hl7.org/fhir/us/cqfmeasures/StructureDefinition/cqfm-testCaseDescription","valueMarkdown":"Second USS Assessment required for Initial Population and Denominator is performed 1 Minute After end of 12 month period of initial BPH Dx."}],"modifierExtension":[{"url":"http://hl7.org/fhir/us/cqfmeasures/StructureDefinition/cqfm-isTestCase","valueBoolean":true}],"status":"complete","type":"individual","measure":"https://madie.cms.gov/Measure/UrinarySymptomScoreChangeAfterBenignProstaticHyperplasiaFHIR","period":{"start":"2025-01-01","end":"2025-12-31"},"group":[{"population":[{"code":{"coding":[{"system":"http://terminology.hl7.org/CodeSystem/measure-population","code":"initial-population","display":"Initial Population"}]},"count":0},{"code":{"coding":[{"system":"http://terminology.hl7.org/CodeSystem/measure-population","code":"denominator","display":"Denominator"}]},"count":0},{"code":{"coding":[{"system":"http://terminology.hl7.org/CodeSystem/measure-population","code":"denominator-exclusion","display":"Denominator Exclusion"}]},"count":0},{"code":{"coding":[{"system":"http://terminology.hl7.org/CodeSystem/measure-population","code":"numerator","display":"Numerator"}]},"count":0}]}]},"request":{"method":"PUT","url":"MeasureReport/9bad0f01-f38c-4e18-a10b-053cc099ca20"}}]}