{"resourceType":"Bundle","id":"tests-ae8b8236-bf9b-47f9-9c71-4655bca14aba-bundle","type":"transaction","entry":[{"fullUrl":"https://madie.cms.gov/Patient/ae8b8236-bf9b-47f9-9c71-4655bca14aba","resource":{"resourceType":"Patient","id":"ae8b8236-bf9b-47f9-9c71-4655bca14aba","meta":{"profile":["http://hl7.org/fhir/us/qicore/StructureDefinition/qicore-patient"]},"extension":[{"url":"http://hl7.org/fhir/us/core/StructureDefinition/us-core-race","extension":[{"url":"ombCategory","valueCoding":{"system":"urn:oid:2.16.840.1.113883.6.238","code":"2054-5","display":"Black or African American"}},{"url":"text","valueString":"Black or African American"}]},{"url":"http://hl7.org/fhir/us/core/StructureDefinition/us-core-ethnicity","extension":[{"url":"ombCategory","valueCoding":{"system":"urn:oid:2.16.840.1.113883.6.238","code":"2135-2","display":"Hispanic or Latino","userSelected":true}},{"url":"text","valueString":"Hispanic or Latino"}]}],"identifier":[{"type":{"coding":[{"system":"http://terminology.hl7.org/CodeSystem/v2-0203","code":"MR"}]},"system":"https://bonnie-fhir.healthit.gov/","value":"900082319426"}],"name":[{"family":"DENEXPass","given":["BPHDxDuringHospitalizationEnc"]}],"gender":"male","birthDate":"1951-01-10"},"request":{"method":"PUT","url":"Patient/ae8b8236-bf9b-47f9-9c71-4655bca14aba"}},{"fullUrl":"https://madie.cms.gov/Encounter/55509236","resource":{"resourceType":"Encounter","id":"b212cb41-b380-4b9c-af06-64c663b92080","meta":{"profile":["http://hl7.org/fhir/us/qicore/StructureDefinition/qicore-encounter"]},"status":"finished","class":{"system":"http://terminology.hl7.org/CodeSystem/v3-ActCode","code":"AMB","display":"ambulatory"},"type":[{"coding":[{"system":"http://snomed.info/sct","version":"http://snomed.info/sct/731000124108/version/20240301","code":"185463005","display":"Visit out of hours (procedure)","userSelected":true}]}],"subject":{"reference":"Patient/ae8b8236-bf9b-47f9-9c71-4655bca14aba"},"period":{"start":"2025-05-01T08:00:00.000+00:00","end":"2025-05-01T08:30:00.000+00:00"}},"request":{"method":"PUT","url":"Encounter/b212cb41-b380-4b9c-af06-64c663b92080"}},{"fullUrl":"https://madie.cms.gov/Encounter/55509257","resource":{"resourceType":"Encounter","id":"27477628-a047-4e34-b32a-df884de069de","meta":{"profile":["http://hl7.org/fhir/us/qicore/StructureDefinition/qicore-encounter"]},"status":"finished","class":{"system":"http://terminology.hl7.org/CodeSystem/v3-ActCode","code":"IMP","display":"inpatient encounter"},"type":[{"coding":[{"system":"http://www.ama-assn.org/go/cpt","version":"2024","code":"99223","display":"Initial hospital inpatient or observation care, per day, for the evaluation and management of a patient, which requires a medically appropriate history and/or examination and high level of medical decision making. When using total time on the date of the encounter for code selection, 75 minutes must be met or exceeded.","userSelected":true}]}],"subject":{"reference":"Patient/ae8b8236-bf9b-47f9-9c71-4655bca14aba"},"period":{"start":"2024-09-01T08:00:00.000+00:00","end":"2024-09-03T08:30:00.000+00:00"}},"request":{"method":"PUT","url":"Encounter/27477628-a047-4e34-b32a-df884de069de"}},{"fullUrl":"https://madie.cms.gov/Condition/55509232","resource":{"resourceType":"Condition","id":"50023d5e-c67a-445a-b2b4-d01703f78c20","meta":{"profile":["http://hl7.org/fhir/us/qicore/StructureDefinition/qicore-condition"]},"clinicalStatus":{"coding":[{"system":"http://terminology.hl7.org/CodeSystem/condition-clinical","code":"active","display":"active","userSelected":true}]},"verificationStatus":{"coding":[{"system":"http://terminology.hl7.org/CodeSystem/condition-ver-status","code":"confirmed","display":"Confirmed","userSelected":true}]},"category":[{"coding":[{"system":"http://terminology.hl7.org/CodeSystem/condition-category","code":"encounter-diagnosis","display":"Encounter Diagnosis"}]}],"code":{"coding":[{"system":"http://hl7.org/fhir/sid/icd-10-cm","version":"2024","code":"N40.1","display":"Benign prostatic hyperplasia with lower urinary tract symptoms","userSelected":true}]},"subject":{"reference":"Patient/ae8b8236-bf9b-47f9-9c71-4655bca14aba"},"encounter":{"reference":"Encounter/55509251"},"onsetPeriod":{"start":"2024-09-01T08:55:00.000+00:00"}},"request":{"method":"PUT","url":"Condition/50023d5e-c67a-445a-b2b4-d01703f78c20"}},{"fullUrl":"https://madie.cms.gov/Observation/55509233","resource":{"resourceType":"Observation","id":"29cc56c4-bb78-44d0-80a4-ad5a03741b31","meta":{"profile":["http://hl7.org/fhir/us/qicore/StructureDefinition/qicore-observation"]},"status":"final","category":[{"coding":[{"system":"http://terminology.hl7.org/CodeSystem/observation-category","code":"survey","display":"Survey"}]}],"code":{"coding":[{"system":"http://loinc.org","version":"2.76","code":"80976-4","display":"International Prostate Symptom Score [IPSS]","userSelected":true}]},"subject":{"reference":"Patient/ae8b8236-bf9b-47f9-9c71-4655bca14aba"},"effectiveDateTime":"2024-10-01T08:15:00.000+00:00","valueInteger":5},"request":{"method":"PUT","url":"Observation/29cc56c4-bb78-44d0-80a4-ad5a03741b31"}},{"fullUrl":"https://madie.cms.gov/Observation/55509234","resource":{"resourceType":"Observation","id":"cba00b0e-1b49-4d3b-b1c2-045888437503","meta":{"profile":["http://hl7.org/fhir/us/qicore/StructureDefinition/qicore-observation"]},"status":"final","category":[{"coding":[{"system":"http://terminology.hl7.org/CodeSystem/observation-category","code":"survey","display":"Survey"}]}],"code":{"coding":[{"system":"http://loinc.org","version":"2.76","code":"80976-4","display":"International Prostate Symptom Score [IPSS]","userSelected":true}]},"subject":{"reference":"Patient/ae8b8236-bf9b-47f9-9c71-4655bca14aba"},"effectiveDateTime":"2025-06-01T08:15:00.000+00:00","valueInteger":2},"request":{"method":"PUT","url":"Observation/cba00b0e-1b49-4d3b-b1c2-045888437503"}},{"fullUrl":"https://madie.cms.gov/MeasureReport/62934c6b-acbf-4102-8464-48ffc04b074a","resource":{"resourceType":"MeasureReport","id":"62934c6b-acbf-4102-8464-48ffc04b074a","meta":{"profile":["http://hl7.org/fhir/us/cqfmeasures/StructureDefinition/test-case-cqfm"]},"contained":[{"resourceType":"Parameters","id":"5e48c5ca-9d14-4fc9-ab8b-d2c868de67f9-parameters","parameter":[{"name":"subject","valueString":"ae8b8236-bf9b-47f9-9c71-4655bca14aba"}]}],"extension":[{"url":"http://hl7.org/fhir/us/cqfmeasures/StructureDefinition/cqfm-inputParameters","valueReference":{"reference":"#5e48c5ca-9d14-4fc9-ab8b-d2c868de67f9-parameters"}},{"url":"http://hl7.org/fhir/us/cqfmeasures/StructureDefinition/cqfm-testCaseDescription","valueMarkdown":"Male Patient  with, Initial and Followup USS assessment but whose required BPH diagnosis occurs during a hospitalization ecncounter which qualifies as denominator exception"}],"modifierExtension":[{"url":"http://hl7.org/fhir/us/cqfmeasures/StructureDefinition/cqfm-isTestCase","valueBoolean":true}],"status":"complete","type":"individual","measure":"https://madie.cms.gov/Measure/UrinarySymptomScoreChangeAfterBenignProstaticHyperplasiaFHIR","period":{"start":"2025-01-01","end":"2025-12-31"},"group":[{"population":[{"code":{"coding":[{"system":"http://terminology.hl7.org/CodeSystem/measure-population","code":"initial-population","display":"Initial Population"}]},"count":1},{"code":{"coding":[{"system":"http://terminology.hl7.org/CodeSystem/measure-population","code":"denominator","display":"Denominator"}]},"count":1},{"code":{"coding":[{"system":"http://terminology.hl7.org/CodeSystem/measure-population","code":"denominator-exclusion","display":"Denominator Exclusion"}]},"count":1},{"code":{"coding":[{"system":"http://terminology.hl7.org/CodeSystem/measure-population","code":"numerator","display":"Numerator"}]},"count":0}]}]},"request":{"method":"PUT","url":"MeasureReport/62934c6b-acbf-4102-8464-48ffc04b074a"}}]}