{"resourceType":"Bundle","id":"tests-844dab9e-f34d-41dc-bd89-1440551471a6-bundle","type":"transaction","entry":[{"fullUrl":"https://madie.cms.gov/Patient/844dab9e-f34d-41dc-bd89-1440551471a6","resource":{"resourceType":"Patient","id":"844dab9e-f34d-41dc-bd89-1440551471a6","meta":{"profile":["http://hl7.org/fhir/us/qicore/StructureDefinition/qicore-patient"]},"extension":[{"url":"http://hl7.org/fhir/us/core/StructureDefinition/us-core-race","extension":[{"url":"ombCategory","valueCoding":{"system":"urn:oid:2.16.840.1.113883.6.238","code":"2106-3","display":"White"}},{"url":"text","valueString":"White"}]},{"url":"http://hl7.org/fhir/us/core/StructureDefinition/us-core-ethnicity","extension":[{"url":"ombCategory","valueCoding":{"system":"urn:oid:2.16.840.1.113883.6.238","code":"2186-5","display":"Non Hispanic or Latino"}},{"url":"text","valueString":"Non Hispanic or Latino"}]}],"identifier":[{"type":{"coding":[{"system":"http://terminology.hl7.org/CodeSystem/v2-0203","code":"MR"}]},"system":"https://myGoodHealthcare.com/","value":"4851351681610651"}],"name":[{"family":"IPPass","given":["BPHdxGT6MoB4StartofMP"]}],"gender":"male","birthDate":"1970-06-01"},"request":{"method":"PUT","url":"Patient/844dab9e-f34d-41dc-bd89-1440551471a6"}},{"fullUrl":"https://madie.cms.gov/Encounter/635431","resource":{"resourceType":"Encounter","id":"e0a67803-65bf-4b2f-b7ea-6b672e53b39e","meta":{"profile":["http://hl7.org/fhir/us/qicore/StructureDefinition/qicore-encounter"]},"status":"finished","class":{"system":"http://terminology.hl7.org/CodeSystem/v3-ActCode","code":"AMB","display":"ambulatory"},"type":[{"coding":[{"system":"http://snomed.info/sct","version":"http://snomed.info/sct/731000124108/version/20240301","code":"185463005","display":"Visit out of hours (procedure)"}]}],"subject":{"reference":"Patient/844dab9e-f34d-41dc-bd89-1440551471a6"},"period":{"start":"2025-02-12T08:00:00.000+00:00","end":"2025-02-12T08:15:00.000+00:00"}},"request":{"method":"PUT","url":"Encounter/e0a67803-65bf-4b2f-b7ea-6b672e53b39e"}},{"fullUrl":"https://madie.cms.gov/Condition/65461530","resource":{"resourceType":"Condition","id":"af848461-3568-4368-b1ad-fa7e6f2de63a","meta":{"profile":["http://hl7.org/fhir/us/qicore/StructureDefinition/qicore-condition"]},"clinicalStatus":{"coding":[{"system":"http://terminology.hl7.org/CodeSystem/condition-clinical","code":"active","display":"active"}]},"verificationStatus":{"coding":[{"system":"http://terminology.hl7.org/CodeSystem/condition-ver-status","code":"confirmed","display":"Confirmed"}]},"category":[{"coding":[{"system":"http://terminology.hl7.org/CodeSystem/condition-category","code":"encounter-diagnosis","display":"Encounter Diagnosis"}]}],"code":{"coding":[{"system":"http://hl7.org/fhir/sid/icd-10-cm","version":"2024","code":"N40.1","display":"Benign prostatic hyperplasia with lower urinary tract symptoms"}]},"subject":{"reference":"Patient/844dab9e-f34d-41dc-bd89-1440551471a6"},"onsetPeriod":{"start":"2024-01-15T08:00:00.000+00:00"}},"request":{"method":"PUT","url":"Condition/af848461-3568-4368-b1ad-fa7e6f2de63a"}},{"fullUrl":"https://madie.cms.gov/Condition/65461532","resource":{"resourceType":"Condition","id":"afd9dd03-2fe9-447a-acdf-8035a24dd15c","meta":{"profile":["http://hl7.org/fhir/us/qicore/StructureDefinition/qicore-condition"]},"clinicalStatus":{"coding":[{"system":"http://terminology.hl7.org/CodeSystem/condition-clinical","code":"active","display":"active"}]},"verificationStatus":{"coding":[{"system":"http://terminology.hl7.org/CodeSystem/condition-ver-status","code":"confirmed","display":"Confirmed"}]},"category":[{"coding":[{"system":"http://terminology.hl7.org/CodeSystem/condition-category","code":"encounter-diagnosis","display":"Encounter Diagnosis"}]}],"code":{"coding":[{"system":"http://hl7.org/fhir/sid/icd-10-cm","version":"2024","code":"N40.1","display":"Benign prostatic hyperplasia with lower urinary tract symptoms"}]},"subject":{"reference":"Patient/844dab9e-f34d-41dc-bd89-1440551471a6"},"onsetPeriod":{"start":"2024-12-12T08:00:00.000+00:00"}},"request":{"method":"PUT","url":"Condition/afd9dd03-2fe9-447a-acdf-8035a24dd15c"}},{"fullUrl":"https://madie.cms.gov/Observation/6845654","resource":{"resourceType":"Observation","id":"1637f476-257b-4138-bf5c-8673934c8560","meta":{"profile":["http://hl7.org/fhir/us/qicore/StructureDefinition/qicore-observation"]},"status":"final","category":[{"coding":[{"system":"http://terminology.hl7.org/CodeSystem/observation-category","code":"survey","display":"Survey"}]}],"code":{"coding":[{"system":"http://loinc.org","version":"2.76","code":"80976-4","display":"International Prostate Symptom Score [IPSS]"}]},"subject":{"reference":"Patient/844dab9e-f34d-41dc-bd89-1440551471a6"},"effectiveDateTime":"2025-12-11T08:00:00.000+00:00","valueInteger":5},"request":{"method":"PUT","url":"Observation/1637f476-257b-4138-bf5c-8673934c8560"}},{"fullUrl":"https://madie.cms.gov/Observation/132135","resource":{"resourceType":"Observation","id":"080751a1-ad2c-4503-81df-2d7ce2ded9c3","meta":{"profile":["http://hl7.org/fhir/us/qicore/StructureDefinition/qicore-observation"]},"status":"final","category":[{"coding":[{"system":"http://terminology.hl7.org/CodeSystem/observation-category","code":"survey","display":"Survey"}]}],"code":{"coding":[{"system":"http://loinc.org","version":"2.76","code":"80976-4","display":"International Prostate Symptom Score [IPSS]"}]},"subject":{"reference":"Patient/844dab9e-f34d-41dc-bd89-1440551471a6"},"effectiveDateTime":"2024-12-13T23:59:00.000+00:00","valueInteger":2},"request":{"method":"PUT","url":"Observation/080751a1-ad2c-4503-81df-2d7ce2ded9c3"}},{"fullUrl":"https://madie.cms.gov/MeasureReport/1bbf5257-b7d0-4343-b4af-63a58401f2da","resource":{"resourceType":"MeasureReport","id":"1bbf5257-b7d0-4343-b4af-63a58401f2da","meta":{"profile":["http://hl7.org/fhir/us/cqfmeasures/StructureDefinition/test-case-cqfm"]},"contained":[{"resourceType":"Parameters","id":"2a5d26e9-1170-460e-81e8-67a6c6352821-parameters","parameter":[{"name":"subject","valueString":"844dab9e-f34d-41dc-bd89-1440551471a6"}]}],"extension":[{"url":"http://hl7.org/fhir/us/cqfmeasures/StructureDefinition/cqfm-inputParameters","valueReference":{"reference":"#2a5d26e9-1170-460e-81e8-67a6c6352821-parameters"}},{"url":"http://hl7.org/fhir/us/cqfmeasures/StructureDefinition/cqfm-testCaseDescription","valueMarkdown":"Male Patient with OV, Initial and Followup USS Assessment and 2 BPH of which earliest GT 6 months before start of MP and one which falls in the 6 month window around the start of the MP. "}],"modifierExtension":[{"url":"http://hl7.org/fhir/us/cqfmeasures/StructureDefinition/cqfm-isTestCase","valueBoolean":true}],"status":"complete","type":"individual","measure":"https://madie.cms.gov/Measure/UrinarySymptomScoreChangeAfterBenignProstaticHyperplasiaFHIR","period":{"start":"2025-01-01","end":"2025-12-31"},"group":[{"population":[{"code":{"coding":[{"system":"http://terminology.hl7.org/CodeSystem/measure-population","code":"initial-population","display":"Initial Population"}]},"count":1},{"code":{"coding":[{"system":"http://terminology.hl7.org/CodeSystem/measure-population","code":"denominator","display":"Denominator"}]},"count":1},{"code":{"coding":[{"system":"http://terminology.hl7.org/CodeSystem/measure-population","code":"denominator-exclusion","display":"Denominator Exclusion"}]},"count":0},{"code":{"coding":[{"system":"http://terminology.hl7.org/CodeSystem/measure-population","code":"numerator","display":"Numerator"}]},"count":0}]}]},"request":{"method":"PUT","url":"MeasureReport/1bbf5257-b7d0-4343-b4af-63a58401f2da"}}]}