{"resourceType":"Bundle","id":"tests-ff1c0120-5339-4ec2-8a7e-8c03fb63fd3c-bundle","type":"transaction","entry":[{"fullUrl":"https://madie.cms.gov/Patient/ff1c0120-5339-4ec2-8a7e-8c03fb63fd3c","resource":{"resourceType":"Patient","id":"ff1c0120-5339-4ec2-8a7e-8c03fb63fd3c","meta":{"profile":["http://hl7.org/fhir/us/qicore/StructureDefinition/qicore-patient"]},"extension":[{"url":"http://hl7.org/fhir/us/core/StructureDefinition/us-core-race","extension":[{"url":"ombCategory","valueCoding":{"system":"urn:oid:2.16.840.1.113883.6.238","code":"2028-9","display":"Asian"}},{"url":"text","valueString":"Asian"}]},{"url":"http://hl7.org/fhir/us/core/StructureDefinition/us-core-ethnicity","extension":[{"url":"ombCategory","valueCoding":{"system":"urn:oid:2.16.840.1.113883.6.238","code":"2135-2","display":"Hispanic or Latino"}},{"url":"text","valueString":"Hispanic or Latino"}]}],"identifier":[{"type":{"coding":[{"system":"http://terminology.hl7.org/CodeSystem/v2-0203","code":"MR"}]},"system":"https://bonnie-fhir.healthit.gov/","value":"51616498461313"}],"active":true,"name":[{"use":"usual","family":"IPFail","given":["NoUSSAfterDx"]}],"gender":"male","birthDate":"1951-01-21"},"request":{"method":"PUT","url":"Patient/ff1c0120-5339-4ec2-8a7e-8c03fb63fd3c"}},{"fullUrl":"https://madie.cms.gov/Condition/6022e5f1eb00b000000af458","resource":{"resourceType":"Condition","id":"7cb67ecd-e350-48cf-8645-7aeda33b7727","meta":{"profile":["http://hl7.org/fhir/us/qicore/StructureDefinition/qicore-condition"]},"clinicalStatus":{"coding":[{"system":"http://terminology.hl7.org/CodeSystem/condition-clinical","code":"active","display":"Active"}]},"verificationStatus":{"coding":[{"system":"http://terminology.hl7.org/CodeSystem/condition-ver-status","code":"confirmed","display":"Confirmed"}]},"category":[{"coding":[{"system":"http://terminology.hl7.org/CodeSystem/condition-category","code":"problem-list-item","display":"Problem List Item"}]}],"code":{"coding":[{"system":"http://hl7.org/fhir/sid/icd-10-cm","version":"2024","code":"N40.1"}]},"subject":{"reference":"Patient/ff1c0120-5339-4ec2-8a7e-8c03fb63fd3c"},"onsetDateTime":"2025-01-01T08:00:00+00:00"},"request":{"method":"PUT","url":"Condition/7cb67ecd-e350-48cf-8645-7aeda33b7727"}},{"fullUrl":"https://madie.cms.gov/Encounter/601ce2be3b14ea0000bad60a","resource":{"resourceType":"Encounter","id":"0d635d9c-58a0-4dc5-bebb-6e293a938b9d","meta":{"profile":["http://hl7.org/fhir/us/qicore/StructureDefinition/qicore-encounter"]},"status":"finished","class":{"system":"http://terminology.hl7.org/CodeSystem/v3-ActCode","code":"AMB","display":"ambulatory"},"type":[{"coding":[{"system":"http://www.ama-assn.org/go/cpt","version":"2024","code":"99214"}]}],"subject":{"reference":"Patient/ff1c0120-5339-4ec2-8a7e-8c03fb63fd3c"},"period":{"start":"2025-01-01T08:00:00+00:00","end":"2025-01-01T08:15:00+00:00"}},"request":{"method":"PUT","url":"Encounter/0d635d9c-58a0-4dc5-bebb-6e293a938b9d"}},{"fullUrl":"https://madie.cms.gov/MeasureReport/e37df91b-fe29-4c8a-bd98-ec3741b7d984","resource":{"resourceType":"MeasureReport","id":"e37df91b-fe29-4c8a-bd98-ec3741b7d984","meta":{"profile":["http://hl7.org/fhir/us/cqfmeasures/StructureDefinition/test-case-cqfm"]},"contained":[{"resourceType":"Parameters","id":"f13fedf3-a015-4118-8a24-11a774ee8483-parameters","parameter":[{"name":"subject","valueString":"ff1c0120-5339-4ec2-8a7e-8c03fb63fd3c"}]}],"extension":[{"url":"http://hl7.org/fhir/us/cqfmeasures/StructureDefinition/cqfm-inputParameters","valueReference":{"reference":"#f13fedf3-a015-4118-8a24-11a774ee8483-parameters"}},{"url":"http://hl7.org/fhir/us/cqfmeasures/StructureDefinition/cqfm-testCaseDescription","valueMarkdown":"Male Patient with BPH Dx but does not have Urinary Assessments Performed."}],"modifierExtension":[{"url":"http://hl7.org/fhir/us/cqfmeasures/StructureDefinition/cqfm-isTestCase","valueBoolean":true}],"status":"complete","type":"individual","measure":"https://madie.cms.gov/Measure/UrinarySymptomScoreChangeAfterBenignProstaticHyperplasiaFHIR","period":{"start":"2025-01-01","end":"2025-12-31"},"group":[{"population":[{"code":{"coding":[{"system":"http://terminology.hl7.org/CodeSystem/measure-population","code":"initial-population","display":"Initial Population"}]},"count":0},{"code":{"coding":[{"system":"http://terminology.hl7.org/CodeSystem/measure-population","code":"denominator","display":"Denominator"}]},"count":0},{"code":{"coding":[{"system":"http://terminology.hl7.org/CodeSystem/measure-population","code":"denominator-exclusion","display":"Denominator Exclusion"}]},"count":0},{"code":{"coding":[{"system":"http://terminology.hl7.org/CodeSystem/measure-population","code":"numerator","display":"Numerator"}]},"count":0}]}]},"request":{"method":"PUT","url":"MeasureReport/e37df91b-fe29-4c8a-bd98-ec3741b7d984"}}]}