{"resourceType":"Bundle","id":"tests-6552cc29-c4e2-441f-9ae5-41d3a2f5aea4-bundle","type":"transaction","entry":[{"fullUrl":"https://madie.cms.gov/Patient/6552cc29-c4e2-441f-9ae5-41d3a2f5aea4","resource":{"resourceType":"Patient","id":"6552cc29-c4e2-441f-9ae5-41d3a2f5aea4","meta":{"profile":["http://hl7.org/fhir/us/qicore/StructureDefinition/qicore-patient"]},"extension":[{"url":"http://hl7.org/fhir/us/core/StructureDefinition/us-core-race","extension":[{"url":"ombCategory","valueCoding":{"system":"urn:oid:2.16.840.1.113883.6.238","code":"2054-5","display":"Black or African American"}},{"url":"text","valueString":"Black or African American"}]},{"url":"http://hl7.org/fhir/us/core/StructureDefinition/us-core-ethnicity","extension":[{"url":"ombCategory","valueCoding":{"system":"urn:oid:2.16.840.1.113883.6.238","code":"2186-5","display":"Non Hispanic or Latino","userSelected":true}},{"url":"text","valueString":"Non Hispanic or Latino"}]}],"identifier":[{"type":{"coding":[{"system":"http://terminology.hl7.org/CodeSystem/v2-0203","code":"MR"}]},"system":"http://myGoodHealth.com","value":"900082319426"}],"name":[{"family":"DENEXFail","given":["BPHDxInHospitalEncGT30DaysAfterEnc"]}],"gender":"male","birthDate":"1978-01-05"},"request":{"method":"PUT","url":"Patient/6552cc29-c4e2-441f-9ae5-41d3a2f5aea4"}},{"fullUrl":"https://madie.cms.gov/Encounter/55509236","resource":{"resourceType":"Encounter","id":"235f16b3-34d3-45d2-b2f0-a48489d5acbc","meta":{"profile":["http://hl7.org/fhir/us/qicore/StructureDefinition/qicore-encounter"]},"status":"finished","class":{"system":"http://terminology.hl7.org/CodeSystem/v3-ActCode","code":"AMB","display":"ambulatory"},"type":[{"coding":[{"system":"http://snomed.info/sct","version":"http://snomed.info/sct/731000124108/version/20240301","code":"185463005","display":"Visit out of hours (procedure)","userSelected":true}]}],"subject":{"reference":"Patient/6552cc29-c4e2-441f-9ae5-41d3a2f5aea4"},"period":{"start":"2025-05-01T08:00:00.000+00:00","end":"2025-05-01T08:30:00.000+00:00"}},"request":{"method":"PUT","url":"Encounter/235f16b3-34d3-45d2-b2f0-a48489d5acbc"}},{"fullUrl":"https://madie.cms.gov/Encounter/55509257","resource":{"resourceType":"Encounter","id":"d6ea2187-d73e-4f2b-ac87-49c20577720b","meta":{"profile":["http://hl7.org/fhir/us/qicore/StructureDefinition/qicore-encounter"]},"status":"finished","class":{"system":"http://terminology.hl7.org/CodeSystem/v3-ActCode","code":"IMP","display":"inpatient encounter"},"type":[{"coding":[{"system":"http://www.ama-assn.org/go/cpt","version":"2024","code":"99223","display":"Initial hospital inpatient or observation care, per day, for the evaluation and management of a patient, which requires a medically appropriate history and/or examination and high level of medical decision making. When using total time on the date of the encounter for code selection, 75 minutes must be met or exceeded.","userSelected":true}]}],"subject":{"reference":"Patient/6552cc29-c4e2-441f-9ae5-41d3a2f5aea4"},"period":{"start":"2024-10-01T08:00:00.000+00:00","end":"2024-10-05T08:30:00.000+00:00"}},"request":{"method":"PUT","url":"Encounter/d6ea2187-d73e-4f2b-ac87-49c20577720b"}},{"fullUrl":"https://madie.cms.gov/Condition/55509232","resource":{"resourceType":"Condition","id":"4920f22f-0408-4c5e-b43d-ab9c7e251d70","meta":{"profile":["http://hl7.org/fhir/us/qicore/StructureDefinition/qicore-condition"]},"clinicalStatus":{"coding":[{"system":"http://terminology.hl7.org/CodeSystem/condition-clinical","code":"active","display":"active","userSelected":true}]},"verificationStatus":{"coding":[{"system":"http://terminology.hl7.org/CodeSystem/condition-ver-status","code":"confirmed","display":"Confirmed","userSelected":true}]},"category":[{"coding":[{"system":"http://terminology.hl7.org/CodeSystem/condition-category","code":"encounter-diagnosis","display":"Encounter Diagnosis"}]}],"code":{"coding":[{"system":"http://hl7.org/fhir/sid/icd-10-cm","version":"2024","code":"N40.1","display":"Benign prostatic hyperplasia with lower urinary tract symptoms","userSelected":true}]},"subject":{"reference":"Patient/6552cc29-c4e2-441f-9ae5-41d3a2f5aea4"},"encounter":{"reference":"Encounter/55509251"},"onsetPeriod":{"start":"2024-11-07T08:55:00.000+00:00"}},"request":{"method":"PUT","url":"Condition/4920f22f-0408-4c5e-b43d-ab9c7e251d70"}},{"fullUrl":"https://madie.cms.gov/Observation/55509233","resource":{"resourceType":"Observation","id":"5a74fff2-d379-4b18-a7de-111c37c8459c","meta":{"profile":["http://hl7.org/fhir/us/qicore/StructureDefinition/qicore-observation"]},"status":"final","category":[{"coding":[{"system":"http://terminology.hl7.org/CodeSystem/observation-category","code":"survey","display":"Survey"}]}],"code":{"coding":[{"system":"http://loinc.org","version":"2.76","code":"80976-4","display":"International Prostate Symptom Score [IPSS]","userSelected":true}]},"subject":{"reference":"Patient/6552cc29-c4e2-441f-9ae5-41d3a2f5aea4"},"effectiveDateTime":"2024-12-01T08:15:00.000+00:00","valueInteger":9},"request":{"method":"PUT","url":"Observation/5a74fff2-d379-4b18-a7de-111c37c8459c"}},{"fullUrl":"https://madie.cms.gov/Observation/55509234","resource":{"resourceType":"Observation","id":"502d3a48-9c83-46eb-adfb-008166394612","meta":{"profile":["http://hl7.org/fhir/us/qicore/StructureDefinition/qicore-observation"]},"status":"final","category":[{"coding":[{"system":"http://terminology.hl7.org/CodeSystem/observation-category","code":"survey","display":"Survey"}]}],"code":{"coding":[{"system":"http://loinc.org","version":"2.76","code":"80976-4","display":"International Prostate Symptom Score [IPSS]","userSelected":true}]},"subject":{"reference":"Patient/6552cc29-c4e2-441f-9ae5-41d3a2f5aea4"},"effectiveDateTime":"2025-06-01T08:15:00.000+00:00","valueInteger":7},"request":{"method":"PUT","url":"Observation/502d3a48-9c83-46eb-adfb-008166394612"}},{"fullUrl":"https://madie.cms.gov/MeasureReport/dc642ee7-c07b-4a3d-a73d-a11868175b7e","resource":{"resourceType":"MeasureReport","id":"dc642ee7-c07b-4a3d-a73d-a11868175b7e","meta":{"profile":["http://hl7.org/fhir/us/cqfmeasures/StructureDefinition/test-case-cqfm"]},"contained":[{"resourceType":"Parameters","id":"b18a45ee-7275-4bec-8a68-6fbcdcf5888b-parameters","parameter":[{"name":"subject","valueString":"6552cc29-c4e2-441f-9ae5-41d3a2f5aea4"}]}],"extension":[{"url":"http://hl7.org/fhir/us/cqfmeasures/StructureDefinition/cqfm-inputParameters","valueReference":{"reference":"#b18a45ee-7275-4bec-8a68-6fbcdcf5888b-parameters"}},{"url":"http://hl7.org/fhir/us/cqfmeasures/StructureDefinition/cqfm-testCaseDescription","valueMarkdown":"Patient with OV in MP, initial and followup USS, has BPH Dx GT 30 days after hospitalization Encounter"}],"modifierExtension":[{"url":"http://hl7.org/fhir/us/cqfmeasures/StructureDefinition/cqfm-isTestCase","valueBoolean":true}],"status":"complete","type":"individual","measure":"https://madie.cms.gov/Measure/UrinarySymptomScoreChangeAfterBenignProstaticHyperplasiaFHIR","period":{"start":"2025-01-01","end":"2025-12-31"},"group":[{"population":[{"code":{"coding":[{"system":"http://terminology.hl7.org/CodeSystem/measure-population","code":"initial-population","display":"Initial Population"}]},"count":1},{"code":{"coding":[{"system":"http://terminology.hl7.org/CodeSystem/measure-population","code":"denominator","display":"Denominator"}]},"count":1},{"code":{"coding":[{"system":"http://terminology.hl7.org/CodeSystem/measure-population","code":"denominator-exclusion","display":"Denominator Exclusion"}]},"count":0},{"code":{"coding":[{"system":"http://terminology.hl7.org/CodeSystem/measure-population","code":"numerator","display":"Numerator"}]},"count":0}]}]},"request":{"method":"PUT","url":"MeasureReport/dc642ee7-c07b-4a3d-a73d-a11868175b7e"}}]}