{"resourceType":"Bundle","id":"tests-3ab3ac1d-9b5e-4087-8862-dcb2562fb90f-bundle","type":"transaction","entry":[{"fullUrl":"https://madie.cms.gov/Patient/3ab3ac1d-9b5e-4087-8862-dcb2562fb90f","resource":{"resourceType":"Patient","id":"3ab3ac1d-9b5e-4087-8862-dcb2562fb90f","meta":{"profile":["http://hl7.org/fhir/us/qicore/StructureDefinition/qicore-patient"]},"extension":[{"url":"http://hl7.org/fhir/us/core/StructureDefinition/us-core-race","extension":[{"url":"ombCategory","valueCoding":{"system":"urn:oid:2.16.840.1.113883.6.238","code":"2106-3","display":"White"}},{"url":"text","valueString":"White"}]},{"url":"http://hl7.org/fhir/us/core/StructureDefinition/us-core-ethnicity","extension":[{"url":"ombCategory","valueCoding":{"system":"urn:oid:2.16.840.1.113883.6.238","code":"2135-2","display":"Hispanic or Latino","userSelected":true}},{"url":"text","valueString":"Hispanic or Latino"}]}],"identifier":[{"type":{"coding":[{"system":"http://terminology.hl7.org/CodeSystem/v2-0203","code":"MR"}]},"system":"https://smarthealth.com","value":"960082319426"}],"name":[{"family":"DENEXPass","given":["ResolvedUrinaryRetentionDx"]}],"gender":"male","birthDate":"1978-01-10"},"request":{"method":"PUT","url":"Patient/3ab3ac1d-9b5e-4087-8862-dcb2562fb90f"}},{"fullUrl":"https://madie.cms.gov/Encounter/55509231","resource":{"resourceType":"Encounter","id":"8632be20-3ef3-424f-8b21-009401f9b85a","meta":{"profile":["http://hl7.org/fhir/us/qicore/StructureDefinition/qicore-encounter"]},"status":"finished","class":{"system":"http://terminology.hl7.org/CodeSystem/v3-ActCode","code":"AMB","display":"ambulatory"},"type":[{"coding":[{"system":"http://snomed.info/sct","version":"http://snomed.info/sct/731000124108/version/20240301","code":"185464004","display":"Out of hours visit - not night visit (procedure)","userSelected":false}]}],"subject":{"reference":"Patient/3ab3ac1d-9b5e-4087-8862-dcb2562fb90f"},"period":{"start":"2025-05-01T08:00:00.000+00:00","end":"2025-05-01T08:30:00.000+00:00"}},"request":{"method":"PUT","url":"Encounter/8632be20-3ef3-424f-8b21-009401f9b85a"}},{"fullUrl":"https://madie.cms.gov/Condition/55509232","resource":{"resourceType":"Condition","id":"8ac379ad-812d-4238-8beb-acc9dbdb5e71","meta":{"profile":["http://hl7.org/fhir/us/qicore/StructureDefinition/qicore-condition"]},"clinicalStatus":{"coding":[{"system":"http://terminology.hl7.org/CodeSystem/condition-clinical","code":"active","display":"active","userSelected":true}]},"verificationStatus":{"coding":[{"system":"http://terminology.hl7.org/CodeSystem/condition-ver-status","code":"confirmed","display":"Confirmed","userSelected":true}]},"category":[{"coding":[{"system":"http://terminology.hl7.org/CodeSystem/condition-category","code":"encounter-diagnosis","display":"Encounter Diagnosis"}]}],"code":{"coding":[{"system":"http://hl7.org/fhir/sid/icd-10-cm","version":"2024","code":"N40.1","display":"Benign prostatic hyperplasia with lower urinary tract symptoms","userSelected":true}]},"subject":{"reference":"Patient/3ab3ac1d-9b5e-4087-8862-dcb2562fb90f"},"onsetPeriod":{"start":"2024-12-14T15:00:00.000+00:00"}},"request":{"method":"PUT","url":"Condition/8ac379ad-812d-4238-8beb-acc9dbdb5e71"}},{"fullUrl":"https://madie.cms.gov/Condition/55509255","resource":{"resourceType":"Condition","id":"fddcd067-0f40-43f0-8c3c-8d68d788a290","meta":{"profile":["http://hl7.org/fhir/us/qicore/StructureDefinition/qicore-condition"]},"clinicalStatus":{"coding":[{"system":"http://terminology.hl7.org/CodeSystem/condition-clinical","code":"resolved","display":"Resolved","userSelected":true}]},"verificationStatus":{"coding":[{"system":"http://terminology.hl7.org/CodeSystem/condition-ver-status","code":"confirmed","display":"Confirmed","userSelected":true}]},"category":[{"coding":[{"system":"http://terminology.hl7.org/CodeSystem/condition-category","code":"encounter-diagnosis","display":"Encounter Diagnosis"}]}],"code":{"coding":[{"system":"http://snomed.info/sct","version":"http://snomed.info/sct/731000124108/version/20240301","code":"236648008","display":"Acute retention of urine (disorder)","userSelected":false}]},"subject":{"reference":"Patient/3ab3ac1d-9b5e-4087-8862-dcb2562fb90f"},"onsetPeriod":{"start":"2024-12-31T00:00:00.000+00:00"}},"request":{"method":"PUT","url":"Condition/fddcd067-0f40-43f0-8c3c-8d68d788a290"}},{"fullUrl":"https://madie.cms.gov/Observation/55509233","resource":{"resourceType":"Observation","id":"c1bb43f2-d29a-4b8e-8c62-2fbe93ce101f","meta":{"profile":["http://hl7.org/fhir/us/qicore/StructureDefinition/qicore-observation"]},"status":"final","category":[{"coding":[{"system":"http://terminology.hl7.org/CodeSystem/observation-category","code":"survey","display":"Survey"}]}],"code":{"coding":[{"system":"http://loinc.org","version":"2.76","code":"80883-2","display":"American Urological Association Symptom Index [AUASI]","userSelected":true}]},"subject":{"reference":"Patient/3ab3ac1d-9b5e-4087-8862-dcb2562fb90f"},"effectiveDateTime":"2025-01-02T08:15:00.000+00:00","valueInteger":5},"request":{"method":"PUT","url":"Observation/c1bb43f2-d29a-4b8e-8c62-2fbe93ce101f"}},{"fullUrl":"https://madie.cms.gov/Observation/55509234","resource":{"resourceType":"Observation","id":"9f1a005e-616a-499c-9549-15a24ff96525","meta":{"profile":["http://hl7.org/fhir/us/qicore/StructureDefinition/qicore-observation"]},"status":"final","category":[{"coding":[{"system":"http://terminology.hl7.org/CodeSystem/observation-category","code":"survey","display":"Survey"}]}],"code":{"coding":[{"system":"http://loinc.org","version":"2.76","code":"80976-4","display":"International Prostate Symptom Score [IPSS]","userSelected":true}]},"subject":{"reference":"Patient/3ab3ac1d-9b5e-4087-8862-dcb2562fb90f"},"effectiveDateTime":"2025-12-01T08:15:00.000+00:00","valueInteger":2},"request":{"method":"PUT","url":"Observation/9f1a005e-616a-499c-9549-15a24ff96525"}},{"fullUrl":"https://madie.cms.gov/MeasureReport/062010db-ed1e-49cb-8167-e0773ec855c1","resource":{"resourceType":"MeasureReport","id":"062010db-ed1e-49cb-8167-e0773ec855c1","meta":{"profile":["http://hl7.org/fhir/us/cqfmeasures/StructureDefinition/test-case-cqfm"]},"contained":[{"resourceType":"Parameters","id":"b36aea9e-f6c0-4b90-b4de-b9717b7cc819-parameters","parameter":[{"name":"subject","valueString":"3ab3ac1d-9b5e-4087-8862-dcb2562fb90f"}]}],"extension":[{"url":"http://hl7.org/fhir/us/cqfmeasures/StructureDefinition/cqfm-inputParameters","valueReference":{"reference":"#b36aea9e-f6c0-4b90-b4de-b9717b7cc819-parameters"}},{"url":"http://hl7.org/fhir/us/cqfmeasures/StructureDefinition/cqfm-testCaseDescription","valueMarkdown":"Patient meeting Initial Population and Denominator fails Denominator Exclusion  because Urinary Retention Dx has Clinical Status with resolution."}],"modifierExtension":[{"url":"http://hl7.org/fhir/us/cqfmeasures/StructureDefinition/cqfm-isTestCase","valueBoolean":true}],"status":"complete","type":"individual","measure":"https://madie.cms.gov/Measure/UrinarySymptomScoreChangeAfterBenignProstaticHyperplasiaFHIR","period":{"start":"2025-01-01","end":"2025-12-31"},"group":[{"population":[{"code":{"coding":[{"system":"http://terminology.hl7.org/CodeSystem/measure-population","code":"initial-population","display":"Initial Population"}]},"count":1},{"code":{"coding":[{"system":"http://terminology.hl7.org/CodeSystem/measure-population","code":"denominator","display":"Denominator"}]},"count":1},{"code":{"coding":[{"system":"http://terminology.hl7.org/CodeSystem/measure-population","code":"denominator-exclusion","display":"Denominator Exclusion"}]},"count":0},{"code":{"coding":[{"system":"http://terminology.hl7.org/CodeSystem/measure-population","code":"numerator","display":"Numerator"}]},"count":0}]}]},"request":{"method":"PUT","url":"MeasureReport/062010db-ed1e-49cb-8167-e0773ec855c1"}}]}