{"resourceType":"Bundle","id":"tests-623a7f40-c265-4e42-a5c5-6f54e20b19df-bundle","type":"transaction","entry":[{"fullUrl":"https://madie.cms.gov/Patient/623a7f40-c265-4e42-a5c5-6f54e20b19df","resource":{"resourceType":"Patient","id":"623a7f40-c265-4e42-a5c5-6f54e20b19df","meta":{"profile":["http://hl7.org/fhir/us/qicore/StructureDefinition/qicore-patient"]},"extension":[{"url":"http://hl7.org/fhir/us/core/StructureDefinition/us-core-race","extension":[{"url":"ombCategory","valueCoding":{"system":"urn:oid:2.16.840.1.113883.6.238","code":"2054-5","display":"Black or African American"}},{"url":"text","valueString":"Black or African American"}]},{"url":"http://hl7.org/fhir/us/core/StructureDefinition/us-core-ethnicity","extension":[{"url":"ombCategory","valueCoding":{"system":"urn:oid:2.16.840.1.113883.6.238","code":"2135-2","display":"Hispanic or Latino","userSelected":true}},{"url":"text","valueString":"Hispanic or Latino"}]}],"identifier":[{"type":{"coding":[{"system":"http://terminology.hl7.org/CodeSystem/v2-0203","code":"MR"}]},"system":"https://GoodHealthCare.com","value":"960082319426"}],"name":[{"family":"DENEXFail","given":["UrinaryRetentionDxUnconfirmed"]}],"gender":"male","birthDate":"1969-01-01"},"request":{"method":"PUT","url":"Patient/623a7f40-c265-4e42-a5c5-6f54e20b19df"}},{"fullUrl":"https://madie.cms.gov/Encounter/55509231","resource":{"resourceType":"Encounter","id":"79d6459f-76dd-466b-827b-140599bed519","meta":{"profile":["http://hl7.org/fhir/us/qicore/StructureDefinition/qicore-encounter"]},"status":"finished","class":{"system":"http://terminology.hl7.org/CodeSystem/v3-ActCode","code":"AMB","display":"ambulatory"},"type":[{"coding":[{"system":"http://snomed.info/sct","version":"http://snomed.info/sct/731000124108/version/20240301","code":"185464004","display":"Out of hours visit - not night visit (procedure)","userSelected":false}]}],"subject":{"reference":"Patient/623a7f40-c265-4e42-a5c5-6f54e20b19df"},"period":{"start":"2025-05-01T08:00:00.000+00:00","end":"2025-05-01T08:30:00.000+00:00"}},"request":{"method":"PUT","url":"Encounter/79d6459f-76dd-466b-827b-140599bed519"}},{"fullUrl":"https://madie.cms.gov/Condition/55509232","resource":{"resourceType":"Condition","id":"bcbab3f9-97d1-45a2-8990-31a972f05900","meta":{"profile":["http://hl7.org/fhir/us/qicore/StructureDefinition/qicore-condition"]},"clinicalStatus":{"coding":[{"system":"http://terminology.hl7.org/CodeSystem/condition-clinical","code":"active","display":"active","userSelected":true}]},"verificationStatus":{"coding":[{"system":"http://terminology.hl7.org/CodeSystem/condition-ver-status","code":"confirmed","display":"Confirmed","userSelected":true}]},"category":[{"coding":[{"system":"http://terminology.hl7.org/CodeSystem/condition-category","code":"encounter-diagnosis","display":"Encounter Diagnosis"}]}],"code":{"coding":[{"system":"http://hl7.org/fhir/sid/icd-10-cm","version":"2024","code":"N40.1","display":"Benign prostatic hyperplasia with lower urinary tract symptoms","userSelected":true}]},"subject":{"reference":"Patient/623a7f40-c265-4e42-a5c5-6f54e20b19df"},"onsetPeriod":{"start":"2024-12-14T15:00:00.000+00:00"}},"request":{"method":"PUT","url":"Condition/bcbab3f9-97d1-45a2-8990-31a972f05900"}},{"fullUrl":"https://madie.cms.gov/Condition/55509255","resource":{"resourceType":"Condition","id":"3dc691fe-c919-46c9-af1d-301fa99d21f9","meta":{"profile":["http://hl7.org/fhir/us/qicore/StructureDefinition/qicore-condition"]},"clinicalStatus":{"coding":[{"system":"http://terminology.hl7.org/CodeSystem/condition-clinical","code":"active","display":"active","userSelected":true}]},"verificationStatus":{"coding":[{"system":"http://terminology.hl7.org/CodeSystem/condition-ver-status","code":"unconfirmed","display":"Unconfirmed","userSelected":true}]},"category":[{"coding":[{"system":"http://terminology.hl7.org/CodeSystem/condition-category","code":"encounter-diagnosis","display":"Encounter Diagnosis"}]}],"code":{"coding":[{"system":"http://snomed.info/sct","version":"http://snomed.info/sct/731000124108/version/20240301","code":"267064002","display":"Retention of urine (disorder)","userSelected":false}]},"subject":{"reference":"Patient/623a7f40-c265-4e42-a5c5-6f54e20b19df"},"onsetPeriod":{"start":"2024-12-31T00:00:00.000+00:00"}},"request":{"method":"PUT","url":"Condition/3dc691fe-c919-46c9-af1d-301fa99d21f9"}},{"fullUrl":"https://madie.cms.gov/Observation/55509233","resource":{"resourceType":"Observation","id":"37b31f1b-a280-446c-b5ef-12207119392e","meta":{"profile":["http://hl7.org/fhir/us/qicore/StructureDefinition/qicore-observation"]},"status":"final","category":[{"coding":[{"system":"http://terminology.hl7.org/CodeSystem/observation-category","code":"survey","display":"Survey"}]}],"code":{"coding":[{"system":"http://loinc.org","version":"2.76","code":"80976-4","display":"International Prostate Symptom Score [IPSS]","userSelected":true}]},"subject":{"reference":"Patient/623a7f40-c265-4e42-a5c5-6f54e20b19df"},"effectiveDateTime":"2025-01-02T08:15:00.000+00:00","valueInteger":4},"request":{"method":"PUT","url":"Observation/37b31f1b-a280-446c-b5ef-12207119392e"}},{"fullUrl":"https://madie.cms.gov/Observation/55509234","resource":{"resourceType":"Observation","id":"abe3626f-30f9-472c-a109-734007ea3589","meta":{"profile":["http://hl7.org/fhir/us/qicore/StructureDefinition/qicore-observation"]},"status":"final","category":[{"coding":[{"system":"http://terminology.hl7.org/CodeSystem/observation-category","code":"survey","display":"Survey"}]}],"code":{"coding":[{"system":"http://loinc.org","version":"2.76","code":"80976-4","display":"International Prostate Symptom Score [IPSS]","userSelected":true}]},"subject":{"reference":"Patient/623a7f40-c265-4e42-a5c5-6f54e20b19df"},"effectiveDateTime":"2025-12-01T08:15:00.000+00:00","valueInteger":2},"request":{"method":"PUT","url":"Observation/abe3626f-30f9-472c-a109-734007ea3589"}},{"fullUrl":"https://madie.cms.gov/MeasureReport/4400b3cc-f3c9-4ee7-93f5-c3a5c8b90de1","resource":{"resourceType":"MeasureReport","id":"4400b3cc-f3c9-4ee7-93f5-c3a5c8b90de1","meta":{"profile":["http://hl7.org/fhir/us/cqfmeasures/StructureDefinition/test-case-cqfm"]},"contained":[{"resourceType":"Parameters","id":"14f71327-b951-41f8-b327-40956fa24263-parameters","parameter":[{"name":"subject","valueString":"623a7f40-c265-4e42-a5c5-6f54e20b19df"}]}],"extension":[{"url":"http://hl7.org/fhir/us/cqfmeasures/StructureDefinition/cqfm-inputParameters","valueReference":{"reference":"#14f71327-b951-41f8-b327-40956fa24263-parameters"}},{"url":"http://hl7.org/fhir/us/cqfmeasures/StructureDefinition/cqfm-testCaseDescription","valueMarkdown":"Patient meeting initial population and denominator criteria fails denominator exclusion despite having Urinary Retention Diagnosis because it is of unconfirmed status"}],"modifierExtension":[{"url":"http://hl7.org/fhir/us/cqfmeasures/StructureDefinition/cqfm-isTestCase","valueBoolean":true}],"status":"complete","type":"individual","measure":"https://madie.cms.gov/Measure/UrinarySymptomScoreChangeAfterBenignProstaticHyperplasiaFHIR","period":{"start":"2025-01-01","end":"2025-12-31"},"group":[{"population":[{"code":{"coding":[{"system":"http://terminology.hl7.org/CodeSystem/measure-population","code":"initial-population","display":"Initial Population"}]},"count":1},{"code":{"coding":[{"system":"http://terminology.hl7.org/CodeSystem/measure-population","code":"denominator","display":"Denominator"}]},"count":1},{"code":{"coding":[{"system":"http://terminology.hl7.org/CodeSystem/measure-population","code":"denominator-exclusion","display":"Denominator Exclusion"}]},"count":0},{"code":{"coding":[{"system":"http://terminology.hl7.org/CodeSystem/measure-population","code":"numerator","display":"Numerator"}]},"count":0}]}]},"request":{"method":"PUT","url":"MeasureReport/4400b3cc-f3c9-4ee7-93f5-c3a5c8b90de1"}}]}