{"resourceType":"Bundle","id":"tests-bc79e5bc-237e-44be-b5fc-c5c4efb50286-bundle","type":"transaction","entry":[{"fullUrl":"https://madie.cms.gov/Patient/bc79e5bc-237e-44be-b5fc-c5c4efb50286","resource":{"resourceType":"Patient","id":"bc79e5bc-237e-44be-b5fc-c5c4efb50286","meta":{"profile":["http://hl7.org/fhir/us/qicore/StructureDefinition/qicore-patient"]},"extension":[{"url":"http://hl7.org/fhir/us/core/StructureDefinition/us-core-race","extension":[{"url":"ombCategory","valueCoding":{"system":"urn:oid:2.16.840.1.113883.6.238","code":"1002-5","display":"American Indian or Alaska Native"}},{"url":"text","valueString":"American Indian or Alaska Native"}]},{"url":"http://hl7.org/fhir/us/core/StructureDefinition/us-core-ethnicity","extension":[{"url":"ombCategory","valueCoding":{"system":"urn:oid:2.16.840.1.113883.6.238","code":"2135-2","display":"Hispanic or Latino"}},{"url":"text","valueString":"Hispanic or Latino"}]}],"identifier":[{"type":{"coding":[{"system":"http://terminology.hl7.org/CodeSystem/v2-0203","code":"MR"}]},"system":"https://bonnie-fhir.healthit.gov/","value":"465416131564861"}],"active":true,"name":[{"use":"usual","family":"DENEXFail","given":["BMIGreaterThan40After2ndUSS"]}],"gender":"male","birthDate":"1944-11-18"},"request":{"method":"PUT","url":"Patient/bc79e5bc-237e-44be-b5fc-c5c4efb50286"}},{"fullUrl":"https://madie.cms.gov/Encounter/564616461631","resource":{"resourceType":"Encounter","id":"7ab204e5-876b-4505-91e7-d2c32e6990d7","meta":{"profile":["http://hl7.org/fhir/us/qicore/StructureDefinition/qicore-encounter"]},"status":"finished","class":{"system":"http://terminology.hl7.org/CodeSystem/v3-ActCode","code":"AMB","display":"ambulatory"},"type":[{"coding":[{"system":"http://snomed.info/sct","version":"http://snomed.info/sct/731000124108/version/20240301","code":"185463005","display":"Visit out of hours (procedure)"}]}],"subject":{"reference":"Patient/bc79e5bc-237e-44be-b5fc-c5c4efb50286"},"period":{"start":"2025-03-01T09:00:00.000+00:00","end":"2025-03-01T09:45:00.000+00:00"}},"request":{"method":"PUT","url":"Encounter/7ab204e5-876b-4505-91e7-d2c32e6990d7"}},{"fullUrl":"https://madie.cms.gov/Observation/4684351634","resource":{"resourceType":"Observation","id":"2b284215-da52-40a8-8795-f3b505a7fa31","meta":{"profile":["http://hl7.org/fhir/us/qicore/StructureDefinition/qicore-observation"]},"status":"final","category":[{"coding":[{"system":"http://terminology.hl7.org/CodeSystem/observation-category","code":"survey","display":"Survey"}],"text":"Survey"}],"code":{"coding":[{"system":"http://loinc.org","version":"2.76","code":"80976-4","display":"International Prostate Symptom Score [IPSS]"}]},"subject":{"reference":"Patient/bc79e5bc-237e-44be-b5fc-c5c4efb50286"},"effectiveDateTime":"2025-01-30T08:00:00.000+00:00","valueInteger":30},"request":{"method":"PUT","url":"Observation/2b284215-da52-40a8-8795-f3b505a7fa31"}},{"fullUrl":"https://madie.cms.gov/Observation/46165164131","resource":{"resourceType":"Observation","id":"ec79e608-ba8e-48bf-94a6-da146b0cd29f","meta":{"profile":["http://hl7.org/fhir/us/qicore/StructureDefinition/qicore-observation"]},"status":"final","category":[{"coding":[{"system":"http://terminology.hl7.org/CodeSystem/observation-category","code":"survey","display":"Survey"}],"text":"Survey"}],"code":{"coding":[{"system":"http://loinc.org","version":"2.76","code":"80976-4","display":"International Prostate Symptom Score [IPSS]"}]},"subject":{"reference":"Patient/bc79e5bc-237e-44be-b5fc-c5c4efb50286"},"effectiveDateTime":"2025-09-08T08:00:00.000+00:00","valueInteger":18},"request":{"method":"PUT","url":"Observation/ec79e608-ba8e-48bf-94a6-da146b0cd29f"}},{"fullUrl":"https://madie.cms.gov/Observation/484687943","resource":{"resourceType":"Observation","id":"fde456e4-6a45-42ec-874e-0748c007b0d8","meta":{"profile":["http://hl7.org/fhir/StructureDefinition/bmi"]},"status":"final","category":[{"coding":[{"system":"http://terminology.hl7.org/CodeSystem/observation-category","code":"vital-signs","display":"Vital Signs"}],"text":"Vital Signs"},{"coding":[{"system":"http://terminology.hl7.org/CodeSystem/observation-category","code":"survey","display":"Survey"}],"text":"Survey"}],"code":{"coding":[{"system":"http://loinc.org","version":"2.76","code":"39156-5","display":"Body mass index (BMI) [Ratio]"}]},"subject":{"reference":"Patient/bc79e5bc-237e-44be-b5fc-c5c4efb50286"},"effectiveDateTime":"2025-09-09T08:00:00.000+00:00","valueQuantity":{"value":41,"unit":"kg/m2","system":"http://unitsofmeasure.org","code":"kg/m2"}},"request":{"method":"PUT","url":"Observation/fde456e4-6a45-42ec-874e-0748c007b0d8"}},{"fullUrl":"https://madie.cms.gov/Condition/98496635131","resource":{"resourceType":"Condition","id":"3aff9870-e41b-4482-93bf-71166776c298","meta":{"profile":["http://hl7.org/fhir/us/qicore/StructureDefinition/qicore-condition"]},"clinicalStatus":{"coding":[{"system":"http://terminology.hl7.org/CodeSystem/condition-clinical","code":"active","display":"Active"}]},"verificationStatus":{"coding":[{"system":"http://terminology.hl7.org/CodeSystem/condition-ver-status","code":"confirmed","display":"Confirmed"}]},"category":[{"coding":[{"system":"http://terminology.hl7.org/CodeSystem/condition-category","code":"problem-list-item","display":"Problem List Item"}]}],"code":{"coding":[{"system":"http://hl7.org/fhir/sid/icd-10-cm","version":"2024","code":"N40.1","display":"Benign prostatic hyperplasia with lower urinary tract symptoms"}]},"subject":{"reference":"Patient/bc79e5bc-237e-44be-b5fc-c5c4efb50286"},"onsetPeriod":{"start":"2024-12-31T08:00:00.000+00:00"}},"request":{"method":"PUT","url":"Condition/3aff9870-e41b-4482-93bf-71166776c298"}},{"fullUrl":"https://madie.cms.gov/MeasureReport/f0e4bcd8-44f4-4cf9-a9d4-0db61221e848","resource":{"resourceType":"MeasureReport","id":"f0e4bcd8-44f4-4cf9-a9d4-0db61221e848","meta":{"profile":["http://hl7.org/fhir/us/cqfmeasures/StructureDefinition/test-case-cqfm"]},"contained":[{"resourceType":"Parameters","id":"684b5815-750b-42bf-ba2c-ea8549faaca2-parameters","parameter":[{"name":"subject","valueString":"bc79e5bc-237e-44be-b5fc-c5c4efb50286"}]}],"extension":[{"url":"http://hl7.org/fhir/us/cqfmeasures/StructureDefinition/cqfm-inputParameters","valueReference":{"reference":"#684b5815-750b-42bf-ba2c-ea8549faaca2-parameters"}},{"url":"http://hl7.org/fhir/us/cqfmeasures/StructureDefinition/cqfm-testCaseDescription","valueMarkdown":"Male Patient with OV, BPH diagnosis, initial and second encounter. Patient has BMI > 40 but fails Denominator Exclusion due to it being after the followup (second) USS assessment"}],"modifierExtension":[{"url":"http://hl7.org/fhir/us/cqfmeasures/StructureDefinition/cqfm-isTestCase","valueBoolean":true}],"status":"complete","type":"individual","measure":"https://madie.cms.gov/Measure/UrinarySymptomScoreChangeAfterBenignProstaticHyperplasiaFHIR","period":{"start":"2025-01-01","end":"2025-12-31"},"group":[{"population":[{"code":{"coding":[{"system":"http://terminology.hl7.org/CodeSystem/measure-population","code":"initial-population","display":"Initial Population"}]},"count":1},{"code":{"coding":[{"system":"http://terminology.hl7.org/CodeSystem/measure-population","code":"denominator","display":"Denominator"}]},"count":1},{"code":{"coding":[{"system":"http://terminology.hl7.org/CodeSystem/measure-population","code":"denominator-exclusion","display":"Denominator Exclusion"}]},"count":0},{"code":{"coding":[{"system":"http://terminology.hl7.org/CodeSystem/measure-population","code":"numerator","display":"Numerator"}]},"count":1}]}]},"request":{"method":"PUT","url":"MeasureReport/f0e4bcd8-44f4-4cf9-a9d4-0db61221e848"}}]}