{"resourceType":"Bundle","id":"tests-c0fd6874-9560-436e-9115-63970d859c34-bundle","type":"transaction","entry":[{"fullUrl":"https://madie.cms.gov/Patient/c0fd6874-9560-436e-9115-63970d859c34","resource":{"resourceType":"Patient","id":"c0fd6874-9560-436e-9115-63970d859c34","meta":{"profile":["http://hl7.org/fhir/us/qicore/StructureDefinition/qicore-patient"]},"extension":[{"url":"http://hl7.org/fhir/us/core/StructureDefinition/us-core-race","extension":[{"url":"ombCategory","valueCoding":{"system":"urn:oid:2.16.840.1.113883.6.238","code":"1002-5","display":"American Indian or Alaska Native"}},{"url":"text","valueString":"American Indian or Alaska Native"}]},{"url":"http://hl7.org/fhir/us/core/StructureDefinition/us-core-ethnicity","extension":[{"url":"ombCategory","valueCoding":{"system":"urn:oid:2.16.840.1.113883.6.238","code":"2135-2","display":"Hispanic or Latino"}},{"url":"text","valueString":"Hispanic or Latino"}]}],"identifier":[{"type":{"coding":[{"system":"http://terminology.hl7.org/CodeSystem/v2-0203","code":"MR"}]},"system":"https://bonnie-fhir.healthit.gov/","value":"6101649298086b4fedf65e05"}],"active":true,"name":[{"use":"usual","family":"IPFail","given":["1stAnd2ndAUASIWithNoQOL"]}],"gender":"male","birthDate":"1951-05-03"},"request":{"method":"PUT","url":"Patient/c0fd6874-9560-436e-9115-63970d859c34"}},{"fullUrl":"https://madie.cms.gov/Observation/6020b3ac3aa45700000e869b","resource":{"resourceType":"Observation","id":"3ad8bd9c-5551-49f0-8733-b18b395a045d","meta":{"profile":["http://hl7.org/fhir/us/qicore/StructureDefinition/qicore-observation"]},"status":"final","category":[{"coding":[{"system":"http://terminology.hl7.org/CodeSystem/observation-category","code":"survey","display":"Survey"}]}],"code":{"coding":[{"system":"http://loinc.org","version":"2.76","code":"80883-2"}]},"subject":{"reference":"Patient/c0fd6874-9560-436e-9115-63970d859c34"},"effectiveDateTime":"2024-03-04T08:00:00.000+00:00"},"request":{"method":"PUT","url":"Observation/3ad8bd9c-5551-49f0-8733-b18b395a045d"}},{"fullUrl":"https://madie.cms.gov/Observation/6020b3ce3aa45700000e86f8","resource":{"resourceType":"Observation","id":"52d97790-785c-4ab6-b0c2-623542aae701","meta":{"profile":["http://hl7.org/fhir/us/qicore/StructureDefinition/qicore-observation"]},"status":"final","category":[{"coding":[{"system":"http://terminology.hl7.org/CodeSystem/observation-category","code":"survey","display":"Survey"}]}],"code":{"coding":[{"system":"http://loinc.org","version":"2.76","code":"80883-2"}]},"subject":{"reference":"Patient/c0fd6874-9560-436e-9115-63970d859c34"},"effectivePeriod":{"start":"2024-12-01T08:00:00+00:00","end":"2024-12-01T08:15:00+00:00"},"valueInteger":4},"request":{"method":"PUT","url":"Observation/52d97790-785c-4ab6-b0c2-623542aae701"}},{"fullUrl":"https://madie.cms.gov/Condition/6020b2d23aa45700000e863f","resource":{"resourceType":"Condition","id":"1139b308-32d4-403f-aeea-9d5cc0724a0c","meta":{"profile":["http://hl7.org/fhir/us/qicore/StructureDefinition/qicore-condition"]},"clinicalStatus":{"coding":[{"system":"http://terminology.hl7.org/CodeSystem/condition-clinical","code":"active"}]},"verificationStatus":{"coding":[{"system":"http://terminology.hl7.org/CodeSystem/condition-ver-status","code":"confirmed"}]},"category":[{"coding":[{"system":"http://terminology.hl7.org/CodeSystem/condition-category","code":"problem-list-item","display":"Problem List Item"}]}],"code":{"coding":[{"system":"http://hl7.org/fhir/sid/icd-10-cm","version":"2024","code":"N40.1"}]},"subject":{"reference":"Patient/c0fd6874-9560-436e-9115-63970d859c34"},"onsetDateTime":"2024-03-03T08:00:00+00:00"},"request":{"method":"PUT","url":"Condition/1139b308-32d4-403f-aeea-9d5cc0724a0c"}},{"fullUrl":"https://madie.cms.gov/Encounter/5ca621f3b8484628b8ddb66c","resource":{"resourceType":"Encounter","id":"b889bc07-5a8e-4e38-9f03-4b26ab2aeeaa","meta":{"profile":["http://hl7.org/fhir/us/qicore/StructureDefinition/qicore-encounter"]},"status":"finished","class":{"system":"http://terminology.hl7.org/CodeSystem/v3-ActCode","code":"AMB","display":"ambulatory"},"type":[{"coding":[{"system":"http://www.ama-assn.org/go/cpt","version":"2024","code":"99213"}]}],"subject":{"reference":"Patient/c0fd6874-9560-436e-9115-63970d859c34"},"period":{"start":"2024-03-03T08:00:00+00:00","end":"2024-03-03T08:15:00+00:00"},"length":{"value":0.0,"unit":"days"}},"request":{"method":"PUT","url":"Encounter/b889bc07-5a8e-4e38-9f03-4b26ab2aeeaa"}},{"fullUrl":"https://madie.cms.gov/MeasureReport/8d5a0cf1-340b-4b43-b1c5-2a827e2f8f10","resource":{"resourceType":"MeasureReport","id":"8d5a0cf1-340b-4b43-b1c5-2a827e2f8f10","meta":{"profile":["http://hl7.org/fhir/us/cqfmeasures/StructureDefinition/test-case-cqfm"]},"contained":[{"resourceType":"Parameters","id":"b6e651af-d099-446a-b3d4-18e87781866d-parameters","parameter":[{"name":"subject","valueString":"c0fd6874-9560-436e-9115-63970d859c34"}]}],"extension":[{"url":"http://hl7.org/fhir/us/cqfmeasures/StructureDefinition/cqfm-inputParameters","valueReference":{"reference":"#b6e651af-d099-446a-b3d4-18e87781866d-parameters"}},{"url":"http://hl7.org/fhir/us/cqfmeasures/StructureDefinition/cqfm-testCaseDescription","valueMarkdown":"Male Patient not meeting criteria for BPH diagnoss and office visit needed for initial population."}],"modifierExtension":[{"url":"http://hl7.org/fhir/us/cqfmeasures/StructureDefinition/cqfm-isTestCase","valueBoolean":true}],"status":"complete","type":"individual","measure":"https://madie.cms.gov/Measure/UrinarySymptomScoreChangeAfterBenignProstaticHyperplasiaFHIR","period":{"start":"2025-01-01","end":"2025-12-31"},"group":[{"population":[{"code":{"coding":[{"system":"http://terminology.hl7.org/CodeSystem/measure-population","code":"initial-population","display":"Initial Population"}]},"count":0},{"code":{"coding":[{"system":"http://terminology.hl7.org/CodeSystem/measure-population","code":"denominator","display":"Denominator"}]},"count":0},{"code":{"coding":[{"system":"http://terminology.hl7.org/CodeSystem/measure-population","code":"denominator-exclusion","display":"Denominator Exclusion"}]},"count":0},{"code":{"coding":[{"system":"http://terminology.hl7.org/CodeSystem/measure-population","code":"numerator","display":"Numerator"}]},"count":0}]}]},"request":{"method":"PUT","url":"MeasureReport/8d5a0cf1-340b-4b43-b1c5-2a827e2f8f10"}}]}