{"resourceType":"Bundle","id":"tests-8a541116-96f0-4e25-a059-5bea9d244fa9-bundle","type":"transaction","entry":[{"fullUrl":"https://madie.cms.gov/Patient/8a541116-96f0-4e25-a059-5bea9d244fa9","resource":{"resourceType":"Patient","id":"8a541116-96f0-4e25-a059-5bea9d244fa9","meta":{"profile":["http://hl7.org/fhir/us/qicore/StructureDefinition/qicore-patient"]},"extension":[{"url":"http://hl7.org/fhir/us/core/StructureDefinition/us-core-race","extension":[{"url":"ombCategory","valueCoding":{"system":"urn:oid:2.16.840.1.113883.6.238","code":"2106-3","display":"White"}},{"url":"text","valueString":"White"}]},{"url":"http://hl7.org/fhir/us/core/StructureDefinition/us-core-ethnicity","extension":[{"url":"ombCategory","valueCoding":{"system":"urn:oid:2.16.840.1.113883.6.238","code":"2186-5","display":"Non Hispanic or Latino"}},{"url":"text","valueString":"Non Hispanic or Latino"}]}],"identifier":[{"type":{"coding":[{"system":"http://terminology.hl7.org/CodeSystem/v2-0203","code":"MR"}]},"system":"https://GoodHealthcare.com/","value":"41654161684974312"}],"name":[{"family":"IPFail","given":["isFemale"]}],"gender":"female","birthDate":"1975-12-01"},"request":{"method":"PUT","url":"Patient/8a541116-96f0-4e25-a059-5bea9d244fa9"}},{"fullUrl":"https://madie.cms.gov/Encounter/4654645","resource":{"resourceType":"Encounter","id":"11850412-9ba7-48b6-94a6-f210294476ae","meta":{"profile":["http://hl7.org/fhir/us/qicore/StructureDefinition/qicore-encounter"]},"status":"finished","class":{"system":"http://terminology.hl7.org/CodeSystem/v3-ActCode","code":"AMB","display":"ambulatory"},"type":[{"coding":[{"system":"http://snomed.info/sct","version":"http://snomed.info/sct/731000124108/version/20240301","code":"185463005","display":"Visit out of hours (procedure)"}]}],"subject":{"reference":"Patient/8a541116-96f0-4e25-a059-5bea9d244fa9"},"period":{"start":"2025-07-01T08:00:00.000+00:00","end":"2025-07-01T09:15:00.000+00:00"}},"request":{"method":"PUT","url":"Encounter/11850412-9ba7-48b6-94a6-f210294476ae"}},{"fullUrl":"https://madie.cms.gov/Condition/1321344","resource":{"resourceType":"Condition","id":"459f7938-c8af-4b8e-9a83-be812a1bb93b","meta":{"profile":["http://hl7.org/fhir/us/qicore/StructureDefinition/qicore-condition"]},"clinicalStatus":{"coding":[{"system":"http://terminology.hl7.org/CodeSystem/condition-clinical","code":"active","display":"active"}]},"verificationStatus":{"coding":[{"system":"http://terminology.hl7.org/CodeSystem/condition-ver-status","code":"confirmed","display":"Confirmed"}]},"category":[{"coding":[{"system":"http://terminology.hl7.org/CodeSystem/condition-category","code":"problem-list-item","display":"Problem List Item"}]}],"code":{"coding":[{"system":"http://hl7.org/fhir/sid/icd-10-cm","version":"2024","code":"N40.1","display":"Benign prostatic hyperplasia with lower urinary tract symptoms"}]},"subject":{"reference":"Patient/8a541116-96f0-4e25-a059-5bea9d244fa9"},"onsetPeriod":{"start":"2024-07-01T08:00:00.000+00:00"}},"request":{"method":"PUT","url":"Condition/459f7938-c8af-4b8e-9a83-be812a1bb93b"}},{"fullUrl":"https://madie.cms.gov/Observation/4645313","resource":{"resourceType":"Observation","id":"ba8af71a-ffc1-4208-864b-c7ea334cb6fb","meta":{"profile":["http://hl7.org/fhir/us/qicore/StructureDefinition/qicore-observation"]},"status":"final","category":[{"coding":[{"system":"http://terminology.hl7.org/CodeSystem/observation-category","code":"survey","display":"Survey"}]}],"code":{"coding":[{"system":"http://loinc.org","version":"2.76","code":"80976-4","display":"International Prostate Symptom Score [IPSS]"}]},"subject":{"reference":"Patient/8a541116-96f0-4e25-a059-5bea9d244fa9"},"effectiveDateTime":"2024-08-01T08:00:00.000+00:00","valueInteger":2},"request":{"method":"PUT","url":"Observation/ba8af71a-ffc1-4208-864b-c7ea334cb6fb"}},{"fullUrl":"https://madie.cms.gov/Observation/65464646","resource":{"resourceType":"Observation","id":"13a3874e-59a7-41a1-aa2c-a3a69d79fb16","meta":{"profile":["http://hl7.org/fhir/us/qicore/StructureDefinition/qicore-observation"]},"status":"final","category":[{"coding":[{"system":"http://terminology.hl7.org/CodeSystem/observation-category","code":"survey","display":"Survey"}]}],"code":{"coding":[{"system":"http://loinc.org","version":"2.76","code":"80976-4","display":"International Prostate Symptom Score [IPSS]"}]},"subject":{"reference":"Patient/8a541116-96f0-4e25-a059-5bea9d244fa9"},"effectiveDateTime":"2025-07-01T08:00:00.000+00:00","valueInteger":2},"request":{"method":"PUT","url":"Observation/13a3874e-59a7-41a1-aa2c-a3a69d79fb16"}},{"fullUrl":"https://madie.cms.gov/MeasureReport/4caf41ac-8059-465f-9cbb-e86674fea24d","resource":{"resourceType":"MeasureReport","id":"4caf41ac-8059-465f-9cbb-e86674fea24d","meta":{"profile":["http://hl7.org/fhir/us/cqfmeasures/StructureDefinition/test-case-cqfm"]},"contained":[{"resourceType":"Parameters","id":"75a9c59b-8bd6-4853-9570-ef748f4eb326-parameters","parameter":[{"name":"subject","valueString":"8a541116-96f0-4e25-a059-5bea9d244fa9"}]}],"extension":[{"url":"http://hl7.org/fhir/us/cqfmeasures/StructureDefinition/cqfm-inputParameters","valueReference":{"reference":"#75a9c59b-8bd6-4853-9570-ef748f4eb326-parameters"}},{"url":"http://hl7.org/fhir/us/cqfmeasures/StructureDefinition/cqfm-testCaseDescription","valueMarkdown":"Patient failing Initial population which includes only male patients"}],"modifierExtension":[{"url":"http://hl7.org/fhir/us/cqfmeasures/StructureDefinition/cqfm-isTestCase","valueBoolean":true}],"status":"complete","type":"individual","measure":"https://madie.cms.gov/Measure/UrinarySymptomScoreChangeAfterBenignProstaticHyperplasiaFHIR","period":{"start":"2025-01-01","end":"2025-12-31"},"group":[{"population":[{"code":{"coding":[{"system":"http://terminology.hl7.org/CodeSystem/measure-population","code":"initial-population","display":"Initial Population"}]},"count":0},{"code":{"coding":[{"system":"http://terminology.hl7.org/CodeSystem/measure-population","code":"denominator","display":"Denominator"}]},"count":0},{"code":{"coding":[{"system":"http://terminology.hl7.org/CodeSystem/measure-population","code":"denominator-exclusion","display":"Denominator Exclusion"}]},"count":0},{"code":{"coding":[{"system":"http://terminology.hl7.org/CodeSystem/measure-population","code":"numerator","display":"Numerator"}]},"count":0}]}]},"request":{"method":"PUT","url":"MeasureReport/4caf41ac-8059-465f-9cbb-e86674fea24d"}}]}