{"resourceType":"Bundle","id":"tests-cb9497a6-968f-4034-b85c-d254c07e34e5-bundle","type":"transaction","entry":[{"fullUrl":"https://madie.cms.gov/Patient/cb9497a6-968f-4034-b85c-d254c07e34e5","resource":{"resourceType":"Patient","id":"cb9497a6-968f-4034-b85c-d254c07e34e5","meta":{"profile":["http://hl7.org/fhir/us/qicore/StructureDefinition/qicore-patient"]},"extension":[{"url":"http://hl7.org/fhir/us/core/StructureDefinition/us-core-race","extension":[{"url":"ombCategory","valueCoding":{"system":"urn:oid:2.16.840.1.113883.6.238","code":"2106-3","display":"White"}},{"url":"text","valueString":"White"}]},{"url":"http://hl7.org/fhir/us/core/StructureDefinition/us-core-ethnicity","extension":[{"url":"ombCategory","valueCoding":{"system":"urn:oid:2.16.840.1.113883.6.238","code":"2186-5","display":"Non Hispanic or Latino"}},{"url":"text","valueString":"Non Hispanic or Latino"}]}],"identifier":[{"type":{"coding":[{"system":"http://terminology.hl7.org/CodeSystem/v2-0203","code":"MR"}]},"system":"https://GoodHealthcare.com/","value":"41654161684974312"}],"name":[{"family":"IPPass","given":["OV1MinAfterMPStart"]}],"gender":"male","birthDate":"1960-05-01"},"request":{"method":"PUT","url":"Patient/cb9497a6-968f-4034-b85c-d254c07e34e5"}},{"fullUrl":"https://madie.cms.gov/Encounter/4654645","resource":{"resourceType":"Encounter","id":"1960f490-2984-4d20-969c-5a79c9482f89","meta":{"profile":["http://hl7.org/fhir/us/qicore/StructureDefinition/qicore-encounter"]},"status":"finished","class":{"system":"http://terminology.hl7.org/CodeSystem/v3-ActCode","code":"AMB","display":"ambulatory"},"type":[{"coding":[{"system":"http://snomed.info/sct","version":"http://snomed.info/sct/731000124108/version/20240301","code":"185464004","display":"Out of hours visit - not night visit (procedure)"}]}],"subject":{"reference":"Patient/cb9497a6-968f-4034-b85c-d254c07e34e5"},"period":{"start":"2025-01-01T00:01:00.000+00:00","end":"2025-01-01T00:45:00.000+00:00"}},"request":{"method":"PUT","url":"Encounter/1960f490-2984-4d20-969c-5a79c9482f89"}},{"fullUrl":"https://madie.cms.gov/Condition/1321344","resource":{"resourceType":"Condition","id":"def995b9-6e76-4e40-939a-b9fefa11beca","meta":{"profile":["http://hl7.org/fhir/us/qicore/StructureDefinition/qicore-condition"]},"clinicalStatus":{"coding":[{"system":"http://terminology.hl7.org/CodeSystem/condition-clinical","code":"active","display":"active"}]},"verificationStatus":{"coding":[{"system":"http://terminology.hl7.org/CodeSystem/condition-ver-status","code":"confirmed","display":"Confirmed"}]},"category":[{"coding":[{"system":"http://terminology.hl7.org/CodeSystem/condition-category","code":"problem-list-item","display":"Problem List Item"}]}],"code":{"coding":[{"system":"http://hl7.org/fhir/sid/icd-10-cm","version":"2024","code":"N40.1","display":"Benign prostatic hyperplasia with lower urinary tract symptoms"}]},"subject":{"reference":"Patient/cb9497a6-968f-4034-b85c-d254c07e34e5"},"onsetPeriod":{"start":"2024-07-01T08:00:00.000+00:00"}},"request":{"method":"PUT","url":"Condition/def995b9-6e76-4e40-939a-b9fefa11beca"}},{"fullUrl":"https://madie.cms.gov/Observation/4645313","resource":{"resourceType":"Observation","id":"e6d15b5c-fb06-4ef6-91dc-5d7311e781af","meta":{"profile":["http://hl7.org/fhir/us/qicore/StructureDefinition/qicore-observation"]},"status":"final","category":[{"coding":[{"system":"http://terminology.hl7.org/CodeSystem/observation-category","code":"survey","display":"Survey"}]}],"code":{"coding":[{"system":"http://loinc.org","version":"2.76","code":"80976-4","display":"International Prostate Symptom Score [IPSS]"}]},"subject":{"reference":"Patient/cb9497a6-968f-4034-b85c-d254c07e34e5"},"effectiveDateTime":"2024-08-01T08:00:00.000+00:00","valueInteger":2},"request":{"method":"PUT","url":"Observation/e6d15b5c-fb06-4ef6-91dc-5d7311e781af"}},{"fullUrl":"https://madie.cms.gov/Observation/65464646","resource":{"resourceType":"Observation","id":"73e44371-329a-4f67-8131-93c9915477cb","meta":{"profile":["http://hl7.org/fhir/us/qicore/StructureDefinition/qicore-observation"]},"status":"final","category":[{"coding":[{"system":"http://terminology.hl7.org/CodeSystem/observation-category","code":"survey","display":"Survey"}]}],"code":{"coding":[{"system":"http://loinc.org","version":"2.76","code":"80976-4","display":"International Prostate Symptom Score [IPSS]"}]},"subject":{"reference":"Patient/cb9497a6-968f-4034-b85c-d254c07e34e5"},"effectiveDateTime":"2025-07-01T08:00:00.000+00:00","valueInteger":2},"request":{"method":"PUT","url":"Observation/73e44371-329a-4f67-8131-93c9915477cb"}},{"fullUrl":"https://madie.cms.gov/MeasureReport/50e0ffae-bfe9-436c-ac09-ca1640074630","resource":{"resourceType":"MeasureReport","id":"50e0ffae-bfe9-436c-ac09-ca1640074630","meta":{"profile":["http://hl7.org/fhir/us/cqfmeasures/StructureDefinition/test-case-cqfm"]},"contained":[{"resourceType":"Parameters","id":"3ce7f10d-01d3-419b-851b-3413655a33ba-parameters","parameter":[{"name":"subject","valueString":"cb9497a6-968f-4034-b85c-d254c07e34e5"}]}],"extension":[{"url":"http://hl7.org/fhir/us/cqfmeasures/StructureDefinition/cqfm-inputParameters","valueReference":{"reference":"#3ce7f10d-01d3-419b-851b-3413655a33ba-parameters"}},{"url":"http://hl7.org/fhir/us/cqfmeasures/StructureDefinition/cqfm-testCaseDescription","valueMarkdown":"Required  Office Visit  starts 1 minute after start of Measurement Period"}],"modifierExtension":[{"url":"http://hl7.org/fhir/us/cqfmeasures/StructureDefinition/cqfm-isTestCase","valueBoolean":true}],"status":"complete","type":"individual","measure":"https://madie.cms.gov/Measure/UrinarySymptomScoreChangeAfterBenignProstaticHyperplasiaFHIR","period":{"start":"2025-01-01","end":"2025-12-31"},"group":[{"population":[{"code":{"coding":[{"system":"http://terminology.hl7.org/CodeSystem/measure-population","code":"initial-population","display":"Initial Population"}]},"count":1},{"code":{"coding":[{"system":"http://terminology.hl7.org/CodeSystem/measure-population","code":"denominator","display":"Denominator"}]},"count":1},{"code":{"coding":[{"system":"http://terminology.hl7.org/CodeSystem/measure-population","code":"denominator-exclusion","display":"Denominator Exclusion"}]},"count":0},{"code":{"coding":[{"system":"http://terminology.hl7.org/CodeSystem/measure-population","code":"numerator","display":"Numerator"}]},"count":0}]}]},"request":{"method":"PUT","url":"MeasureReport/50e0ffae-bfe9-436c-ac09-ca1640074630"}}]}