{"resourceType":"Bundle","id":"tests-7f62a1c0-a39c-41b7-98b6-5877db9755b0-bundle","type":"transaction","entry":[{"fullUrl":"https://madie.cms.gov/Patient/7f62a1c0-a39c-41b7-98b6-5877db9755b0","resource":{"resourceType":"Patient","id":"7f62a1c0-a39c-41b7-98b6-5877db9755b0","meta":{"profile":["http://hl7.org/fhir/us/qicore/StructureDefinition/qicore-patient"]},"extension":[{"url":"http://hl7.org/fhir/us/core/StructureDefinition/us-core-race","extension":[{"url":"ombCategory","valueCoding":{"system":"urn:oid:2.16.840.1.113883.6.238","code":"1002-5","display":"American Indian or Alaska Native"}},{"url":"text","valueString":"American Indian or Alaska Native"}]},{"url":"http://hl7.org/fhir/us/core/StructureDefinition/us-core-ethnicity","extension":[{"url":"ombCategory","valueCoding":{"system":"urn:oid:2.16.840.1.113883.6.238","code":"2135-2","display":"Hispanic or Latino"}},{"url":"text","valueString":"Hispanic or Latino"}]}],"identifier":[{"type":{"coding":[{"system":"http://terminology.hl7.org/CodeSystem/v2-0203","code":"MR"}]},"system":"https://bonnie-fhir.healthit.gov/","value":"3513413131355"}],"active":true,"name":[{"use":"usual","family":"NUMERFail","given":["USSImprovementof2"]}],"gender":"male","birthDate":"1947-02-19"},"request":{"method":"PUT","url":"Patient/7f62a1c0-a39c-41b7-98b6-5877db9755b0"}},{"fullUrl":"https://madie.cms.gov/Observation/3163413131","resource":{"resourceType":"Observation","id":"cffb6b5a-731a-4413-8c10-836bc71d1a9a","meta":{"profile":["http://hl7.org/fhir/us/qicore/StructureDefinition/qicore-observation"]},"status":"final","category":[{"coding":[{"system":"http://terminology.hl7.org/CodeSystem/observation-category","code":"survey","display":"Survey"}]}],"code":{"coding":[{"system":"http://loinc.org","version":"2.76","code":"80976-4"}]},"subject":{"reference":"Patient/7f62a1c0-a39c-41b7-98b6-5877db9755b0"},"effectivePeriod":{"start":"2025-01-30T08:00:00.000+00:00"},"valueInteger":12},"request":{"method":"PUT","url":"Observation/cffb6b5a-731a-4413-8c10-836bc71d1a9a"}},{"fullUrl":"https://madie.cms.gov/Observation/1341313213","resource":{"resourceType":"Observation","id":"188f42ff-1356-4b08-9f53-e45b7e9fb677","meta":{"profile":["http://hl7.org/fhir/us/qicore/StructureDefinition/qicore-observation"]},"status":"final","category":[{"coding":[{"system":"http://terminology.hl7.org/CodeSystem/observation-category","code":"survey","display":"Survey"}]}],"code":{"coding":[{"system":"http://loinc.org","version":"2.76","code":"80976-4"}]},"subject":{"reference":"Patient/7f62a1c0-a39c-41b7-98b6-5877db9755b0"},"effectivePeriod":{"start":"2025-11-06T08:00:00.000+00:00"},"valueInteger":10},"request":{"method":"PUT","url":"Observation/188f42ff-1356-4b08-9f53-e45b7e9fb677"}},{"fullUrl":"https://madie.cms.gov/Condition/313465463153","resource":{"resourceType":"Condition","id":"2ee1c911-f25a-48e6-a670-1c86251b24dc","meta":{"profile":["http://hl7.org/fhir/us/qicore/StructureDefinition/qicore-condition"]},"clinicalStatus":{"coding":[{"system":"http://terminology.hl7.org/CodeSystem/condition-clinical","code":"resolved"}]},"verificationStatus":{"coding":[{"system":"http://terminology.hl7.org/CodeSystem/condition-ver-status","code":"confirmed"}]},"category":[{"coding":[{"system":"http://terminology.hl7.org/CodeSystem/condition-category","code":"problem-list-item","display":"Problem List Item"}]}],"code":{"coding":[{"system":"http://hl7.org/fhir/sid/icd-10-cm","version":"2024","code":"Z68.42"}]},"subject":{"reference":"Patient/7f62a1c0-a39c-41b7-98b6-5877db9755b0"},"onsetDateTime":"2023-02-28T08:00:00+00:00","abatementDateTime":"2024-06-28T08:15:00+00:00"},"request":{"method":"PUT","url":"Condition/2ee1c911-f25a-48e6-a670-1c86251b24dc"}},{"fullUrl":"https://madie.cms.gov/Condition/967964166163","resource":{"resourceType":"Condition","id":"3016e6f8-a653-478a-9470-26eebeb081c7","meta":{"profile":["http://hl7.org/fhir/us/qicore/StructureDefinition/qicore-condition"]},"clinicalStatus":{"coding":[{"system":"http://terminology.hl7.org/CodeSystem/condition-clinical","code":"active"}]},"verificationStatus":{"coding":[{"system":"http://terminology.hl7.org/CodeSystem/condition-ver-status","code":"confirmed"}]},"category":[{"coding":[{"system":"http://terminology.hl7.org/CodeSystem/condition-category","code":"problem-list-item","display":"Problem List Item"}]}],"code":{"coding":[{"system":"http://hl7.org/fhir/sid/icd-10-cm","version":"2024","code":"N40.1"}]},"subject":{"reference":"Patient/7f62a1c0-a39c-41b7-98b6-5877db9755b0"},"onsetPeriod":{"start":"2024-12-30T08:00:00.000+00:00"}},"request":{"method":"PUT","url":"Condition/3016e6f8-a653-478a-9470-26eebeb081c7"}},{"fullUrl":"https://madie.cms.gov/Encounter/9741631631325","resource":{"resourceType":"Encounter","id":"8b0d177b-e54b-4c1b-a94e-e36b198312b9","meta":{"profile":["http://hl7.org/fhir/us/qicore/StructureDefinition/qicore-encounter"]},"status":"finished","class":{"system":"http://terminology.hl7.org/CodeSystem/v3-ActCode","code":"AMB","display":"ambulatory"},"type":[{"coding":[{"system":"http://www.ama-assn.org/go/cpt","version":"2024","code":"99213"}]}],"subject":{"reference":"Patient/7f62a1c0-a39c-41b7-98b6-5877db9755b0"},"period":{"start":"2025-01-30T08:00:00+00:00","end":"2025-01-30T08:15:00+00:00"}},"request":{"method":"PUT","url":"Encounter/8b0d177b-e54b-4c1b-a94e-e36b198312b9"}},{"fullUrl":"https://madie.cms.gov/MeasureReport/4e89c91d-7596-4e31-9f65-9e75fbc73c99","resource":{"resourceType":"MeasureReport","id":"4e89c91d-7596-4e31-9f65-9e75fbc73c99","meta":{"profile":["http://hl7.org/fhir/us/cqfmeasures/StructureDefinition/test-case-cqfm"]},"contained":[{"resourceType":"Parameters","id":"aec8788d-7d08-424a-9cfd-e70d15025296-parameters","parameter":[{"name":"subject","valueString":"7f62a1c0-a39c-41b7-98b6-5877db9755b0"}]}],"extension":[{"url":"http://hl7.org/fhir/us/cqfmeasures/StructureDefinition/cqfm-inputParameters","valueReference":{"reference":"#aec8788d-7d08-424a-9cfd-e70d15025296-parameters"}},{"url":"http://hl7.org/fhir/us/cqfmeasures/StructureDefinition/cqfm-testCaseDescription","valueMarkdown":"Male Patient with BPH Diagnosis and initial and followup assessments but with the followup assessment failing a symptom score improvement of 3 required for the numerator."}],"modifierExtension":[{"url":"http://hl7.org/fhir/us/cqfmeasures/StructureDefinition/cqfm-isTestCase","valueBoolean":true}],"status":"complete","type":"individual","measure":"https://madie.cms.gov/Measure/UrinarySymptomScoreChangeAfterBenignProstaticHyperplasiaFHIR","period":{"start":"2025-01-01","end":"2025-12-31"},"group":[{"population":[{"code":{"coding":[{"system":"http://terminology.hl7.org/CodeSystem/measure-population","code":"initial-population","display":"Initial Population"}]},"count":1},{"code":{"coding":[{"system":"http://terminology.hl7.org/CodeSystem/measure-population","code":"denominator","display":"Denominator"}]},"count":1},{"code":{"coding":[{"system":"http://terminology.hl7.org/CodeSystem/measure-population","code":"denominator-exclusion","display":"Denominator Exclusion"}]},"count":0},{"code":{"coding":[{"system":"http://terminology.hl7.org/CodeSystem/measure-population","code":"numerator","display":"Numerator"}]},"count":0}]}]},"request":{"method":"PUT","url":"MeasureReport/4e89c91d-7596-4e31-9f65-9e75fbc73c99"}}]}