{"resourceType":"Bundle","id":"tests-62be7d89-b3ac-4686-a1bc-64997e523d66-bundle","type":"transaction","entry":[{"fullUrl":"https://madie.cms.gov/Patient/62be7d89-b3ac-4686-a1bc-64997e523d66","resource":{"resourceType":"Patient","id":"62be7d89-b3ac-4686-a1bc-64997e523d66","meta":{"profile":["http://hl7.org/fhir/us/qicore/StructureDefinition/qicore-patient"]},"text":{"status":"generated","div":"<div xmlns=\"http://www.w3.org/1999/xhtml\"><div class=\"hapiHeaderText\">GT2after_relevantDT <b>TEMPFAIL </b></div><table class=\"hapiPropertyTable\"><tbody><tr><td>Identifier</td><td>cf7574e0b0359d44c480900ab191162d228d27f86315407c0dffcae5d072e7d9</td></tr><tr><td>Date of birth</td><td><span>15 June 1956</span></td></tr></tbody></table></div>"},"extension":[{"url":"http://hl7.org/fhir/us/core/StructureDefinition/us-core-race","extension":[{"url":"ombCategory","valueCoding":{"system":"urn:oid:2.16.840.1.113883.6.238","code":"1002-5","display":"American Indian or Alaska Native","userSelected":true}},{"url":"text","valueString":"American Indian or Alaska Native"}]},{"url":"http://hl7.org/fhir/us/core/StructureDefinition/us-core-ethnicity","extension":[{"url":"ombCategory","valueCoding":{"system":"urn:oid:2.16.840.1.113883.6.238","code":"2186-5","display":"Not Hispanic or Latino","userSelected":true}},{"url":"text","valueString":"Not Hispanic or Latino"}]}],"identifier":[{"type":{"coding":[{"system":"http://terminology.hl7.org/CodeSystem/v2-0203","code":"MR"}]},"system":"https://bonnie-fhir.healthit.gov/","value":"63ec096cccb3770120fea245"}],"active":true,"name":[{"use":"usual","family":"TemperatureFail","given":["2Hours1MinAfterStartOfInpatient"]}],"gender":"male","birthDate":"1960-07-01"},"request":{"method":"PUT","url":"Patient/62be7d89-b3ac-4686-a1bc-64997e523d66"}},{"fullUrl":"https://madie.cms.gov/Encounter/5e06525e9350f90000fe27b9","resource":{"resourceType":"Encounter","id":"a35eb951-d01b-4bb4-ad91-b388a8153d83","meta":{"profile":["http://hl7.org/fhir/us/qicore/StructureDefinition/qicore-encounter"]},"status":"finished","class":{"system":"http://terminology.hl7.org/CodeSystem/v3-ActCode","code":"IMP","display":"inpatient encounter","userSelected":true},"type":[{"coding":[{"system":"http://snomed.info/sct","code":"183452005"}]}],"subject":{"reference":"Patient/62be7d89-b3ac-4686-a1bc-64997e523d66"},"period":{"start":"2025-07-01T08:00:00.000+00:00","end":"2025-07-06T15:15:00.000+00:00"},"length":{"value":1,"unit":"days"}},"request":{"method":"PUT","url":"Encounter/a35eb951-d01b-4bb4-ad91-b388a8153d83"}},{"fullUrl":"https://madie.cms.gov/Coverage/5f996a2ab977ef0000c02fcc","resource":{"resourceType":"Coverage","id":"6f23fb0f-140c-47ec-92b6-27a87c6dc5ec","meta":{"profile":["http://hl7.org/fhir/us/qicore/StructureDefinition/qicore-coverage"]},"status":"active","type":{"coding":[{"system":"https://nahdo.org/sopt","version":"1.0.1","code":"1","display":"Medicare payer","userSelected":true}]},"beneficiary":{"reference":"Patient/62be7d89-b3ac-4686-a1bc-64997e523d66"},"payor":[{"reference":"Organization/4b5a882f-1f43-485c-85c6-f5ad2337d5b1"}]},"request":{"method":"PUT","url":"Coverage/6f23fb0f-140c-47ec-92b6-27a87c6dc5ec"}},{"fullUrl":"https://madie.cms.gov/Observation/5fd0e21e3dbdfd0000f979c1","resource":{"resourceType":"Observation","id":"88022e88-4a13-4944-8d15-03c4d35be9a5","meta":{"profile":["http://hl7.org/fhir/StructureDefinition/bodytemp"]},"status":"final","category":[{"coding":[{"system":"http://terminology.hl7.org/CodeSystem/observation-category","code":"vital-signs","display":"Vital Signs","userSelected":true}]}],"code":{"coding":[{"system":"http://loinc.org","code":"8310-5","display":"Body temperature"}]},"subject":{"reference":"Patient/62be7d89-b3ac-4686-a1bc-64997e523d66"},"effectiveDateTime":"2025-07-01T10:01:00.000+00:00","valueQuantity":{"value":99.0,"unit":"[degF]","system":"http://unitsofmeasure.org","code":"[degF]"}},"request":{"method":"PUT","url":"Observation/88022e88-4a13-4944-8d15-03c4d35be9a5"}},{"fullUrl":"https://madie.cms.gov/Organization/123456","resource":{"resourceType":"Organization","id":"4b5a882f-1f43-485c-85c6-f5ad2337d5b1","meta":{"profile":["http://hl7.org/fhir/us/qicore/StructureDefinition/qicore-organization"]},"identifier":[{"use":"temp","system":"urn:oid:2.16.840.1.113883.4.4","value":"21-3259825"}],"active":true,"type":[{"coding":[{"system":"http://terminology.hl7.org/CodeSystem/organization-type","code":"pay","display":"Payer"}]}],"name":"Blue Cross Blue Shield of Texas","telecom":[{"system":"phone","value":"(+1) 972-766-6900"}],"address":[{"use":"billing","type":"postal","line":["P.O. Box 660044"],"city":"Dallas","state":"TX","postalCode":"75266-0044","country":"USA"}]},"request":{"method":"PUT","url":"Organization/4b5a882f-1f43-485c-85c6-f5ad2337d5b1"}},{"fullUrl":"https://madie.cms.gov/Practitioner/practitioner-123456","resource":{"resourceType":"Practitioner","id":"6aeb70d1-e491-4864-990f-31465c8273a7","meta":{"profile":["http://hl7.org/fhir/us/qicore/StructureDefinition/qicore-practitioner"]},"identifier":[{"system":"http://hl7.org/fhir/sid/us-npi","value":"123456"}],"name":[{"family":"Evil","prefix":["Dr"]}]},"request":{"method":"PUT","url":"Practitioner/6aeb70d1-e491-4864-990f-31465c8273a7"}},{"fullUrl":"https://madie.cms.gov/MeasureReport/47da36ea-d87c-42af-b47d-7fb2a7f7f0fe","resource":{"resourceType":"MeasureReport","id":"47da36ea-d87c-42af-b47d-7fb2a7f7f0fe","meta":{"profile":["http://hl7.org/fhir/us/cqfmeasures/StructureDefinition/test-case-cqfm"]},"contained":[{"resourceType":"Parameters","id":"a6c57d84-4187-4d0a-bfc2-76bc392e7319-parameters","parameter":[{"name":"subject","valueString":"62be7d89-b3ac-4686-a1bc-64997e523d66"}]}],"extension":[{"url":"http://hl7.org/fhir/us/cqfmeasures/StructureDefinition/cqfm-inputParameters","valueReference":{"reference":"#a6c57d84-4187-4d0a-bfc2-76bc392e7319-parameters"}},{"url":"http://hl7.org/fhir/us/cqfmeasures/StructureDefinition/cqfm-testCaseDescription","valueMarkdown":"Enc. first day of MP (7/1), age 65, had Medicare, temperature taken 2 hours 1 min after admission"}],"modifierExtension":[{"url":"http://hl7.org/fhir/us/cqfmeasures/StructureDefinition/cqfm-isTestCase","valueBoolean":true}],"status":"complete","type":"individual","measure":"https://madie.cms.gov/Measure/HybridHospitalWideMortalityFHIR","period":{"start":"2025-01-01","end":"2025-12-31"},"group":[{"population":[{"code":{"coding":[{"system":"http://terminology.hl7.org/CodeSystem/measure-population","code":"initial-population","display":"Initial Population"}]},"count":1}]}]},"request":{"method":"PUT","url":"MeasureReport/47da36ea-d87c-42af-b47d-7fb2a7f7f0fe"}}]}