{"resourceType":"Bundle","id":"tests-73b803bf-207c-411d-8db3-01908e5d9dda-bundle","type":"transaction","entry":[{"fullUrl":"https://madie.cms.gov/Patient/73b803bf-207c-411d-8db3-01908e5d9dda","resource":{"resourceType":"Patient","id":"73b803bf-207c-411d-8db3-01908e5d9dda","meta":{"profile":["http://hl7.org/fhir/us/qicore/StructureDefinition/qicore-patient"]},"text":{"status":"generated","div":"<div xmlns=\"http://www.w3.org/1999/xhtml\"><div class=\"hapiHeaderText\">LT24beforeAndLT2after <b>WBCPASS </b></div><table class=\"hapiPropertyTable\"><tbody><tr><td>Identifier</td><td>02a3c13b70ccf5a73b893e80582952bdd83e9cabbf053902bb5eb341874dc5ec</td></tr><tr><td>Date of birth</td><td><span>15 June 1956</span></td></tr></tbody></table></div>"},"extension":[{"url":"http://hl7.org/fhir/us/core/StructureDefinition/us-core-race","extension":[{"url":"ombCategory","valueCoding":{"system":"urn:oid:2.16.840.1.113883.6.238","code":"1002-5","display":"American Indian or Alaska Native","userSelected":true}},{"url":"text","valueString":"American Indian or Alaska Native"}]},{"url":"http://hl7.org/fhir/us/core/StructureDefinition/us-core-ethnicity","extension":[{"url":"ombCategory","valueCoding":{"system":"urn:oid:2.16.840.1.113883.6.238","code":"2186-5","display":"Not Hispanic or Latino","userSelected":true}},{"url":"text","valueString":"Not Hispanic or Latino"}]}],"identifier":[{"type":{"coding":[{"system":"http://terminology.hl7.org/CodeSystem/v2-0203","code":"MR"}]},"system":"https://bonnie-fhir.healthit.gov/","value":"63ec096accb3770120fe9fa2"}],"active":true,"name":[{"use":"usual","family":"WhiteBloodCellPass","given":["OneHourAfterAdmission"]}],"gender":"male","birthDate":"1959-07-01"},"request":{"method":"PUT","url":"Patient/73b803bf-207c-411d-8db3-01908e5d9dda"}},{"fullUrl":"https://madie.cms.gov/Encounter/5e0653429350f90000fe2873","resource":{"resourceType":"Encounter","id":"d6bb2c41-67ed-4f1d-a284-86299ecb93f7","meta":{"profile":["http://hl7.org/fhir/us/qicore/StructureDefinition/qicore-encounter"]},"status":"finished","class":{"system":"http://terminology.hl7.org/CodeSystem/v3-ActCode","code":"IMP","display":"inpatient encounter","userSelected":true},"type":[{"coding":[{"system":"http://snomed.info/sct","code":"183452005"}]}],"subject":{"reference":"Patient/73b803bf-207c-411d-8db3-01908e5d9dda"},"period":{"start":"2025-07-01T08:00:00.000+00:00","end":"2025-07-03T23:59:00.000+00:00"},"length":{"value":1,"unit":"days"}},"request":{"method":"PUT","url":"Encounter/d6bb2c41-67ed-4f1d-a284-86299ecb93f7"}},{"fullUrl":"https://madie.cms.gov/Coverage/5f996a1cb977ef0000c02f8a","resource":{"resourceType":"Coverage","id":"dd3798d9-c9d7-4764-8c99-f508c754d2fc","meta":{"profile":["http://hl7.org/fhir/us/qicore/StructureDefinition/qicore-coverage"]},"status":"active","type":{"coding":[{"system":"https://nahdo.org/sopt","version":"1.0.1","code":"1","display":"Medicare payer","userSelected":true}]},"beneficiary":{"reference":"Patient/73b803bf-207c-411d-8db3-01908e5d9dda"},"payor":[{"reference":"Organization/4b5a882f-1f43-485c-85c6-f5ad2337d5b1"}]},"request":{"method":"PUT","url":"Coverage/dd3798d9-c9d7-4764-8c99-f508c754d2fc"}},{"fullUrl":"https://madie.cms.gov/Observation/5b55f69ab84846558c53bb71","resource":{"resourceType":"Observation","id":"429f5d0c-e915-4902-ad13-ae20415eedbb","meta":{"profile":["http://hl7.org/fhir/us/core/StructureDefinition/us-core-observation-lab"]},"status":"amended","category":[{"coding":[{"system":"http://terminology.hl7.org/CodeSystem/observation-category","code":"laboratory","display":"laboratory","userSelected":true}]}],"code":{"coding":[{"system":"http://loinc.org","code":"26464-8","display":"Leukocytes [#/volume] in Blood"}]},"subject":{"reference":"Patient/73b803bf-207c-411d-8db3-01908e5d9dda"},"issued":"2025-07-01T08:09:00.000+00:00","valueQuantity":{"value":4500,"unit":"uL","system":"http://unitsofmeasure.org","code":"uL"}},"request":{"method":"PUT","url":"Observation/429f5d0c-e915-4902-ad13-ae20415eedbb"}},{"fullUrl":"https://madie.cms.gov/Observation/5b55f69ab84846558c53bb73","resource":{"resourceType":"Observation","id":"28eeca82-dc87-443e-8249-10b6e693f364","meta":{"profile":["http://hl7.org/fhir/us/core/StructureDefinition/us-core-observation-lab"]},"status":"final","category":[{"coding":[{"system":"http://terminology.hl7.org/CodeSystem/observation-category","code":"laboratory","display":"laboratory","userSelected":true}]}],"code":{"coding":[{"system":"http://loinc.org","code":"26464-8","display":"Leukocytes [#/volume] in Blood"}]},"subject":{"reference":"Patient/73b803bf-207c-411d-8db3-01908e5d9dda"},"issued":"2025-07-02T08:00:00.000+00:00","valueQuantity":{"value":5000,"unit":"uL","system":"http://unitsofmeasure.org","code":"uL"}},"request":{"method":"PUT","url":"Observation/28eeca82-dc87-443e-8249-10b6e693f364"}},{"fullUrl":"https://madie.cms.gov/Organization/123456","resource":{"resourceType":"Organization","id":"4b5a882f-1f43-485c-85c6-f5ad2337d5b1","meta":{"profile":["http://hl7.org/fhir/us/qicore/StructureDefinition/qicore-organization"]},"identifier":[{"use":"temp","system":"urn:oid:2.16.840.1.113883.4.4","value":"21-3259825"}],"active":true,"type":[{"coding":[{"system":"http://terminology.hl7.org/CodeSystem/organization-type","code":"pay","display":"Payer"}]}],"name":"Blue Cross Blue Shield of Texas","telecom":[{"system":"phone","value":"(+1) 972-766-6900"}],"address":[{"use":"billing","type":"postal","line":["P.O. Box 660044"],"city":"Dallas","state":"TX","postalCode":"75266-0044","country":"USA"}]},"request":{"method":"PUT","url":"Organization/4b5a882f-1f43-485c-85c6-f5ad2337d5b1"}},{"fullUrl":"https://madie.cms.gov/Practitioner/practitioner-123456","resource":{"resourceType":"Practitioner","id":"b71c7a04-51b9-4c70-8eaa-a3aa9f407879","meta":{"profile":["http://hl7.org/fhir/us/qicore/StructureDefinition/qicore-practitioner"]},"identifier":[{"system":"http://hl7.org/fhir/sid/us-npi","value":"123456"}],"name":[{"family":"Evil","prefix":["Dr"]}]},"request":{"method":"PUT","url":"Practitioner/b71c7a04-51b9-4c70-8eaa-a3aa9f407879"}},{"fullUrl":"https://madie.cms.gov/MeasureReport/67aab8b1-2943-4a1c-a6b7-d87435ac0a29","resource":{"resourceType":"MeasureReport","id":"67aab8b1-2943-4a1c-a6b7-d87435ac0a29","meta":{"profile":["http://hl7.org/fhir/us/cqfmeasures/StructureDefinition/test-case-cqfm"]},"contained":[{"resourceType":"Parameters","id":"d2677fc2-b1a3-4e8d-89be-954c89546389-parameters","parameter":[{"name":"subject","valueString":"73b803bf-207c-411d-8db3-01908e5d9dda"}]}],"extension":[{"url":"http://hl7.org/fhir/us/cqfmeasures/StructureDefinition/cqfm-inputParameters","valueReference":{"reference":"#d2677fc2-b1a3-4e8d-89be-954c89546389-parameters"}},{"url":"http://hl7.org/fhir/us/cqfmeasures/StructureDefinition/cqfm-testCaseDescription","valueMarkdown":"Enc first day of MP (7/1) WBC were evaluated 1 hr and 24 hours after admission  "}],"modifierExtension":[{"url":"http://hl7.org/fhir/us/cqfmeasures/StructureDefinition/cqfm-isTestCase","valueBoolean":true}],"status":"complete","type":"individual","measure":"https://madie.cms.gov/Measure/HybridHospitalWideMortalityFHIR","period":{"start":"2025-01-01","end":"2025-12-31"},"group":[{"population":[{"code":{"coding":[{"system":"http://terminology.hl7.org/CodeSystem/measure-population","code":"initial-population","display":"Initial Population"}]},"count":1}]}]},"request":{"method":"PUT","url":"MeasureReport/67aab8b1-2943-4a1c-a6b7-d87435ac0a29"}}]}