{"resourceType":"Bundle","id":"tests-dbb82192-d268-4e50-be41-8e371d33bacd-bundle","type":"transaction","entry":[{"fullUrl":"https://madie.cms.gov/Patient/dbb82192-d268-4e50-be41-8e371d33bacd","resource":{"resourceType":"Patient","id":"dbb82192-d268-4e50-be41-8e371d33bacd","meta":{"profile":["http://hl7.org/fhir/us/qicore/StructureDefinition/qicore-patient"]},"text":{"status":"generated","div":"<div xmlns=\"http://www.w3.org/1999/xhtml\"><div class=\"hapiHeaderText\">LTE24before <b>CREATPASS </b></div><table class=\"hapiPropertyTable\"><tbody><tr><td>Identifier</td><td>f7053d5904ff43c96857e3f606716bbc2f99b5ab9c0c40826e6d339080f2947c</td></tr><tr><td>Date of birth</td><td><span>15 June 1956</span></td></tr></tbody></table></div>"},"extension":[{"url":"http://hl7.org/fhir/us/core/StructureDefinition/us-core-race","extension":[{"url":"ombCategory","valueCoding":{"system":"urn:oid:2.16.840.1.113883.6.238","code":"2076-8","display":"Native Hawaiian or Other Pacific Islander","userSelected":true}},{"url":"text","valueString":"Native Hawaiian or Other Pacific Islander"}]},{"url":"http://hl7.org/fhir/us/core/StructureDefinition/us-core-ethnicity","extension":[{"url":"ombCategory","valueCoding":{"system":"urn:oid:2.16.840.1.113883.6.238","code":"2186-5","display":"Not Hispanic or Latino","userSelected":true}},{"url":"text","valueString":"Not Hispanic or Latino"}]}],"identifier":[{"type":{"coding":[{"system":"http://terminology.hl7.org/CodeSystem/v2-0203","code":"MR"}]},"system":"https://bonnie-fhir.healthit.gov/","value":"63ec096cccb3770120fea178"}],"active":true,"name":[{"use":"usual","family":"CreatinineFail","given":["24Hrs1MinAfterStartOfInpatient"]}],"gender":"female","birthDate":"1960-07-01"},"request":{"method":"PUT","url":"Patient/dbb82192-d268-4e50-be41-8e371d33bacd"}},{"fullUrl":"https://madie.cms.gov/Encounter/5e0646a6be3ed30000faa0ec","resource":{"resourceType":"Encounter","id":"f31e7a16-04c5-4f04-a1dc-853171834960","meta":{"profile":["http://hl7.org/fhir/us/qicore/StructureDefinition/qicore-encounter"]},"status":"finished","class":{"system":"http://terminology.hl7.org/CodeSystem/v3-ActCode","code":"ACUTE","display":"Acute","userSelected":true},"type":[{"coding":[{"system":"http://snomed.info/sct","code":"183452005"}]}],"subject":{"reference":"Patient/dbb82192-d268-4e50-be41-8e371d33bacd"},"period":{"start":"2025-07-01T08:00:00.000+00:00","end":"2025-07-05T08:15:00.000+00:00"},"length":{"value":4,"unit":"days"}},"request":{"method":"PUT","url":"Encounter/f31e7a16-04c5-4f04-a1dc-853171834960"}},{"fullUrl":"https://madie.cms.gov/Coverage/5f9968c9b977ef0000c02c02","resource":{"resourceType":"Coverage","id":"9b8879d6-a81d-4015-a21f-4a02cce6e0cf","meta":{"profile":["http://hl7.org/fhir/us/qicore/StructureDefinition/qicore-coverage"]},"status":"active","type":{"coding":[{"system":"https://nahdo.org/sopt","version":"1.0.1","code":"1","display":"Medicare payer","userSelected":true}]},"beneficiary":{"reference":"Patient/dbb82192-d268-4e50-be41-8e371d33bacd"},"payor":[{"reference":"Organization/4b5a882f-1f43-485c-85c6-f5ad2337d5b1"}]},"request":{"method":"PUT","url":"Coverage/9b8879d6-a81d-4015-a21f-4a02cce6e0cf"}},{"fullUrl":"https://madie.cms.gov/Observation/5b55f71ab84846558c53bc09","resource":{"resourceType":"Observation","id":"8eea8304-1dd3-41b9-a695-691abab33571","meta":{"profile":["http://hl7.org/fhir/us/core/StructureDefinition/us-core-observation-lab"]},"status":"final","category":[{"coding":[{"system":"http://terminology.hl7.org/CodeSystem/observation-category","code":"laboratory","display":"laboratory","userSelected":true}]}],"code":{"coding":[{"system":"http://loinc.org","version":"2.69","code":"14682-9","display":"Creatinine [Moles/volume] in Serum or Plasma","userSelected":true}]},"subject":{"reference":"Patient/dbb82192-d268-4e50-be41-8e371d33bacd"},"issued":"2025-07-02T08:01:00.000+00:00","valueQuantity":{"value":1,"unit":"mg/dL","system":"http://unitsofmeasure.org","code":"mg/dL"}},"request":{"method":"PUT","url":"Observation/8eea8304-1dd3-41b9-a695-691abab33571"}},{"fullUrl":"https://madie.cms.gov/Observation/5b55f71ab84846558c53bc0b","resource":{"resourceType":"Observation","id":"c9dbea99-a846-4012-90d5-0a0aa3f8cb1a","meta":{"profile":["http://hl7.org/fhir/us/core/StructureDefinition/us-core-observation-lab"]},"status":"final","category":[{"coding":[{"system":"http://terminology.hl7.org/CodeSystem/observation-category","code":"laboratory","display":"laboratory","userSelected":true}]}],"code":{"coding":[{"system":"http://loinc.org","version":"2.69","code":"14682-9","display":"Creatinine [Moles/volume] in Serum or Plasma","userSelected":true}]},"subject":{"reference":"Patient/dbb82192-d268-4e50-be41-8e371d33bacd"},"issued":"2025-07-03T08:00:00.000+00:00","valueQuantity":{"value":2,"unit":"mg/dL","system":"http://unitsofmeasure.org","code":"mg/dL"}},"request":{"method":"PUT","url":"Observation/c9dbea99-a846-4012-90d5-0a0aa3f8cb1a"}},{"fullUrl":"https://madie.cms.gov/Observation/creatinine-lab-test-1555","resource":{"resourceType":"Observation","id":"2de9b69d-0855-4dfb-a58f-c5ead3230e92","meta":{"profile":["http://hl7.org/fhir/us/qicore/StructureDefinition/qicore-observation"]},"status":"final","category":[{"coding":[{"system":"http://terminology.hl7.org/CodeSystem/observation-category","code":"laboratory","display":"laboratory","userSelected":true}]}],"code":{"coding":[{"system":"http://loinc.org","version":"2.69","code":"14682-9","display":"Creatinine [Moles/volume] in Serum or Plasma","userSelected":true}]},"subject":{"reference":"Patient/dbb82192-d268-4e50-be41-8e371d33bacd"},"issued":"2025-07-04T20:00:00.000+00:00","valueQuantity":{"value":3.0,"unit":"mg/dL","system":"http://unitsofmeasure.org","code":"mg/dL"}},"request":{"method":"PUT","url":"Observation/2de9b69d-0855-4dfb-a58f-c5ead3230e92"}},{"fullUrl":"https://madie.cms.gov/Observation/creatinine-lab-test-1556","resource":{"resourceType":"Observation","id":"acdb3ef0-316a-4469-98a9-6d89bd96bad4","meta":{"profile":["http://hl7.org/fhir/us/qicore/StructureDefinition/qicore-observation"]},"status":"final","category":[{"coding":[{"system":"http://terminology.hl7.org/CodeSystem/observation-category","code":"laboratory","display":"laboratory","userSelected":true}]}],"code":{"coding":[{"system":"http://loinc.org","version":"2.69","code":"14682-9","display":"Creatinine [Moles/volume] in Serum or Plasma","userSelected":true}]},"subject":{"reference":"Patient/dbb82192-d268-4e50-be41-8e371d33bacd"},"issued":"2025-07-05T08:00:00.000+00:00","valueQuantity":{"value":4.0,"unit":"mg/dL","system":"http://unitsofmeasure.org","code":"mg/dL"}},"request":{"method":"PUT","url":"Observation/acdb3ef0-316a-4469-98a9-6d89bd96bad4"}},{"fullUrl":"https://madie.cms.gov/Organization/123456","resource":{"resourceType":"Organization","id":"4b5a882f-1f43-485c-85c6-f5ad2337d5b1","meta":{"profile":["http://hl7.org/fhir/us/qicore/StructureDefinition/qicore-organization"]},"identifier":[{"use":"temp","system":"urn:oid:2.16.840.1.113883.4.4","value":"21-3259825"}],"active":true,"type":[{"coding":[{"system":"http://terminology.hl7.org/CodeSystem/organization-type","code":"pay","display":"Payer"}]}],"name":"Blue Cross Blue Shield of Texas","telecom":[{"system":"phone","value":"(+1) 972-766-6900"}],"address":[{"use":"billing","type":"postal","line":["P.O. Box 660044"],"city":"Dallas","state":"TX","postalCode":"75266-0044","country":"USA"}]},"request":{"method":"PUT","url":"Organization/4b5a882f-1f43-485c-85c6-f5ad2337d5b1"}},{"fullUrl":"https://madie.cms.gov/Practitioner/practitioner-123456","resource":{"resourceType":"Practitioner","id":"4e932ff3-7e2c-4d90-8201-7390b2caf1d1","meta":{"profile":["http://hl7.org/fhir/us/qicore/StructureDefinition/qicore-practitioner"]},"identifier":[{"system":"http://hl7.org/fhir/sid/us-npi","value":"123456"}],"name":[{"family":"Evil","prefix":["Dr"]}]},"request":{"method":"PUT","url":"Practitioner/4e932ff3-7e2c-4d90-8201-7390b2caf1d1"}},{"fullUrl":"https://madie.cms.gov/MeasureReport/aa67b829-11ba-46c4-9f16-34c72158d184","resource":{"resourceType":"MeasureReport","id":"aa67b829-11ba-46c4-9f16-34c72158d184","meta":{"profile":["http://hl7.org/fhir/us/cqfmeasures/StructureDefinition/test-case-cqfm"]},"contained":[{"resourceType":"Parameters","id":"079f15ef-9072-4a87-aad4-e0a427c720bc-parameters","parameter":[{"name":"subject","valueString":"dbb82192-d268-4e50-be41-8e371d33bacd"}]}],"extension":[{"url":"http://hl7.org/fhir/us/cqfmeasures/StructureDefinition/cqfm-inputParameters","valueReference":{"reference":"#079f15ef-9072-4a87-aad4-e0a427c720bc-parameters"}},{"url":"http://hl7.org/fhir/us/cqfmeasures/StructureDefinition/cqfm-testCaseDescription","valueMarkdown":"Enc. started first day of MP (7/1), has Medicare, turned 65 today, Creatinine tests performed 24 hrs 1 min after start of inpatient enc; other creatinine  labs followed for days 3-5 but all were well after the 24 hr timeline. "}],"modifierExtension":[{"url":"http://hl7.org/fhir/us/cqfmeasures/StructureDefinition/cqfm-isTestCase","valueBoolean":true}],"status":"complete","type":"individual","measure":"https://madie.cms.gov/Measure/HybridHospitalWideMortalityFHIR","period":{"start":"2025-01-01","end":"2025-12-31"},"group":[{"population":[{"code":{"coding":[{"system":"http://terminology.hl7.org/CodeSystem/measure-population","code":"initial-population","display":"Initial Population"}]},"count":1}]}]},"request":{"method":"PUT","url":"MeasureReport/aa67b829-11ba-46c4-9f16-34c72158d184"}}]}