{"resourceType":"Bundle","id":"tests-34f7d577-183d-4a6b-905d-22f6751c3940-bundle","type":"transaction","entry":[{"fullUrl":"https://madie.cms.gov/Patient/34f7d577-183d-4a6b-905d-22f6751c3940","resource":{"resourceType":"Patient","id":"34f7d577-183d-4a6b-905d-22f6751c3940","meta":{"profile":["http://hl7.org/fhir/us/qicore/StructureDefinition/qicore-patient"]},"text":{"status":"generated","div":"<div xmlns=\"http://www.w3.org/1999/xhtml\"><div class=\"hapiHeaderText\">EncStartsBeforeMP <b>IPFAIL </b></div><table class=\"hapiPropertyTable\"><tbody><tr><td>Identifier</td><td>5357cf1fa2383d9a0e8f3ff5d42eaa9911ad131ad62a639f75e98789c2c8866b</td></tr><tr><td>Date of birth</td><td><span>15 June 1956</span></td></tr></tbody></table></div>"},"extension":[{"url":"http://hl7.org/fhir/us/core/StructureDefinition/us-core-race","extension":[{"url":"ombCategory","valueCoding":{"system":"urn:oid:2.16.840.1.113883.6.238","code":"1002-5","display":"American Indian or Alaska Native","userSelected":true}},{"url":"text","valueString":"American Indian or Alaska Native"}]},{"url":"http://hl7.org/fhir/us/core/StructureDefinition/us-core-ethnicity","extension":[{"url":"ombCategory","valueCoding":{"system":"urn:oid:2.16.840.1.113883.6.238","code":"2186-5","display":"Not Hispanic or Latino","userSelected":true}},{"url":"text","valueString":"Not Hispanic or Latino"}]}],"identifier":[{"type":{"coding":[{"system":"http://terminology.hl7.org/CodeSystem/v2-0203","code":"MR"}]},"system":"https://bonnie-fhir.healthit.gov/","value":"63ec096eccb3770120fea3a7"}],"active":true,"name":[{"use":"usual","family":"IPFail","given":["EncounterEndsB4StartofMP"]}],"gender":"male","birthDate":"1956-06-15"},"request":{"method":"PUT","url":"Patient/34f7d577-183d-4a6b-905d-22f6751c3940"}},{"fullUrl":"https://madie.cms.gov/Encounter/5e3b3058cae4990000e3f5f9","resource":{"resourceType":"Encounter","id":"25185132-017f-4347-9dec-4cd4a3ab6352","meta":{"profile":["http://hl7.org/fhir/us/qicore/StructureDefinition/qicore-encounter"]},"status":"finished","class":{"system":"http://terminology.hl7.org/CodeSystem/v3-ActCode","code":"IMP","display":"inpatient encounter"},"type":[{"coding":[{"system":"http://snomed.info/sct","code":"183452005"}]}],"subject":{"reference":"Patient/34f7d577-183d-4a6b-905d-22f6751c3940"},"period":{"start":"2024-12-26T08:00:00.000+00:00","end":"2024-12-31T11:59:00.000+00:00"},"length":{"value":5.0,"unit":"days"}},"request":{"method":"PUT","url":"Encounter/25185132-017f-4347-9dec-4cd4a3ab6352"}},{"fullUrl":"https://madie.cms.gov/Coverage/5f996b1dc8c7dc0000c7b884","resource":{"resourceType":"Coverage","id":"16247b73-942f-4e89-8000-b47fed837dc9","meta":{"profile":["http://hl7.org/fhir/us/qicore/StructureDefinition/qicore-coverage"]},"status":"active","type":{"coding":[{"system":"https://nahdo.org/sopt","version":"9.2","code":"1","display":"MEDICARE","userSelected":true}]},"beneficiary":{"reference":"Patient/34f7d577-183d-4a6b-905d-22f6751c3940"},"period":{"start":"2024-12-01T00:00:00+00:00"},"payor":[{"reference":"Organization/4b5a882f-1f43-485c-85c6-f5ad2337d5b1"}]},"request":{"method":"PUT","url":"Coverage/16247b73-942f-4e89-8000-b47fed837dc9"}},{"fullUrl":"https://madie.cms.gov/Organization/123456","resource":{"resourceType":"Organization","id":"4b5a882f-1f43-485c-85c6-f5ad2337d5b1","meta":{"profile":["http://hl7.org/fhir/us/qicore/StructureDefinition/qicore-organization"]},"identifier":[{"use":"temp","system":"urn:oid:2.16.840.1.113883.4.4","value":"21-3259825"}],"active":true,"type":[{"coding":[{"system":"http://terminology.hl7.org/CodeSystem/organization-type","code":"pay","display":"Payer"}]}],"name":"Blue Cross Blue Shield of Texas","telecom":[{"system":"phone","value":"(+1) 972-766-6900"}],"address":[{"use":"billing","type":"postal","line":["P.O. Box 660044"],"city":"Dallas","state":"TX","postalCode":"75266-0044","country":"USA"}]},"request":{"method":"PUT","url":"Organization/4b5a882f-1f43-485c-85c6-f5ad2337d5b1"}},{"fullUrl":"https://madie.cms.gov/Practitioner/practitioner-123456","resource":{"resourceType":"Practitioner","id":"f35679e8-2172-4138-a243-b54554324677","meta":{"profile":["http://hl7.org/fhir/us/qicore/StructureDefinition/qicore-practitioner"]},"identifier":[{"system":"http://hl7.org/fhir/sid/us-npi","value":"123456"}],"name":[{"family":"Evil","prefix":["Dr"]}]},"request":{"method":"PUT","url":"Practitioner/f35679e8-2172-4138-a243-b54554324677"}},{"fullUrl":"https://madie.cms.gov/MeasureReport/9014cab0-425b-405b-8652-fc81c7199521","resource":{"resourceType":"MeasureReport","id":"9014cab0-425b-405b-8652-fc81c7199521","meta":{"profile":["http://hl7.org/fhir/us/cqfmeasures/StructureDefinition/test-case-cqfm"]},"contained":[{"resourceType":"Parameters","id":"e28b3e3a-f103-4cff-b954-3c3e560d6824-parameters","parameter":[{"name":"subject","valueString":"34f7d577-183d-4a6b-905d-22f6751c3940"}]}],"extension":[{"url":"http://hl7.org/fhir/us/cqfmeasures/StructureDefinition/cqfm-inputParameters","valueReference":{"reference":"#e28b3e3a-f103-4cff-b954-3c3e560d6824-parameters"}},{"url":"http://hl7.org/fhir/us/cqfmeasures/StructureDefinition/cqfm-testCaseDescription","valueMarkdown":"Encounter ends (12/31) before start of measurement period.\n "}],"modifierExtension":[{"url":"http://hl7.org/fhir/us/cqfmeasures/StructureDefinition/cqfm-isTestCase","valueBoolean":true}],"status":"complete","type":"individual","measure":"https://madie.cms.gov/Measure/HybridHospitalWideMortalityFHIR","period":{"start":"2025-01-01","end":"2025-12-31"},"group":[{"population":[{"code":{"coding":[{"system":"http://terminology.hl7.org/CodeSystem/measure-population","code":"initial-population","display":"Initial Population"}]},"count":0}]}]},"request":{"method":"PUT","url":"MeasureReport/9014cab0-425b-405b-8652-fc81c7199521"}}]}