{"resourceType":"Bundle","id":"tests-56d14d39-e1d9-4bfa-8c97-0578669f75a8-bundle","type":"transaction","entry":[{"fullUrl":"https://madie.cms.gov/Patient/56d14d39-e1d9-4bfa-8c97-0578669f75a8","resource":{"resourceType":"Patient","id":"56d14d39-e1d9-4bfa-8c97-0578669f75a8","meta":{"profile":["http://hl7.org/fhir/us/qicore/StructureDefinition/qicore-patient"]},"text":{"status":"generated","div":"<div xmlns=\"http://www.w3.org/1999/xhtml\"><div class=\"hapiHeaderText\">LTE24before <b>BICARBPASS </b></div><table class=\"hapiPropertyTable\"><tbody><tr><td>Identifier</td><td>d69abbc179641b9cd673a4a9152886e8e63bc2e0e7b27e1a51505ef2a774679e</td></tr><tr><td>Date of birth</td><td><span>15 June 1956</span></td></tr></tbody></table></div>"},"extension":[{"url":"http://hl7.org/fhir/us/core/StructureDefinition/us-core-race","extension":[{"url":"ombCategory","valueCoding":{"system":"urn:oid:2.16.840.1.113883.6.238","code":"1002-5","display":"American Indian or Alaska Native","userSelected":true}},{"url":"text","valueString":"American Indian or Alaska Native"}]},{"url":"http://hl7.org/fhir/us/core/StructureDefinition/us-core-ethnicity","extension":[{"url":"ombCategory","valueCoding":{"system":"urn:oid:2.16.840.1.113883.6.238","code":"2186-5","display":"Not Hispanic or Latino","userSelected":true}},{"url":"text","valueString":"Not Hispanic or Latino"}]}],"identifier":[{"type":{"coding":[{"system":"http://terminology.hl7.org/CodeSystem/v2-0203","code":"MR"}]},"system":"https://bonnie-fhir.healthit.gov/","value":"63f3a249ccb3770120ffe6eb"}],"active":true,"name":[{"use":"usual","family":"BicarbonateFail","given":["24Hrs1MinBeforeInpatientEncStart"]}],"gender":"male","birthDate":"1960-07-01"},"request":{"method":"PUT","url":"Patient/56d14d39-e1d9-4bfa-8c97-0578669f75a8"}},{"fullUrl":"https://madie.cms.gov/Encounter/5e063f246e768a00003ba419","resource":{"resourceType":"Encounter","id":"49ea4720-31ae-4da8-8f24-7305cdb79c8e","meta":{"profile":["http://hl7.org/fhir/us/qicore/StructureDefinition/qicore-encounter"]},"status":"finished","class":{"system":"http://terminology.hl7.org/CodeSystem/v3-ActCode","code":"IMP","display":"inpatient encounter","userSelected":true},"type":[{"coding":[{"system":"http://snomed.info/sct","code":"183452005"}]}],"subject":{"reference":"Patient/56d14d39-e1d9-4bfa-8c97-0578669f75a8"},"period":{"start":"2025-07-01T08:00:00.000+00:00","end":"2025-07-03T08:15:00.000+00:00"}},"request":{"method":"PUT","url":"Encounter/49ea4720-31ae-4da8-8f24-7305cdb79c8e"}},{"fullUrl":"https://madie.cms.gov/Coverage/5fd0d02217572300002232df","resource":{"resourceType":"Coverage","id":"b1ba0bc3-229e-42cb-ab08-ecfb00defe88","meta":{"profile":["http://hl7.org/fhir/us/qicore/StructureDefinition/qicore-coverage"]},"status":"active","type":{"coding":[{"system":"https://nahdo.org/sopt","version":"1.0.1","code":"1","display":"Medicare payer","userSelected":true}]},"beneficiary":{"reference":"Patient/56d14d39-e1d9-4bfa-8c97-0578669f75a8"},"period":{"start":"2025-01-01T08:00:00.000+00:00","end":"2025-12-31T08:15:00.000+00:00"},"payor":[{"reference":"Organization/4b5a882f-1f43-485c-85c6-f5ad2337d5b1"}]},"request":{"method":"PUT","url":"Coverage/b1ba0bc3-229e-42cb-ab08-ecfb00defe88"}},{"fullUrl":"https://madie.cms.gov/Observation/5b55f745b84846558c53bc2b","resource":{"resourceType":"Observation","id":"19ff9f3e-4c08-4961-86c5-93808b87d588","meta":{"profile":["http://hl7.org/fhir/us/core/StructureDefinition/us-core-observation-lab"]},"status":"final","category":[{"coding":[{"system":"http://terminology.hl7.org/CodeSystem/observation-category","code":"laboratory","display":"laboratory","userSelected":true}]}],"code":{"coding":[{"system":"http://loinc.org","code":"14627-4","display":"Bicarbonate [Moles/volume] in Venous blood"}]},"subject":{"reference":"Patient/56d14d39-e1d9-4bfa-8c97-0578669f75a8"},"effectiveDateTime":"2025-06-30T07:59:00.000+00:00","issued":"2025-06-30T07:59:00.000+00:00","valueQuantity":{"value":25,"unit":"mmol/L","system":"http://unitsofmeasure.org","code":"mg/dL"}},"request":{"method":"PUT","url":"Observation/19ff9f3e-4c08-4961-86c5-93808b87d588"}},{"fullUrl":"https://madie.cms.gov/Organization/123456","resource":{"resourceType":"Organization","id":"4b5a882f-1f43-485c-85c6-f5ad2337d5b1","meta":{"profile":["http://hl7.org/fhir/us/qicore/StructureDefinition/qicore-organization"]},"identifier":[{"use":"temp","system":"urn:oid:2.16.840.1.113883.4.4","value":"21-3259825"}],"active":true,"type":[{"coding":[{"system":"http://terminology.hl7.org/CodeSystem/organization-type","code":"pay","display":"Payer"}]}],"name":"Blue Cross Blue Shield of Texas","telecom":[{"system":"phone","value":"(+1) 972-766-6900"}],"address":[{"use":"billing","type":"postal","line":["P.O. Box 660044"],"city":"Dallas","state":"TX","postalCode":"75266-0044","country":"USA"}]},"request":{"method":"PUT","url":"Organization/4b5a882f-1f43-485c-85c6-f5ad2337d5b1"}},{"fullUrl":"https://madie.cms.gov/Practitioner/practitioner-123456","resource":{"resourceType":"Practitioner","id":"bdc68623-5ef4-4ee0-84b5-0d8489185812","meta":{"profile":["http://hl7.org/fhir/us/qicore/StructureDefinition/qicore-practitioner"]},"identifier":[{"system":"http://hl7.org/fhir/sid/us-npi","value":"123456"}],"name":[{"family":"Evil","prefix":["Dr"]}]},"request":{"method":"PUT","url":"Practitioner/bdc68623-5ef4-4ee0-84b5-0d8489185812"}},{"fullUrl":"https://madie.cms.gov/MeasureReport/16fc9844-7192-4b52-a70b-064b4aadba54","resource":{"resourceType":"MeasureReport","id":"16fc9844-7192-4b52-a70b-064b4aadba54","meta":{"profile":["http://hl7.org/fhir/us/cqfmeasures/StructureDefinition/test-case-cqfm"]},"contained":[{"resourceType":"Parameters","id":"55980c10-0e33-4dec-a1a0-ac998cb607ab-parameters","parameter":[{"name":"subject","valueString":"56d14d39-e1d9-4bfa-8c97-0578669f75a8"}]}],"extension":[{"url":"http://hl7.org/fhir/us/cqfmeasures/StructureDefinition/cqfm-inputParameters","valueReference":{"reference":"#55980c10-0e33-4dec-a1a0-ac998cb607ab-parameters"}},{"url":"http://hl7.org/fhir/us/cqfmeasures/StructureDefinition/cqfm-testCaseDescription","valueMarkdown":"Enc first day of MP (7/1), age 65 today, has Medicare, bicarbonate test performed 24 hrs 1 min before start of inpatient encounter. "}],"modifierExtension":[{"url":"http://hl7.org/fhir/us/cqfmeasures/StructureDefinition/cqfm-isTestCase","valueBoolean":true}],"status":"complete","type":"individual","measure":"https://madie.cms.gov/Measure/HybridHospitalWideMortalityFHIR","period":{"start":"2025-01-01","end":"2025-12-31"},"group":[{"population":[{"code":{"coding":[{"system":"http://terminology.hl7.org/CodeSystem/measure-population","code":"initial-population","display":"Initial Population"}]},"count":1}]}]},"request":{"method":"PUT","url":"MeasureReport/16fc9844-7192-4b52-a70b-064b4aadba54"}}]}