{"resourceType":"Bundle","id":"tests-61e359ab-5395-4a3d-b464-c868b9c2526a-bundle","type":"transaction","entry":[{"fullUrl":"https://madie.cms.gov/Patient/61e359ab-5395-4a3d-b464-c868b9c2526a","resource":{"resourceType":"Patient","id":"61e359ab-5395-4a3d-b464-c868b9c2526a","meta":{"profile":["http://hl7.org/fhir/us/qicore/StructureDefinition/qicore-patient"]},"extension":[{"url":"http://hl7.org/fhir/us/core/StructureDefinition/us-core-race","extension":[{"url":"ombCategory","valueCoding":{"system":"urn:oid:2.16.840.1.113883.6.238","code":"1002-5","display":"American Indian or Alaska Native","userSelected":true}},{"url":"text","valueString":"American Indian or Alaska Native"}]},{"url":"http://hl7.org/fhir/us/core/StructureDefinition/us-core-ethnicity","extension":[{"url":"ombCategory","valueCoding":{"system":"urn:oid:2.16.840.1.113883.6.238","code":"2135-2","display":"Hispanic or Latino","userSelected":true}},{"url":"text","valueString":"Hispanic or Latino"}]}],"identifier":[{"type":{"coding":[{"system":"http://terminology.hl7.org/CodeSystem/v2-0203","code":"MR"}]},"system":"https://bonnie-fhir.healthit.gov/","value":"62b1e15a3968556e5150cf3b"}],"name":[{"family":"DENOMEXPass","given":["AdultHistoryOfBipolarRecurrence"]}],"gender":"male","birthDate":"2007-01-01"},"request":{"method":"PUT","url":"Patient/61e359ab-5395-4a3d-b464-c868b9c2526a"}},{"fullUrl":"https://madie.cms.gov/Encounter/encounter-to-screen-for-depression-cf3c","resource":{"resourceType":"Encounter","id":"a7acc8f4-1ac9-4701-b1b3-566c6d6b490b","meta":{"profile":["http://hl7.org/fhir/us/qicore/StructureDefinition/qicore-encounter"]},"status":"finished","class":{"system":"http://terminology.hl7.org/CodeSystem/v3-ActCode","code":"AMB","display":"ambulatory"},"type":[{"coding":[{"system":"http://snomed.info/sct","version":"2021-09","code":"10197000","display":"Psychiatric interview and evaluation (procedure)","userSelected":true}]}],"subject":{"reference":"Patient/61e359ab-5395-4a3d-b464-c868b9c2526a"},"period":{"start":"2025-06-21T08:00:00.000+00:00","end":"2025-06-21T08:15:00.000+00:00"}},"request":{"method":"PUT","url":"Encounter/a7acc8f4-1ac9-4701-b1b3-566c6d6b490b"}},{"fullUrl":"https://madie.cms.gov/Condition/bipolar-diagnosis-cf3d","resource":{"resourceType":"Condition","id":"eac3f46a-b05d-4af4-94fe-7d9fc1fbbb03","meta":{"profile":["http://hl7.org/fhir/us/qicore/StructureDefinition/qicore-condition"]},"clinicalStatus":{"coding":[{"system":"http://terminology.hl7.org/CodeSystem/condition-clinical","code":"recurrence","display":"recurrence","userSelected":true}]},"category":[{"coding":[{"system":"http://terminology.hl7.org/CodeSystem/condition-category","code":"problem-list-item","display":"Problem List Item"}]}],"code":{"coding":[{"system":"http://snomed.info/sct","version":"2021-09","code":"10875004","display":"Severe mixed bipolar I disorder with psychotic features, mood-incongruent (disorder)","userSelected":true}]},"subject":{"reference":"Patient/61e359ab-5395-4a3d-b464-c868b9c2526a"},"onsetDateTime":"2025-06-15T08:00:00.000+00:00"},"request":{"method":"PUT","url":"Condition/eac3f46a-b05d-4af4-94fe-7d9fc1fbbb03"}},{"fullUrl":"https://madie.cms.gov/Coverage/1","resource":{"resourceType":"Coverage","id":"a27cf021-943f-4823-b9ba-aef7fbd8c91a","meta":{"profile":["http://hl7.org/fhir/us/qicore/StructureDefinition/qicore-coverage"]},"status":"active","beneficiary":{"reference":"Patient/61e359ab-5395-4a3d-b464-c868b9c2526a"},"payor":[{"reference":"Organization/4b5a882f-1f43-485c-85c6-f5ad2337d5b1"}]},"request":{"method":"PUT","url":"Coverage/a27cf021-943f-4823-b9ba-aef7fbd8c91a"}},{"fullUrl":"https://madie.cms.gov/Organization/123456","resource":{"resourceType":"Organization","id":"4b5a882f-1f43-485c-85c6-f5ad2337d5b1","meta":{"profile":["http://hl7.org/fhir/us/qicore/StructureDefinition/qicore-organization"]},"identifier":[{"use":"temp","system":"urn:oid:2.16.840.1.113883.4.4","value":"21-3259825"}],"active":true,"type":[{"coding":[{"system":"http://terminology.hl7.org/CodeSystem/organization-type","code":"pay","display":"Payer"}]}],"name":"Blue Cross Blue Shield of Texas","telecom":[{"system":"phone","value":"(+1) 972-766-6900"}],"address":[{"use":"billing","type":"postal","line":["P.O. Box 660044"],"city":"Dallas","state":"TX","postalCode":"75266-0044","country":"USA"}]},"request":{"method":"PUT","url":"Organization/4b5a882f-1f43-485c-85c6-f5ad2337d5b1"}},{"fullUrl":"https://madie.cms.gov/Practitioner/practitioner-123456","resource":{"resourceType":"Practitioner","id":"32300ee2-fd60-453d-aaaa-4f33b17002ca","meta":{"profile":["http://hl7.org/fhir/us/qicore/StructureDefinition/qicore-practitioner"]},"identifier":[{"system":"http://hl7.org/fhir/sid/us-npi","value":"123456"}],"name":[{"family":"Evil","prefix":["Dr"]}]},"request":{"method":"PUT","url":"Practitioner/32300ee2-fd60-453d-aaaa-4f33b17002ca"}},{"fullUrl":"https://madie.cms.gov/MeasureReport/207a3c5c-02bc-4211-b18a-ed2eb2554609","resource":{"resourceType":"MeasureReport","id":"207a3c5c-02bc-4211-b18a-ed2eb2554609","meta":{"profile":["http://hl7.org/fhir/us/cqfmeasures/StructureDefinition/test-case-cqfm"]},"contained":[{"resourceType":"Parameters","id":"858d7c1c-9f3e-4443-aeaf-8f87ba52e6cc-parameters","parameter":[{"name":"subject","valueString":"61e359ab-5395-4a3d-b464-c868b9c2526a"}]}],"extension":[{"url":"http://hl7.org/fhir/us/cqfmeasures/StructureDefinition/cqfm-inputParameters","valueReference":{"reference":"#858d7c1c-9f3e-4443-aeaf-8f87ba52e6cc-parameters"}},{"url":"http://hl7.org/fhir/us/cqfmeasures/StructureDefinition/cqfm-testCaseDescription","valueMarkdown":"18 yo patient with history of bipolar - recurrence"}],"modifierExtension":[{"url":"http://hl7.org/fhir/us/cqfmeasures/StructureDefinition/cqfm-isTestCase","valueBoolean":true}],"status":"complete","type":"individual","measure":"https://madie.cms.gov/Measure/PCSDepressionScreenAndFollowUpFHIR","period":{"start":"2025-01-01","end":"2025-12-31"},"group":[{"population":[{"code":{"coding":[{"system":"http://terminology.hl7.org/CodeSystem/measure-population","code":"initial-population","display":"Initial Population"}]},"count":1},{"code":{"coding":[{"system":"http://terminology.hl7.org/CodeSystem/measure-population","code":"denominator","display":"Denominator"}]},"count":1},{"code":{"coding":[{"system":"http://terminology.hl7.org/CodeSystem/measure-population","code":"denominator-exclusion","display":"Denominator Exclusion"}]},"count":1},{"code":{"coding":[{"system":"http://terminology.hl7.org/CodeSystem/measure-population","code":"numerator","display":"Numerator"}]},"count":0},{"code":{"coding":[{"system":"http://terminology.hl7.org/CodeSystem/measure-population","code":"denominator-exception","display":"Denominator Exception"}]},"count":0}]}]},"request":{"method":"PUT","url":"MeasureReport/207a3c5c-02bc-4211-b18a-ed2eb2554609"}}]}