{"resourceType":"Bundle","id":"tests-f3f347f2-5b62-42b1-a237-3956ca9c9185-bundle","type":"transaction","entry":[{"fullUrl":"https://madie.cms.gov/Patient/f3f347f2-5b62-42b1-a237-3956ca9c9185","resource":{"resourceType":"Patient","id":"f3f347f2-5b62-42b1-a237-3956ca9c9185","meta":{"profile":["http://hl7.org/fhir/us/qicore/StructureDefinition/qicore-patient"]},"extension":[{"url":"http://hl7.org/fhir/us/core/StructureDefinition/us-core-race","extension":[{"url":"ombCategory","valueCoding":{"system":"urn:oid:2.16.840.1.113883.6.238","code":"1002-5","display":"American Indian or Alaska Native","userSelected":true}},{"url":"text","valueString":"American Indian or Alaska Native"}]},{"url":"http://hl7.org/fhir/us/core/StructureDefinition/us-core-ethnicity","extension":[{"url":"ombCategory","valueCoding":{"system":"urn:oid:2.16.840.1.113883.6.238","code":"2135-2","display":"Hispanic or Latino","userSelected":true}},{"url":"text","valueString":"Hispanic or Latino"}]}],"identifier":[{"type":{"coding":[{"system":"http://terminology.hl7.org/CodeSystem/v2-0203","code":"MR"}]},"system":"https://bonnie-fhir.healthit.gov/","value":"62b1e15a3968556e5150cf3b"}],"name":[{"family":"DENOMEXPass","given":["AdolescentHistoryOfBipolarRemission"]}],"gender":"male","birthDate":"2008-01-01"},"request":{"method":"PUT","url":"Patient/f3f347f2-5b62-42b1-a237-3956ca9c9185"}},{"fullUrl":"https://madie.cms.gov/Encounter/encounter-to-screen-for-depression-cf3c","resource":{"resourceType":"Encounter","id":"a9d93027-a692-4f03-886b-5cc4eb941237","meta":{"profile":["http://hl7.org/fhir/us/qicore/StructureDefinition/qicore-encounter"]},"status":"finished","class":{"system":"http://terminology.hl7.org/CodeSystem/v3-ActCode","code":"AMB","display":"ambulatory"},"type":[{"coding":[{"system":"http://snomed.info/sct","version":"2021-09","code":"10197000","display":"Psychiatric interview and evaluation (procedure)","userSelected":true}]}],"subject":{"reference":"Patient/f3f347f2-5b62-42b1-a237-3956ca9c9185"},"period":{"start":"2025-01-01T08:00:00.000+00:00","end":"2025-01-01T08:15:00.000+00:00"}},"request":{"method":"PUT","url":"Encounter/a9d93027-a692-4f03-886b-5cc4eb941237"}},{"fullUrl":"https://madie.cms.gov/Condition/bipolar-diagnosis-cf3d","resource":{"resourceType":"Condition","id":"e081bdfb-345f-4910-9786-4d2e22db86a8","meta":{"profile":["http://hl7.org/fhir/us/qicore/StructureDefinition/qicore-condition"]},"clinicalStatus":{"coding":[{"system":"http://terminology.hl7.org/CodeSystem/condition-clinical","code":"active","display":"active","userSelected":true}]},"category":[{"coding":[{"system":"http://terminology.hl7.org/CodeSystem/condition-category","code":"problem-list-item","display":"Problem List Item"}]}],"code":{"coding":[{"system":"http://snomed.info/sct","version":"2021-09","code":"12969000","display":"Severe bipolar II disorder, most recent episode major depressive, in full remission (disorder)","userSelected":true}]},"subject":{"reference":"Patient/f3f347f2-5b62-42b1-a237-3956ca9c9185"},"onsetDateTime":"2020-12-31T23:59:00.000+00:00"},"request":{"method":"PUT","url":"Condition/e081bdfb-345f-4910-9786-4d2e22db86a8"}},{"fullUrl":"https://madie.cms.gov/Coverage/1","resource":{"resourceType":"Coverage","id":"aa12933b-9259-4e6c-970a-f80a289e9c3e","meta":{"profile":["http://hl7.org/fhir/us/qicore/StructureDefinition/qicore-coverage"]},"status":"active","beneficiary":{"reference":"Patient/f3f347f2-5b62-42b1-a237-3956ca9c9185"},"payor":[{"reference":"Organization/4b5a882f-1f43-485c-85c6-f5ad2337d5b1"}]},"request":{"method":"PUT","url":"Coverage/aa12933b-9259-4e6c-970a-f80a289e9c3e"}},{"fullUrl":"https://madie.cms.gov/Organization/123456","resource":{"resourceType":"Organization","id":"4b5a882f-1f43-485c-85c6-f5ad2337d5b1","meta":{"profile":["http://hl7.org/fhir/us/qicore/StructureDefinition/qicore-organization"]},"identifier":[{"use":"temp","system":"urn:oid:2.16.840.1.113883.4.4","value":"21-3259825"}],"active":true,"type":[{"coding":[{"system":"http://terminology.hl7.org/CodeSystem/organization-type","code":"pay","display":"Payer"}]}],"name":"Blue Cross Blue Shield of Texas","telecom":[{"system":"phone","value":"(+1) 972-766-6900"}],"address":[{"use":"billing","type":"postal","line":["P.O. Box 660044"],"city":"Dallas","state":"TX","postalCode":"75266-0044","country":"USA"}]},"request":{"method":"PUT","url":"Organization/4b5a882f-1f43-485c-85c6-f5ad2337d5b1"}},{"fullUrl":"https://madie.cms.gov/Practitioner/practitioner-123456","resource":{"resourceType":"Practitioner","id":"9a8e331a-ae7a-4d27-90d1-9e4d54891c59","meta":{"profile":["http://hl7.org/fhir/us/qicore/StructureDefinition/qicore-practitioner"]},"identifier":[{"system":"http://hl7.org/fhir/sid/us-npi","value":"123456"}],"name":[{"family":"Evil","prefix":["Dr"]}]},"request":{"method":"PUT","url":"Practitioner/9a8e331a-ae7a-4d27-90d1-9e4d54891c59"}},{"fullUrl":"https://madie.cms.gov/MeasureReport/921b09c1-8474-4906-9cbc-749dd9dc2777","resource":{"resourceType":"MeasureReport","id":"921b09c1-8474-4906-9cbc-749dd9dc2777","meta":{"profile":["http://hl7.org/fhir/us/cqfmeasures/StructureDefinition/test-case-cqfm"]},"contained":[{"resourceType":"Parameters","id":"b1b31ad2-cb0b-448e-af90-ed48b7ff6b4b-parameters","parameter":[{"name":"subject","valueString":"f3f347f2-5b62-42b1-a237-3956ca9c9185"}]}],"extension":[{"url":"http://hl7.org/fhir/us/cqfmeasures/StructureDefinition/cqfm-inputParameters","valueReference":{"reference":"#b1b31ad2-cb0b-448e-af90-ed48b7ff6b4b-parameters"}},{"url":"http://hl7.org/fhir/us/cqfmeasures/StructureDefinition/cqfm-testCaseDescription","valueMarkdown":"17 yo patient on first day of MP with history of bipolar – remission day before MP starts"}],"modifierExtension":[{"url":"http://hl7.org/fhir/us/cqfmeasures/StructureDefinition/cqfm-isTestCase","valueBoolean":true}],"status":"complete","type":"individual","measure":"https://madie.cms.gov/Measure/PCSDepressionScreenAndFollowUpFHIR","period":{"start":"2025-01-01","end":"2025-12-31"},"group":[{"population":[{"code":{"coding":[{"system":"http://terminology.hl7.org/CodeSystem/measure-population","code":"initial-population","display":"Initial Population"}]},"count":1},{"code":{"coding":[{"system":"http://terminology.hl7.org/CodeSystem/measure-population","code":"denominator","display":"Denominator"}]},"count":1},{"code":{"coding":[{"system":"http://terminology.hl7.org/CodeSystem/measure-population","code":"denominator-exclusion","display":"Denominator Exclusion"}]},"count":1},{"code":{"coding":[{"system":"http://terminology.hl7.org/CodeSystem/measure-population","code":"numerator","display":"Numerator"}]},"count":0},{"code":{"coding":[{"system":"http://terminology.hl7.org/CodeSystem/measure-population","code":"denominator-exception","display":"Denominator Exception"}]},"count":0}]}]},"request":{"method":"PUT","url":"MeasureReport/921b09c1-8474-4906-9cbc-749dd9dc2777"}}]}