{"resourceType":"Bundle","id":"tests-ae23bb73-6b5d-49b9-94db-6a774d8fc75b-bundle","type":"transaction","entry":[{"fullUrl":"https://madie.cms.gov/Patient/ae23bb73-6b5d-49b9-94db-6a774d8fc75b","resource":{"resourceType":"Patient","id":"ae23bb73-6b5d-49b9-94db-6a774d8fc75b","meta":{"profile":["http://hl7.org/fhir/us/qicore/StructureDefinition/qicore-patient"]},"extension":[{"url":"http://hl7.org/fhir/us/core/StructureDefinition/us-core-race","extension":[{"url":"ombCategory","valueCoding":{"system":"urn:oid:2.16.840.1.113883.6.238","code":"1002-5","display":"American Indian or Alaska Native","userSelected":true}},{"url":"text","valueString":"American Indian or Alaska Native"}]},{"url":"http://hl7.org/fhir/us/core/StructureDefinition/us-core-ethnicity","extension":[{"url":"ombCategory","valueCoding":{"system":"urn:oid:2.16.840.1.113883.6.238","code":"2135-2","display":"Hispanic or Latino","userSelected":true}},{"url":"text","valueString":"Hispanic or Latino"}]}],"identifier":[{"type":{"coding":[{"system":"http://terminology.hl7.org/CodeSystem/v2-0203","code":"MR"}]},"system":"https://bonnie-fhir.healthit.gov/","value":"62f686a3bc6a474306a95b45"}],"name":[{"family":"NUMERFail","given":["PosAdultDepScreenandFU3DAfterEndOfEnc"]}],"gender":"male","birthDate":"2007-01-01"},"request":{"method":"PUT","url":"Patient/ae23bb73-6b5d-49b9-94db-6a774d8fc75b"}},{"fullUrl":"https://madie.cms.gov/Encounter/encounter-to-screen-for-depression-cf2d","resource":{"resourceType":"Encounter","id":"dc2d521f-d9bf-4c38-9256-20e3f8487efc","meta":{"profile":["http://hl7.org/fhir/us/qicore/StructureDefinition/qicore-encounter"]},"status":"finished","class":{"system":"http://terminology.hl7.org/CodeSystem/v3-ActCode","code":"AMB","display":"ambulatory"},"type":[{"coding":[{"system":"http://snomed.info/sct","version":"2021-09","code":"10197000","display":"Psychiatric interview and evaluation (procedure)","userSelected":true}]}],"subject":{"reference":"Patient/ae23bb73-6b5d-49b9-94db-6a774d8fc75b"},"period":{"start":"2025-06-21T08:00:00.000+00:00","end":"2025-06-21T08:15:00.000+00:00"}},"request":{"method":"PUT","url":"Encounter/dc2d521f-d9bf-4c38-9256-20e3f8487efc"}},{"fullUrl":"https://madie.cms.gov/Observation/adult-depression-screening-assessment-cf2e","resource":{"resourceType":"Observation","id":"fb92e9f2-d737-47fd-8ad2-cbf1d481fd77","meta":{"profile":["http://hl7.org/fhir/us/qicore/StructureDefinition/qicore-observation"]},"status":"final","category":[{"coding":[{"system":"http://terminology.hl7.org/CodeSystem/observation-category","code":"procedure","display":"Procedure"}]}],"code":{"coding":[{"system":"http://loinc.org","code":"73832-8","display":"Adult depression screening assessment","userSelected":true}]},"subject":{"reference":"Patient/ae23bb73-6b5d-49b9-94db-6a774d8fc75b"},"effectiveDateTime":"2025-06-15T08:00:00.000+00:00","valueCodeableConcept":{"coding":[{"system":"http://snomed.info/sct","code":"428181000124104","display":"Depression screening positive (finding)","userSelected":true}]}},"request":{"method":"PUT","url":"Observation/fb92e9f2-d737-47fd-8ad2-cbf1d481fd77"}},{"fullUrl":"https://madie.cms.gov/MedicationRequest/adult-depression-medications-cf2f","resource":{"resourceType":"MedicationRequest","id":"7bac5d42-08d2-41ca-bc3b-de9845dc5eb4","meta":{"profile":["http://hl7.org/fhir/us/qicore/StructureDefinition/qicore-medicationrequest"]},"status":"active","intent":"order","doNotPerform":false,"medicationCodeableConcept":{"coding":[{"system":"http://www.nlm.nih.gov/research/umls/rxnorm","code":"1000048","display":"doxepin hydrochloride 10 MG Oral Capsule","userSelected":true}]},"subject":{"reference":"Patient/ae23bb73-6b5d-49b9-94db-6a774d8fc75b"},"authoredOn":"2024-06-24T08:00:00.000+00:00","requester":{"reference":"Practitioner/example"}},"request":{"method":"PUT","url":"MedicationRequest/7bac5d42-08d2-41ca-bc3b-de9845dc5eb4"}},{"fullUrl":"https://madie.cms.gov/Coverage/1","resource":{"resourceType":"Coverage","id":"7a69f5f3-ca6e-49af-94a1-f64acf367664","meta":{"profile":["http://hl7.org/fhir/us/qicore/StructureDefinition/qicore-coverage"]},"status":"active","beneficiary":{"reference":"Patient/ae23bb73-6b5d-49b9-94db-6a774d8fc75b"},"payor":[{"reference":"Organization/4b5a882f-1f43-485c-85c6-f5ad2337d5b1"}]},"request":{"method":"PUT","url":"Coverage/7a69f5f3-ca6e-49af-94a1-f64acf367664"}},{"fullUrl":"https://madie.cms.gov/Organization/123456","resource":{"resourceType":"Organization","id":"4b5a882f-1f43-485c-85c6-f5ad2337d5b1","meta":{"profile":["http://hl7.org/fhir/us/qicore/StructureDefinition/qicore-organization"]},"identifier":[{"use":"temp","system":"urn:oid:2.16.840.1.113883.4.4","value":"21-3259825"}],"active":true,"type":[{"coding":[{"system":"http://terminology.hl7.org/CodeSystem/organization-type","code":"pay","display":"Payer"}]}],"name":"Blue Cross Blue Shield of Texas","telecom":[{"system":"phone","value":"(+1) 972-766-6900"}],"address":[{"use":"billing","type":"postal","line":["P.O. Box 660044"],"city":"Dallas","state":"TX","postalCode":"75266-0044","country":"USA"}]},"request":{"method":"PUT","url":"Organization/4b5a882f-1f43-485c-85c6-f5ad2337d5b1"}},{"fullUrl":"https://madie.cms.gov/Practitioner/practitioner-123456","resource":{"resourceType":"Practitioner","id":"cca422e5-c75a-4fd7-a798-ccbfc0a7552a","meta":{"profile":["http://hl7.org/fhir/us/qicore/StructureDefinition/qicore-practitioner"]},"identifier":[{"system":"http://hl7.org/fhir/sid/us-npi","value":"123456"}],"name":[{"family":"Evil","prefix":["Dr"]}]},"request":{"method":"PUT","url":"Practitioner/cca422e5-c75a-4fd7-a798-ccbfc0a7552a"}},{"fullUrl":"https://madie.cms.gov/MeasureReport/fe89d1dc-2e91-4c31-8a54-e315b84338ab","resource":{"resourceType":"MeasureReport","id":"fe89d1dc-2e91-4c31-8a54-e315b84338ab","meta":{"profile":["http://hl7.org/fhir/us/cqfmeasures/StructureDefinition/test-case-cqfm"]},"contained":[{"resourceType":"Parameters","id":"4a690c2f-6b4b-40cf-b4f7-06b79fe3ee1d-parameters","parameter":[{"name":"subject","valueString":"ae23bb73-6b5d-49b9-94db-6a774d8fc75b"}]}],"extension":[{"url":"http://hl7.org/fhir/us/cqfmeasures/StructureDefinition/cqfm-inputParameters","valueReference":{"reference":"#4a690c2f-6b4b-40cf-b4f7-06b79fe3ee1d-parameters"}},{"url":"http://hl7.org/fhir/us/cqfmeasures/StructureDefinition/cqfm-testCaseDescription","valueMarkdown":"Adult with previous positive adult depression screening and medication request follow up 3 days after end of encounter"}],"modifierExtension":[{"url":"http://hl7.org/fhir/us/cqfmeasures/StructureDefinition/cqfm-isTestCase","valueBoolean":true}],"status":"complete","type":"individual","measure":"https://madie.cms.gov/Measure/PCSDepressionScreenAndFollowUpFHIR","period":{"start":"2025-01-01","end":"2025-12-31"},"group":[{"population":[{"code":{"coding":[{"system":"http://terminology.hl7.org/CodeSystem/measure-population","code":"initial-population","display":"Initial Population"}]},"count":1},{"code":{"coding":[{"system":"http://terminology.hl7.org/CodeSystem/measure-population","code":"denominator","display":"Denominator"}]},"count":1},{"code":{"coding":[{"system":"http://terminology.hl7.org/CodeSystem/measure-population","code":"denominator-exclusion","display":"Denominator Exclusion"}]},"count":0},{"code":{"coding":[{"system":"http://terminology.hl7.org/CodeSystem/measure-population","code":"numerator","display":"Numerator"}]},"count":0},{"code":{"coding":[{"system":"http://terminology.hl7.org/CodeSystem/measure-population","code":"denominator-exception","display":"Denominator Exception"}]},"count":0}]}]},"request":{"method":"PUT","url":"MeasureReport/fe89d1dc-2e91-4c31-8a54-e315b84338ab"}}]}