{"resourceType":"Bundle","id":"tests-87eda809-da30-4365-999d-d98c5212d947-bundle","type":"transaction","entry":[{"fullUrl":"https://madie.cms.gov/Patient/87eda809-da30-4365-999d-d98c5212d947","resource":{"resourceType":"Patient","id":"87eda809-da30-4365-999d-d98c5212d947","meta":{"profile":["http://hl7.org/fhir/us/qicore/StructureDefinition/qicore-patient"]},"extension":[{"url":"http://hl7.org/fhir/us/core/StructureDefinition/us-core-race","extension":[{"url":"ombCategory","valueCoding":{"system":"urn:oid:2.16.840.1.113883.6.238","code":"1002-5","display":"American Indian or Alaska Native","userSelected":true}},{"url":"text","valueString":"American Indian or Alaska Native"}]},{"url":"http://hl7.org/fhir/us/core/StructureDefinition/us-core-ethnicity","extension":[{"url":"ombCategory","valueCoding":{"system":"urn:oid:2.16.840.1.113883.6.238","code":"2135-2","display":"Hispanic or Latino","userSelected":true}},{"url":"text","valueString":"Hispanic or Latino"}]}],"identifier":[{"type":{"coding":[{"system":"http://terminology.hl7.org/CodeSystem/v2-0203","code":"MR"}]},"system":"https://bonnie-fhir.healthit.gov/","value":"62b1e0113968556e5150cf36"}],"name":[{"family":"NUMERPass","given":["17yoPositiveAdolescentDepressionScreeningandFollowUp"]}],"gender":"male","birthDate":"2008-01-01"},"request":{"method":"PUT","url":"Patient/87eda809-da30-4365-999d-d98c5212d947"}},{"fullUrl":"https://madie.cms.gov/Encounter/encounter-to-screen-for-depression-cf2d","resource":{"resourceType":"Encounter","id":"66ffb779-7d17-414f-9770-8e5e40eb3f3d","meta":{"profile":["http://hl7.org/fhir/us/qicore/StructureDefinition/qicore-encounter"]},"status":"finished","class":{"system":"http://terminology.hl7.org/CodeSystem/v3-ActCode","code":"AMB","display":"ambulatory"},"type":[{"coding":[{"system":"http://snomed.info/sct","version":"2021-09","code":"10197000","display":"Psychiatric interview and evaluation (procedure)","userSelected":true}]}],"subject":{"reference":"Patient/87eda809-da30-4365-999d-d98c5212d947"},"period":{"start":"2025-06-21T08:00:00.000+00:00","end":"2025-06-21T08:15:00.000+00:00"}},"request":{"method":"PUT","url":"Encounter/66ffb779-7d17-414f-9770-8e5e40eb3f3d"}},{"fullUrl":"https://madie.cms.gov/Observation/adolescent-depression-screening-assessment-cf37","resource":{"resourceType":"Observation","id":"080a2c8f-69c3-4e3e-b5c3-3e39a917990c","meta":{"profile":["http://hl7.org/fhir/us/qicore/StructureDefinition/qicore-observation"]},"status":"final","category":[{"coding":[{"system":"http://terminology.hl7.org/CodeSystem/observation-category","code":"procedure","display":"Procedure"}]}],"code":{"coding":[{"system":"http://loinc.org","code":"73831-0","display":"Adolescent depression screening assessment","userSelected":true}]},"subject":{"reference":"Patient/87eda809-da30-4365-999d-d98c5212d947"},"effectiveDateTime":"2025-06-15T08:00:00.000+00:00","valueCodeableConcept":{"coding":[{"system":"http://snomed.info/sct","code":"428181000124104","display":"Depression screening positive (finding)","userSelected":true}]}},"request":{"method":"PUT","url":"Observation/080a2c8f-69c3-4e3e-b5c3-3e39a917990c"}},{"fullUrl":"https://madie.cms.gov/MedicationRequest/adolescent-depression-medications-cf38","resource":{"resourceType":"MedicationRequest","id":"7810eebb-4b8c-4ad0-9529-ff851f9833ea","meta":{"profile":["http://hl7.org/fhir/us/qicore/StructureDefinition/qicore-medicationrequest"]},"status":"active","intent":"order","doNotPerform":false,"medicationCodeableConcept":{"coding":[{"system":"http://www.nlm.nih.gov/research/umls/rxnorm","code":"1190110","display":"fluoxetine 60 MG Oral Tablet","userSelected":true}]},"subject":{"reference":"Patient/87eda809-da30-4365-999d-d98c5212d947"},"authoredOn":"2025-06-21T08:00:00.000+00:00","requester":{"reference":"Practitioner/example"}},"request":{"method":"PUT","url":"MedicationRequest/7810eebb-4b8c-4ad0-9529-ff851f9833ea"}},{"fullUrl":"https://madie.cms.gov/Coverage/1","resource":{"resourceType":"Coverage","id":"547b7c0a-c2e6-4f2a-8d48-8244c5455ac2","meta":{"profile":["http://hl7.org/fhir/us/qicore/StructureDefinition/qicore-coverage"]},"status":"active","beneficiary":{"reference":"Patient/87eda809-da30-4365-999d-d98c5212d947"},"payor":[{"reference":"Organization/4b5a882f-1f43-485c-85c6-f5ad2337d5b1"}]},"request":{"method":"PUT","url":"Coverage/547b7c0a-c2e6-4f2a-8d48-8244c5455ac2"}},{"fullUrl":"https://madie.cms.gov/Organization/123456","resource":{"resourceType":"Organization","id":"4b5a882f-1f43-485c-85c6-f5ad2337d5b1","meta":{"profile":["http://hl7.org/fhir/us/qicore/StructureDefinition/qicore-organization"]},"identifier":[{"use":"temp","system":"urn:oid:2.16.840.1.113883.4.4","value":"21-3259825"}],"active":true,"type":[{"coding":[{"system":"http://terminology.hl7.org/CodeSystem/organization-type","code":"pay","display":"Payer"}]}],"name":"Blue Cross Blue Shield of Texas","telecom":[{"system":"phone","value":"(+1) 972-766-6900"}],"address":[{"use":"billing","type":"postal","line":["P.O. Box 660044"],"city":"Dallas","state":"TX","postalCode":"75266-0044","country":"USA"}]},"request":{"method":"PUT","url":"Organization/4b5a882f-1f43-485c-85c6-f5ad2337d5b1"}},{"fullUrl":"https://madie.cms.gov/Practitioner/practitioner-123456","resource":{"resourceType":"Practitioner","id":"fc7a506d-99d1-4793-8f2a-878997c34c06","meta":{"profile":["http://hl7.org/fhir/us/qicore/StructureDefinition/qicore-practitioner"]},"identifier":[{"system":"http://hl7.org/fhir/sid/us-npi","value":"123456"}],"name":[{"family":"Evil","prefix":["Dr"]}]},"request":{"method":"PUT","url":"Practitioner/fc7a506d-99d1-4793-8f2a-878997c34c06"}},{"fullUrl":"https://madie.cms.gov/MeasureReport/5d6ca47a-a0b5-42e7-961c-3255c994bd09","resource":{"resourceType":"MeasureReport","id":"5d6ca47a-a0b5-42e7-961c-3255c994bd09","meta":{"profile":["http://hl7.org/fhir/us/cqfmeasures/StructureDefinition/test-case-cqfm"]},"contained":[{"resourceType":"Parameters","id":"398c21c1-f441-4110-8c1e-2cf4dab8d96f-parameters","parameter":[{"name":"subject","valueString":"87eda809-da30-4365-999d-d98c5212d947"}]}],"extension":[{"url":"http://hl7.org/fhir/us/cqfmeasures/StructureDefinition/cqfm-inputParameters","valueReference":{"reference":"#398c21c1-f441-4110-8c1e-2cf4dab8d96f-parameters"}},{"url":"http://hl7.org/fhir/us/cqfmeasures/StructureDefinition/cqfm-testCaseDescription","valueMarkdown":"17yo with previous positive adolescent depression screening and medication request follow up"}],"modifierExtension":[{"url":"http://hl7.org/fhir/us/cqfmeasures/StructureDefinition/cqfm-isTestCase","valueBoolean":true}],"status":"complete","type":"individual","measure":"https://madie.cms.gov/Measure/PCSDepressionScreenAndFollowUpFHIR","period":{"start":"2025-01-01","end":"2025-12-31"},"group":[{"population":[{"code":{"coding":[{"system":"http://terminology.hl7.org/CodeSystem/measure-population","code":"initial-population","display":"Initial Population"}]},"count":1},{"code":{"coding":[{"system":"http://terminology.hl7.org/CodeSystem/measure-population","code":"denominator","display":"Denominator"}]},"count":1},{"code":{"coding":[{"system":"http://terminology.hl7.org/CodeSystem/measure-population","code":"denominator-exclusion","display":"Denominator Exclusion"}]},"count":0},{"code":{"coding":[{"system":"http://terminology.hl7.org/CodeSystem/measure-population","code":"numerator","display":"Numerator"}]},"count":1},{"code":{"coding":[{"system":"http://terminology.hl7.org/CodeSystem/measure-population","code":"denominator-exception","display":"Denominator Exception"}]},"count":0}]}]},"request":{"method":"PUT","url":"MeasureReport/5d6ca47a-a0b5-42e7-961c-3255c994bd09"}}]}