{"resourceType":"Bundle","id":"tests-757d13c8-a71d-4cc6-a590-2bf5a09c4327-bundle","type":"transaction","entry":[{"fullUrl":"https://madie.cms.gov/Patient/757d13c8-a71d-4cc6-a590-2bf5a09c4327","resource":{"resourceType":"Patient","id":"757d13c8-a71d-4cc6-a590-2bf5a09c4327","meta":{"profile":["http://hl7.org/fhir/us/qicore/StructureDefinition/qicore-patient"]},"extension":[{"url":"http://hl7.org/fhir/us/core/StructureDefinition/us-core-race","extension":[{"url":"ombCategory","valueCoding":{"system":"urn:oid:2.16.840.1.113883.6.238","code":"1002-5","display":"American Indian or Alaska Native","userSelected":true}},{"url":"text","valueString":"American Indian or Alaska Native"}]},{"url":"http://hl7.org/fhir/us/core/StructureDefinition/us-core-ethnicity","extension":[{"url":"ombCategory","valueCoding":{"system":"urn:oid:2.16.840.1.113883.6.238","code":"2135-2","display":"Hispanic or Latino","userSelected":true}},{"url":"text","valueString":"Hispanic or Latino"}]}],"identifier":[{"type":{"coding":[{"system":"http://terminology.hl7.org/CodeSystem/v2-0203","code":"MR"}]},"system":"https://bonnie-fhir.healthit.gov/","value":"62f663525efef5272905e70e"}],"name":[{"family":"DENOMPass","given":["AdultPhysicalTherapyEvaluation"]}],"gender":"male","birthDate":"2007-12-31"},"request":{"method":"PUT","url":"Patient/757d13c8-a71d-4cc6-a590-2bf5a09c4327"}},{"fullUrl":"https://madie.cms.gov/Encounter/physical-therapy-evaluation-e710","resource":{"resourceType":"Encounter","id":"b12168d6-f706-4368-84c6-878036ee14da","meta":{"profile":["http://hl7.org/fhir/us/qicore/StructureDefinition/qicore-encounter"]},"status":"finished","class":{"system":"http://terminology.hl7.org/CodeSystem/v3-ActCode","code":"IMP","display":"inpatient encounter"},"type":[{"coding":[{"system":"http://snomed.info/sct","version":"2021-09","code":"183326003","display":"Combined physical therapy (regime/therapy)","userSelected":true}]}],"subject":{"reference":"Patient/757d13c8-a71d-4cc6-a590-2bf5a09c4327"},"period":{"start":"2025-08-12T08:00:00.000+00:00","end":"2025-08-12T08:15:00.000+00:00"}},"request":{"method":"PUT","url":"Encounter/b12168d6-f706-4368-84c6-878036ee14da"}},{"fullUrl":"https://madie.cms.gov/Coverage/1","resource":{"resourceType":"Coverage","id":"1d428844-2cff-41e9-bcae-f8f08edfadf6","meta":{"profile":["http://hl7.org/fhir/us/qicore/StructureDefinition/qicore-coverage"]},"status":"active","beneficiary":{"reference":"Patient/757d13c8-a71d-4cc6-a590-2bf5a09c4327"},"payor":[{"reference":"Organization/4b5a882f-1f43-485c-85c6-f5ad2337d5b1"}]},"request":{"method":"PUT","url":"Coverage/1d428844-2cff-41e9-bcae-f8f08edfadf6"}},{"fullUrl":"https://madie.cms.gov/Organization/123456","resource":{"resourceType":"Organization","id":"4b5a882f-1f43-485c-85c6-f5ad2337d5b1","meta":{"profile":["http://hl7.org/fhir/us/qicore/StructureDefinition/qicore-organization"]},"identifier":[{"use":"temp","system":"urn:oid:2.16.840.1.113883.4.4","value":"21-3259825"}],"active":true,"type":[{"coding":[{"system":"http://terminology.hl7.org/CodeSystem/organization-type","code":"pay","display":"Payer"}]}],"name":"Blue Cross Blue Shield of Texas","telecom":[{"system":"phone","value":"(+1) 972-766-6900"}],"address":[{"use":"billing","type":"postal","line":["P.O. Box 660044"],"city":"Dallas","state":"TX","postalCode":"75266-0044","country":"USA"}]},"request":{"method":"PUT","url":"Organization/4b5a882f-1f43-485c-85c6-f5ad2337d5b1"}},{"fullUrl":"https://madie.cms.gov/Practitioner/practitioner-123456","resource":{"resourceType":"Practitioner","id":"5123e88b-62e8-46a0-9366-868d0553330f","meta":{"profile":["http://hl7.org/fhir/us/qicore/StructureDefinition/qicore-practitioner"]},"identifier":[{"system":"http://hl7.org/fhir/sid/us-npi","value":"123456"}],"name":[{"family":"Evil","prefix":["Dr"]}]},"request":{"method":"PUT","url":"Practitioner/5123e88b-62e8-46a0-9366-868d0553330f"}},{"fullUrl":"https://madie.cms.gov/MeasureReport/40c8ab6f-759e-4ffb-a662-4d32ca0c1006","resource":{"resourceType":"MeasureReport","id":"40c8ab6f-759e-4ffb-a662-4d32ca0c1006","meta":{"profile":["http://hl7.org/fhir/us/cqfmeasures/StructureDefinition/test-case-cqfm"]},"contained":[{"resourceType":"Parameters","id":"bb00a15b-1525-40c5-be99-9f6520aac608-parameters","parameter":[{"name":"subject","valueString":"757d13c8-a71d-4cc6-a590-2bf5a09c4327"}]}],"extension":[{"url":"http://hl7.org/fhir/us/cqfmeasures/StructureDefinition/cqfm-inputParameters","valueReference":{"reference":"#bb00a15b-1525-40c5-be99-9f6520aac608-parameters"}},{"url":"http://hl7.org/fhir/us/cqfmeasures/StructureDefinition/cqfm-testCaseDescription","valueMarkdown":"18 yo male with physical therapy evaluation"}],"modifierExtension":[{"url":"http://hl7.org/fhir/us/cqfmeasures/StructureDefinition/cqfm-isTestCase","valueBoolean":true}],"status":"complete","type":"individual","measure":"https://madie.cms.gov/Measure/PCSDepressionScreenAndFollowUpFHIR","period":{"start":"2025-01-01","end":"2025-12-31"},"group":[{"population":[{"code":{"coding":[{"system":"http://terminology.hl7.org/CodeSystem/measure-population","code":"initial-population","display":"Initial Population"}]},"count":1},{"code":{"coding":[{"system":"http://terminology.hl7.org/CodeSystem/measure-population","code":"denominator","display":"Denominator"}]},"count":1},{"code":{"coding":[{"system":"http://terminology.hl7.org/CodeSystem/measure-population","code":"denominator-exclusion","display":"Denominator Exclusion"}]},"count":0},{"code":{"coding":[{"system":"http://terminology.hl7.org/CodeSystem/measure-population","code":"numerator","display":"Numerator"}]},"count":0},{"code":{"coding":[{"system":"http://terminology.hl7.org/CodeSystem/measure-population","code":"denominator-exception","display":"Denominator Exception"}]},"count":0}]}]},"request":{"method":"PUT","url":"MeasureReport/40c8ab6f-759e-4ffb-a662-4d32ca0c1006"}}]}