{
  "resourceType": "Bundle",
  "id": "649f2e939f80b525f0f78200",
  "type": "transaction",
  "entry": [ {
    "fullUrl": "https://madie.cms.gov/Patient/c51459e4-0636-452f-9cbc-d73b599ad7c5",
    "resource": {
      "resourceType": "Patient",
      "id": "c51459e4-0636-452f-9cbc-d73b599ad7c5",
      "meta": {
        "profile": [ "http://hl7.org/fhir/us/qicore/StructureDefinition/qicore-patient" ]
      },
      "extension": [ {
        "url": "http://hl7.org/fhir/us/core/StructureDefinition/us-core-race",
        "extension": [ {
          "url": "ombCategory",
          "valueCoding": {
            "system": "urn:oid:2.16.840.1.113883.6.238",
            "code": "2054-5",
            "display": "Black or African American",
            "userSelected": true
          }
        }, {
          "url": "text",
          "valueString": "Black or African American"
        } ]
      }, {
        "url": "http://hl7.org/fhir/us/core/StructureDefinition/us-core-ethnicity",
        "extension": [ {
          "url": "ombCategory",
          "valueCoding": {
            "system": "urn:oid:2.16.840.1.113883.6.238",
            "code": "2186-5",
            "display": "Not Hispanic or Latino",
            "userSelected": true
          }
        }, {
          "url": "text",
          "valueString": "Not Hispanic or Latino"
        } ]
      } ],
      "identifier": [ {
        "type": {
          "coding": [ {
            "system": "http://terminology.hl7.org/CodeSystem/v2-0203",
            "code": "MR"
          } ]
        },
        "system": "https://bonnie-fhir.healthit.gov/",
        "value": "649f2e939f80b525f0f78200"
      } ],
      "name": [ {
        "family": "NUMFail",
        "given": [ "1LabAfterMP2LabDuringMP" ]
      } ],
      "gender": "female",
      "birthDate": "2000-02-04"
    },
    "request": {
      "method": "POST",
      "url": "Patient/c51459e4-0636-452f-9cbc-d73b599ad7c5"
    }
  }, {
    "fullUrl": "https://madie.cms.gov/Condition/hiv-8201",
    "resource": {
      "resourceType": "Condition",
      "id": "hiv-8201",
      "meta": {
        "profile": [ "http://hl7.org/fhir/us/qicore/StructureDefinition/qicore-condition" ]
      },
      "clinicalStatus": {
        "coding": [ {
          "system": "http://terminology.hl7.org/CodeSystem/condition-clinical",
          "code": "active",
          "display": "active",
          "userSelected": true
        } ]
      },
      "category": [ {
        "coding": [ {
          "system": "http://terminology.hl7.org/CodeSystem/condition-category",
          "code": "problem-list-item",
          "display": "Problem List Item"
        } ]
      } ],
      "code": {
        "coding": [ {
          "system": "http://hl7.org/fhir/sid/icd-9-cm",
          "version": "2013",
          "code": "042",
          "display": "Human immunodeficiency virus [HIV] disease",
          "userSelected": true
        }, {
          "system": "http://snomed.info/sct",
          "code": "165816005",
          "userSelected": true
        } ]
      },
      "subject": {
        "reference": "Patient/c51459e4-0636-452f-9cbc-d73b599ad7c5"
      },
      "onsetDateTime": "2017-09-28T08:00:00.000+00:00",
      "recordedDate": "2017-09-28T08:00:00.000+00:00"
    },
    "request": {
      "method": "POST",
      "url": "Condition/hiv-8201"
    }
  }, {
    "fullUrl": "https://madie.cms.gov/Encounter/preventive-care-services-initial-office-visit-0-to-17-8202",
    "resource": {
      "resourceType": "Encounter",
      "id": "preventive-care-services-initial-office-visit-0-to-17-8202",
      "meta": {
        "profile": [ "http://hl7.org/fhir/us/qicore/StructureDefinition/qicore-encounter" ]
      },
      "status": "finished",
      "class": {
        "system": "http://terminology.hl7.org/CodeSystem/v3-ActCode",
        "code": "AMB",
        "display": "ambulatory"
      },
      "type": [ {
        "coding": [ {
          "system": "http://www.ama-assn.org/go/cpt",
          "version": "2023",
          "code": "99381",
          "display": "Initial comprehensive preventive medicine evaluation and management of an individual including an age and gender appropriate history, examination, counseling/anticipatory guidance/risk factor reduction interventions, and the ordering of laboratory/diagnostic procedures, new patient; infant (age younger than 1 year)",
          "userSelected": true
        } ]
      } ],
      "subject": {
        "reference": "Patient/c51459e4-0636-452f-9cbc-d73b599ad7c5"
      },
      "period": {
        "start": "2025-09-28T08:00:00.000+00:00",
        "end": "2025-09-28T08:30:00.000+00:00"
      }
    },
    "request": {
      "method": "POST",
      "url": "Encounter/preventive-care-services-initial-office-visit-0-to-17-8202"
    }
  }, {
    "fullUrl": "https://madie.cms.gov/Observation/syphilis-tests-8203",
    "resource": {
      "resourceType": "Observation",
      "id": "syphilis-tests-8203",
      "meta": {
        "profile": [ "http://hl7.org/fhir/us/qicore/StructureDefinition/qicore-observation" ]
      },
      "status": "final",
      "category": [ {
        "coding": [ {
          "system": "http://terminology.hl7.org/CodeSystem/observation-category"
        } ]
      } ],
      "code": {
        "coding": [ {
          "system": "http://loinc.org",
          "version": "2.73",
          "code": "11084-1",
          "display": "Reagin Ab [Titer] in Serum",
          "userSelected": true
        } ]
      },
      "subject": {
        "reference": "Patient/c51459e4-0636-452f-9cbc-d73b599ad7c5"
      },
      "effectiveDateTime": "2025-10-31T08:16:00.000+00:00",
      "issued": "2025-10-31T08:16:00.000+00:00",
      "valueQuantity": {
        "value": 28.0
      }
    },
    "request": {
      "method": "POST",
      "url": "Observation/syphilis-tests-8203"
    }
  }, {
    "fullUrl": "https://madie.cms.gov/Observation/gonorrhea-screening-8204",
    "resource": {
      "resourceType": "Observation",
      "id": "gonorrhea-screening-8204",
      "meta": {
        "profile": [ "http://hl7.org/fhir/us/qicore/StructureDefinition/qicore-observation" ]
      },
      "status": "final",
      "category": [ {
        "coding": [ {
          "system": "http://terminology.hl7.org/CodeSystem/observation-category"
        } ]
      } ],
      "code": {
        "coding": [ {
          "system": "http://loinc.org",
          "version": "2.73",
          "code": "21414-8",
          "display": "Neisseria gonorrhoeae DNA [Presence] in Cervical mucus by NAA with probe detection",
          "userSelected": true
        } ]
      },
      "subject": {
        "reference": "Patient/c51459e4-0636-452f-9cbc-d73b599ad7c5"
      },
      "effectiveDateTime": "2026-01-31T08:00:00.000+00:00",
      "issued": "2026-01-31T08:00:00.000+00:00",
      "valueQuantity": {
        "value": 19.0
      }
    },
    "request": {
      "method": "POST",
      "url": "Observation/gonorrhea-screening-8204"
    }
  }, {
    "fullUrl": "https://madie.cms.gov/Observation/chlamydia-screening-8205",
    "resource": {
      "resourceType": "Observation",
      "id": "chlamydia-screening-8205",
      "meta": {
        "profile": [ "http://hl7.org/fhir/us/qicore/StructureDefinition/qicore-observation" ]
      },
      "status": "final",
      "category": [ {
        "coding": [ {
          "system": "http://terminology.hl7.org/CodeSystem/observation-category"
        } ]
      } ],
      "code": {
        "coding": [ {
          "system": "http://loinc.org",
          "version": "2.73",
          "code": "14463-4",
          "display": "Chlamydia trachomatis [Presence] in Cervix by Organism specific culture",
          "userSelected": true
        } ]
      },
      "subject": {
        "reference": "Patient/c51459e4-0636-452f-9cbc-d73b599ad7c5"
      },
      "effectivePeriod": {
        "start": "2025-10-31T08:16:00.000+00:00",
        "end": "2025-10-31T08:17:00.000+00:00"
      },
      "issued": "2025-10-31T08:16:00.000+00:00",
      "valueQuantity": {
        "value": 12.0
      }
    },
    "request": {
      "method": "POST",
      "url": "Observation/chlamydia-screening-8205"
    }
  }, {
    "fullUrl": "https://madie.cms.gov/Coverage/1",
    "resource": {
      "resourceType": "Coverage",
      "id": "1",
      "meta": {
        "profile": [ "http://hl7.org/fhir/us/qicore/StructureDefinition/qicore-coverage" ]
      },
      "status": "active",
      "beneficiary": {
        "reference": "Patient/c51459e4-0636-452f-9cbc-d73b599ad7c5"
      },
      "payor": [ {
        "reference": "Organization/123456"
      } ]
    },
    "request": {
      "method": "POST",
      "url": "Coverage/1"
    }
  }, {
    "fullUrl": "https://madie.cms.gov/Organization/123456",
    "resource": {
      "resourceType": "Organization",
      "id": "123456",
      "meta": {
        "profile": [ "http://hl7.org/fhir/us/qicore/StructureDefinition/qicore-organization" ]
      },
      "identifier": [ {
        "use": "temp",
        "system": "urn:oid:2.16.840.1.113883.4.4",
        "value": "21-3259825"
      } ],
      "active": true,
      "type": [ {
        "coding": [ {
          "system": "http://terminology.hl7.org/CodeSystem/organization-type",
          "code": "pay",
          "display": "Payer"
        } ]
      } ],
      "name": "Blue Cross Blue Shield of Texas",
      "telecom": [ {
        "system": "phone",
        "value": "(+1) 972-766-6900"
      } ],
      "address": [ {
        "use": "billing",
        "type": "postal",
        "line": [ "P.O. Box 660044" ],
        "city": "Dallas",
        "state": "TX",
        "postalCode": "75266-0044",
        "country": "USA"
      } ]
    },
    "request": {
      "method": "POST",
      "url": "Organization/123456"
    }
  }, {
    "fullUrl": "https://madie.cms.gov/Practitioner/practitioner-123456",
    "resource": {
      "resourceType": "Practitioner",
      "id": "practitioner-123456",
      "meta": {
        "profile": [ "http://hl7.org/fhir/us/qicore/StructureDefinition/qicore-practitioner" ]
      },
      "identifier": [ {
        "system": "http://hl7.org/fhir/sid/us-npi",
        "value": "123456"
      } ],
      "name": [ {
        "family": "Evil",
        "prefix": [ "Dr" ]
      } ]
    },
    "request": {
      "method": "POST",
      "url": "Practitioner/practitioner-123456"
    }
  }, {
    "fullUrl": "https://madie.cms.gov/MeasureReport/563f8e80-5b1a-4ee9-8dd2-cf39ff05d18d",
    "resource": {
      "resourceType": "MeasureReport",
      "id": "563f8e80-5b1a-4ee9-8dd2-cf39ff05d18d",
      "meta": {
        "profile": [ "http://hl7.org/fhir/us/cqfmeasures/StructureDefinition/test-case-cqfm" ]
      },
      "contained": [ {
        "resourceType": "Parameters",
        "id": "b564e4d3-b7df-464f-828a-519e2c1df2ab-parameters",
        "parameter": [ {
          "name": "subject",
          "valueString": "c51459e4-0636-452f-9cbc-d73b599ad7c5"
        } ]
      } ],
      "extension": [ {
        "url": "http://hl7.org/fhir/us/cqfmeasures/StructureDefinition/cqfm-inputParameters",
        "valueReference": {
          "reference": "#b564e4d3-b7df-464f-828a-519e2c1df2ab-parameters"
        }
      }, {
        "url": "http://hl7.org/fhir/us/cqfmeasures/StructureDefinition/cqfm-testCaseDescription",
        "valueMarkdown": "Patient is over 13 years old with an encounter - 1 STI screen after MP, 2 STI screen during MP"
      } ],
      "modifierExtension": [ {
        "url": "http://hl7.org/fhir/us/cqfmeasures/StructureDefinition/cqfm-isTestCase",
        "valueBoolean": true
      } ],
      "status": "complete",
      "type": "individual",
      "measure": "https://madie.cms.gov/Measure/HIVSTITestingFHIR",
      "period": {
        "start": "2025-01-01",
        "end": "2025-12-31"
      },
      "group": [ {
        "population": [ {
          "code": {
            "coding": [ {
              "system": "http://terminology.hl7.org/CodeSystem/measure-population",
              "code": "initial-population",
              "display": "Initial Population"
            } ]
          },
          "count": 1
        }, {
          "code": {
            "coding": [ {
              "system": "http://terminology.hl7.org/CodeSystem/measure-population",
              "code": "denominator",
              "display": "Denominator"
            } ]
          },
          "count": 1
        }, {
          "code": {
            "coding": [ {
              "system": "http://terminology.hl7.org/CodeSystem/measure-population",
              "code": "numerator",
              "display": "Numerator"
            } ]
          },
          "count": 0
        } ]
      } ],
      "evaluatedResource": [ {
        "reference": "Patient/c51459e4-0636-452f-9cbc-d73b599ad7c5"
      }, {
        "reference": "Condition/hiv-8201"
      }, {
        "reference": "Encounter/preventive-care-services-initial-office-visit-0-to-17-8202"
      }, {
        "reference": "Observation/syphilis-tests-8203"
      }, {
        "reference": "Observation/gonorrhea-screening-8204"
      }, {
        "reference": "Observation/chlamydia-screening-8205"
      }, {
        "reference": "Coverage/1"
      }, {
        "reference": "Organization/123456"
      }, {
        "reference": "Practitioner/practitioner-123456"
      } ]
    },
    "request": {
      "method": "POST",
      "url": "MeasureReport/563f8e80-5b1a-4ee9-8dd2-cf39ff05d18d"
    }
  } ]
}