{
  "resourceType": "Bundle",
  "id": "64e774b92e9f5b621ea08698",
  "type": "transaction",
  "entry": [ {
    "fullUrl": "https://madie.cms.gov/Patient/e216b280-8e64-4b45-97dc-98011f39205a",
    "resource": {
      "resourceType": "Patient",
      "id": "e216b280-8e64-4b45-97dc-98011f39205a",
      "meta": {
        "profile": [ "http://hl7.org/fhir/us/qicore/StructureDefinition/qicore-patient" ]
      },
      "text": {
        "status": "generated",
        "div": "<div xmlns=\"http://www.w3.org/1999/xhtml\"><div class=\"hapiHeaderText\">Pt18AtEndOfMPGlaucomaOverlapsEnc <b>IPPPASS </b></div><table class=\"hapiPropertyTable\"><tbody><tr><td>Identifier</td><td>5acb67c60dbd9f474db3d5ce4da8c4ffe9af7a0275006cb1d348983f2da0a2b7</td></tr><tr><td>Date of birth</td><td><span>31 December 1993</span></td></tr></tbody></table></div>"
      },
      "extension": [ {
        "url": "http://hl7.org/fhir/us/core/StructureDefinition/us-core-race",
        "extension": [ {
          "url": "ombCategory",
          "valueCoding": {
            "system": "urn:oid:2.16.840.1.113883.6.238",
            "code": "1002-5",
            "display": "American Indian or Alaska Native",
            "userSelected": true
          }
        }, {
          "url": "text",
          "valueString": "American Indian or Alaska Native"
        } ]
      }, {
        "url": "http://hl7.org/fhir/us/core/StructureDefinition/us-core-ethnicity",
        "extension": [ {
          "url": "ombCategory",
          "valueCoding": {
            "system": "urn:oid:2.16.840.1.113883.6.238",
            "code": "2186-5",
            "display": "Not Hispanic or Latino",
            "userSelected": true
          }
        }, {
          "url": "text",
          "valueString": "Not Hispanic or Latino"
        } ]
      } ],
      "identifier": [ {
        "type": {
          "coding": [ {
            "system": "http://terminology.hl7.org/CodeSystem/v2-0203",
            "code": "MR"
          } ]
        },
        "system": "https://bonnie-fhir.healthit.gov/",
        "value": "64e774b92e9f5b621ea08698"
      } ],
      "active": true,
      "name": [ {
        "use": "usual",
        "family": "AAAPracticeIPPPass",
        "given": [ "MultipleEnc" ]
      } ],
      "gender": "female",
      "birthDate": "2004-01-01"
    },
    "request": {
      "method": "POST",
      "url": "Patient/e216b280-8e64-4b45-97dc-98011f39205a"
    }
  }, {
    "fullUrl": "https://madie.cms.gov/Condition/5c9a433bb8484623838502c7",
    "resource": {
      "resourceType": "Condition",
      "id": "5c9a433bb8484623838502c7",
      "meta": {
        "profile": [ "http://hl7.org/fhir/us/qicore/StructureDefinition/qicore-condition" ]
      },
      "clinicalStatus": {
        "coding": [ {
          "system": "http://terminology.hl7.org/CodeSystem/condition-clinical",
          "code": "active",
          "display": "active",
          "userSelected": true
        } ]
      },
      "category": [ {
        "coding": [ {
          "system": "http://terminology.hl7.org/CodeSystem/condition-category",
          "code": "problem-list-item",
          "display": "Problem List Item"
        } ]
      } ],
      "code": {
        "coding": [ {
          "system": "http://snomed.info/sct",
          "code": "111513000"
        } ]
      },
      "subject": {
        "reference": "Patient/e216b280-8e64-4b45-97dc-98011f39205a"
      },
      "onsetDateTime": "2023-01-01T08:00:00.000+00:00"
    },
    "request": {
      "method": "POST",
      "url": "Condition/5c9a433bb8484623838502c7"
    }
  }, {
    "fullUrl": "https://madie.cms.gov/Encounter/5c9a433bb8484623838502c8",
    "resource": {
      "resourceType": "Encounter",
      "id": "5c9a433bb8484623838502c8",
      "meta": {
        "profile": [ "http://hl7.org/fhir/us/qicore/StructureDefinition/qicore-encounter" ]
      },
      "status": "finished",
      "class": {
        "system": "http://terminology.hl7.org/CodeSystem/v3-ActCode",
        "code": "AMB",
        "display": "ambulatory",
        "userSelected": true
      },
      "type": [ {
        "coding": [ {
          "system": "http://www.ama-assn.org/go/cpt",
          "code": "99201"
        }, {
          "system": "http://snomed.info/sct",
          "code": "209099002"
        } ]
      } ],
      "subject": {
        "reference": "Patient/e216b280-8e64-4b45-97dc-98011f39205a"
      },
      "period": {
        "start": "2023-01-25T14:30:00.000+00:00",
        "end": "2023-01-25T14:30:00.000+00:00"
      },
      "length": {
        "value": 0,
        "unit": "days"
      }
    },
    "request": {
      "method": "POST",
      "url": "Encounter/5c9a433bb8484623838502c8"
    }
  }, {
    "fullUrl": "https://madie.cms.gov/Encounter/care-services-in-long-term-residential-facility-8699",
    "resource": {
      "resourceType": "Encounter",
      "id": "care-services-in-long-term-residential-facility-8699",
      "meta": {
        "profile": [ "http://hl7.org/fhir/us/qicore/StructureDefinition/qicore-encounter" ]
      },
      "status": "finished",
      "class": {
        "system": "http://terminology.hl7.org/CodeSystem/v3-ActCode",
        "code": "AMB",
        "display": "ambulatory",
        "userSelected": true
      },
      "type": [ {
        "coding": [ {
          "system": "http://snomed.info/sct",
          "version": "2021-09",
          "code": "209099002",
          "display": "History and physical examination with management of domiciliary or rest home patient (procedure)",
          "userSelected": true
        } ]
      } ],
      "subject": {
        "reference": "Patient/e216b280-8e64-4b45-97dc-98011f39205a"
      },
      "period": {
        "start": "2025-01-28T08:00:00.000+00:00",
        "end": "2025-01-28T08:15:00.000+00:00"
      },
      "length": {
        "value": 0,
        "unit": "days"
      }
    },
    "request": {
      "method": "POST",
      "url": "Encounter/care-services-in-long-term-residential-facility-8699"
    }
  }, {
    "fullUrl": "https://madie.cms.gov/Encounter/observation-services-869a",
    "resource": {
      "resourceType": "Encounter",
      "id": "observation-services-869a",
      "meta": {
        "profile": [ "http://hl7.org/fhir/us/qicore/StructureDefinition/qicore-encounter" ]
      },
      "status": "finished",
      "class": {
        "system": "http://terminology.hl7.org/CodeSystem/v3-ActCode",
        "code": "AMB",
        "display": "ambulatory",
        "userSelected": true
      },
      "type": [ {
        "coding": [ {
          "system": "http://snomed.info/sct",
          "version": "2021-09",
          "code": "448951000124107",
          "display": "Admission to observation unit (procedure)",
          "userSelected": true
        } ]
      } ],
      "subject": {
        "reference": "Patient/e216b280-8e64-4b45-97dc-98011f39205a"
      },
      "period": {
        "start": "2023-01-30T08:00:00.000+00:00",
        "end": "2023-01-30T08:15:00.000+00:00"
      },
      "length": {
        "value": 0,
        "unit": "days"
      }
    },
    "request": {
      "method": "POST",
      "url": "Encounter/observation-services-869a"
    }
  }, {
    "fullUrl": "https://madie.cms.gov/Encounter/outpatient-consultation-869b",
    "resource": {
      "resourceType": "Encounter",
      "id": "outpatient-consultation-869b",
      "meta": {
        "profile": [ "http://hl7.org/fhir/us/qicore/StructureDefinition/qicore-encounter" ]
      },
      "status": "finished",
      "class": {
        "system": "http://terminology.hl7.org/CodeSystem/v3-ActCode",
        "code": "AMB",
        "display": "ambulatory",
        "userSelected": true
      },
      "type": [ {
        "coding": [ {
          "system": "http://snomed.info/sct",
          "version": "2021-09",
          "code": "281036007",
          "display": "Follow-up consultation (procedure)",
          "userSelected": true
        } ]
      } ],
      "subject": {
        "reference": "Patient/e216b280-8e64-4b45-97dc-98011f39205a"
      },
      "period": {
        "start": "2023-02-01T08:00:00.000+00:00",
        "end": "2023-02-01T08:15:00.000+00:00"
      },
      "length": {
        "value": 0,
        "unit": "days"
      }
    },
    "request": {
      "method": "POST",
      "url": "Encounter/outpatient-consultation-869b"
    }
  }, {
    "fullUrl": "https://madie.cms.gov/Coverage/1",
    "resource": {
      "resourceType": "Coverage",
      "id": "1",
      "meta": {
        "profile": [ "http://hl7.org/fhir/us/qicore/StructureDefinition/qicore-coverage" ]
      },
      "status": "active",
      "beneficiary": {
        "reference": "Patient/e216b280-8e64-4b45-97dc-98011f39205a"
      },
      "payor": [ {
        "reference": "Organization/123456"
      } ]
    },
    "request": {
      "method": "POST",
      "url": "Coverage/1"
    }
  }, {
    "fullUrl": "https://madie.cms.gov/Organization/123456",
    "resource": {
      "resourceType": "Organization",
      "id": "123456",
      "meta": {
        "profile": [ "http://hl7.org/fhir/us/qicore/StructureDefinition/qicore-organization" ]
      },
      "identifier": [ {
        "use": "temp",
        "system": "urn:oid:2.16.840.1.113883.4.4",
        "value": "21-3259825"
      } ],
      "active": true,
      "type": [ {
        "coding": [ {
          "system": "http://terminology.hl7.org/CodeSystem/organization-type",
          "code": "pay",
          "display": "Payer"
        } ]
      } ],
      "name": "Blue Cross Blue Shield of Texas",
      "telecom": [ {
        "system": "phone",
        "value": "(+1) 972-766-6900"
      } ],
      "address": [ {
        "use": "billing",
        "type": "postal",
        "line": [ "P.O. Box 660044" ],
        "city": "Dallas",
        "state": "TX",
        "postalCode": "75266-0044",
        "country": "USA"
      } ]
    },
    "request": {
      "method": "POST",
      "url": "Organization/123456"
    }
  }, {
    "fullUrl": "https://madie.cms.gov/Coverage/Coverage-1",
    "resource": {
      "resourceType": "Coverage",
      "id": "Coverage-1",
      "meta": {
        "profile": [ "http://hl7.org/fhir/us/qicore/StructureDefinition/qicore-coverage" ]
      },
      "identifier": [ {
        "system": "http://benefitsinc.com/certificate",
        "value": "12345"
      } ],
      "status": "active",
      "type": {
        "coding": [ {
          "system": "https://nahdo.org/sopt",
          "version": "9.2",
          "code": "1",
          "display": "MEDICARE",
          "userSelected": true
        } ]
      },
      "beneficiary": {
        "reference": "Patient/e216b280-8e64-4b45-97dc-98011f39205a"
      },
      "period": {
        "start": "2025-01-28T08:00:00.000+00:00",
        "end": "2025-12-28T00:15:00.000+00:00"
      },
      "payor": [ {
        "reference": "Organization/Organization-2"
      } ]
    },
    "request": {
      "method": "POST",
      "url": "Coverage/Coverage-1"
    }
  }, {
    "fullUrl": "https://madie.cms.gov/Practitioner/practitioner-123456",
    "resource": {
      "resourceType": "Practitioner",
      "id": "practitioner-123456",
      "meta": {
        "profile": [ "http://hl7.org/fhir/us/qicore/StructureDefinition/qicore-practitioner" ]
      },
      "identifier": [ {
        "system": "http://hl7.org/fhir/sid/us-npi",
        "value": "123456"
      } ],
      "name": [ {
        "family": "Evil",
        "prefix": [ "Dr" ]
      } ]
    },
    "request": {
      "method": "POST",
      "url": "Practitioner/practitioner-123456"
    }
  }, {
    "fullUrl": "https://madie.cms.gov/MeasureReport/01e1c715-8f26-4ad3-8e97-f9113e3e69df",
    "resource": {
      "resourceType": "MeasureReport",
      "id": "01e1c715-8f26-4ad3-8e97-f9113e3e69df",
      "meta": {
        "profile": [ "http://hl7.org/fhir/us/cqfmeasures/StructureDefinition/test-case-cqfm" ]
      },
      "contained": [ {
        "resourceType": "Parameters",
        "id": "01e84714-5525-4017-bff0-661e8525bed8-parameters",
        "parameter": [ {
          "name": "subject",
          "valueString": "e216b280-8e64-4b45-97dc-98011f39205a"
        } ]
      } ],
      "extension": [ {
        "url": "http://hl7.org/fhir/us/cqfmeasures/StructureDefinition/cqfm-inputParameters",
        "valueReference": {
          "reference": "#01e84714-5525-4017-bff0-661e8525bed8-parameters"
        }
      }, {
        "url": "http://hl7.org/fhir/us/cqfmeasures/StructureDefinition/cqfm-testCaseDescription",
        "valueMarkdown": "Patient has multiple qualifying encounters "
      } ],
      "modifierExtension": [ {
        "url": "http://hl7.org/fhir/us/cqfmeasures/StructureDefinition/cqfm-isTestCase",
        "valueBoolean": true
      } ],
      "status": "complete",
      "type": "individual",
      "measure": "https://madie.cms.gov/Measure/POAGOpticNerveEvaluationFHIR",
      "period": {
        "start": "2025-01-01",
        "end": "2025-12-31"
      },
      "group": [ {
        "population": [ {
          "code": {
            "coding": [ {
              "system": "http://terminology.hl7.org/CodeSystem/measure-population",
              "code": "initial-population",
              "display": "Initial Population"
            } ]
          },
          "count": 1
        }, {
          "code": {
            "coding": [ {
              "system": "http://terminology.hl7.org/CodeSystem/measure-population",
              "code": "denominator",
              "display": "Denominator"
            } ]
          },
          "count": 1
        }, {
          "code": {
            "coding": [ {
              "system": "http://terminology.hl7.org/CodeSystem/measure-population",
              "code": "numerator",
              "display": "Numerator"
            } ]
          },
          "count": 0
        }, {
          "code": {
            "coding": [ {
              "system": "http://terminology.hl7.org/CodeSystem/measure-population",
              "code": "denominator-exception",
              "display": "Denominator Exception"
            } ]
          },
          "count": 0
        } ]
      } ],
      "evaluatedResource": [ {
        "reference": "Patient/e216b280-8e64-4b45-97dc-98011f39205a"
      }, {
        "reference": "Condition/5c9a433bb8484623838502c7"
      }, {
        "reference": "Encounter/5c9a433bb8484623838502c8"
      }, {
        "reference": "Encounter/care-services-in-long-term-residential-facility-8699"
      }, {
        "reference": "Encounter/observation-services-869a"
      }, {
        "reference": "Encounter/outpatient-consultation-869b"
      }, {
        "reference": "Coverage/1"
      }, {
        "reference": "Organization/123456"
      }, {
        "reference": "Coverage/Coverage-1"
      }, {
        "reference": "Practitioner/practitioner-123456"
      } ]
    },
    "request": {
      "method": "POST",
      "url": "MeasureReport/01e1c715-8f26-4ad3-8e97-f9113e3e69df"
    }
  } ]
}