{"resourceType":"Bundle","id":"tests-631fbecb-2bdc-4e1e-a9e1-52357222474a-bundle","type":"transaction","entry":[{"fullUrl":"https://madie.cms.gov/Patient/631fbecb-2bdc-4e1e-a9e1-52357222474a","resource":{"resourceType":"Patient","id":"631fbecb-2bdc-4e1e-a9e1-52357222474a","meta":{"profile":["http://hl7.org/fhir/us/qicore/StructureDefinition/qicore-patient"]},"extension":[{"url":"http://hl7.org/fhir/us/core/StructureDefinition/us-core-race","extension":[{"url":"ombCategory","valueCoding":{"system":"urn:oid:2.16.840.1.113883.6.238","code":"2028-9","display":"Asian","userSelected":true}},{"url":"text","valueString":"Asian"}]},{"url":"http://hl7.org/fhir/us/core/StructureDefinition/us-core-ethnicity","extension":[{"url":"ombCategory","valueCoding":{"system":"urn:oid:2.16.840.1.113883.6.238","code":"2186-5","display":"Not Hispanic or Latino","userSelected":true}},{"url":"text","valueString":"Not Hispanic or Latino"}]}],"identifier":[{"type":{"coding":[{"system":"http://terminology.hl7.org/CodeSystem/v2-0203","code":"MR"}]},"system":"https://bonnie-fhir.healthit.gov/","value":"62fa89c3d13907679e12d618"}],"name":[{"family":"NUMERFail","given":["NormalBPStatusEnteredInError"]}],"gender":"female","birthDate":"2004-01-31"},"request":{"method":"PUT","url":"Patient/631fbecb-2bdc-4e1e-a9e1-52357222474a"}},{"fullUrl":"https://madie.cms.gov/Encounter/encounter-to-screen-for-blood-pressure-d1ae","resource":{"resourceType":"Encounter","id":"4a1470ae-4a40-446c-afdf-d46362b0c0e5","meta":{"profile":["http://hl7.org/fhir/us/qicore/StructureDefinition/qicore-encounter"]},"status":"finished","class":{"system":"http://terminology.hl7.org/CodeSystem/v3-ActCode","code":"AMB","display":"ambulatory"},"type":[{"coding":[{"system":"http://snomed.info/sct","version":"2022-03","code":"103705002","display":"Patient status observation (procedure)","userSelected":true}]}],"subject":{"reference":"Patient/631fbecb-2bdc-4e1e-a9e1-52357222474a"},"period":{"start":"2025-01-01T08:00:00.000+00:00","end":"2025-01-01T11:30:00.000+00:00"}},"request":{"method":"PUT","url":"Encounter/4a1470ae-4a40-446c-afdf-d46362b0c0e5"}},{"fullUrl":"https://madie.cms.gov/Observation/systolic-blood-pressure-d1af","resource":{"resourceType":"Observation","id":"b0267e4c-1c41-4b1c-b981-696d8e1dceec","meta":{"profile":["http://hl7.org/fhir/us/qicore/StructureDefinition/qicore-observation"]},"status":"entered-in-error","category":[{"coding":[{"system":"http://terminology.hl7.org/CodeSystem/observation-category","code":"procedure","display":"Procedure"}]}],"code":{"coding":[{"system":"http://loinc.org","code":"8480-6","display":"Systolic blood pressure","userSelected":true}]},"subject":{"reference":"Patient/631fbecb-2bdc-4e1e-a9e1-52357222474a"},"effectiveDateTime":"2025-01-01T08:05:00.000+00:00","valueQuantity":{"value":119.0,"unit":"mm[Hg]"}},"request":{"method":"PUT","url":"Observation/b0267e4c-1c41-4b1c-b981-696d8e1dceec"}},{"fullUrl":"https://madie.cms.gov/Observation/diastolic-blood-pressure-d1b0","resource":{"resourceType":"Observation","id":"30e5a317-b1bd-4ef1-839d-dd483a50eca9","meta":{"profile":["http://hl7.org/fhir/us/qicore/StructureDefinition/qicore-observation"]},"status":"final","category":[{"coding":[{"system":"http://terminology.hl7.org/CodeSystem/observation-category","code":"procedure","display":"Procedure"}]}],"code":{"coding":[{"system":"http://loinc.org","code":"8462-4","display":"Diastolic blood pressure","userSelected":true}]},"subject":{"reference":"Patient/631fbecb-2bdc-4e1e-a9e1-52357222474a"},"effectiveDateTime":"2025-01-01T08:05:00.000+00:00","valueQuantity":{"value":79.0,"unit":"mm[Hg]"}},"request":{"method":"PUT","url":"Observation/30e5a317-b1bd-4ef1-839d-dd483a50eca9"}},{"fullUrl":"https://madie.cms.gov/Coverage/1","resource":{"resourceType":"Coverage","id":"5e23d180-6ea9-4fa9-8da3-1f97f4e3ff1f","meta":{"profile":["http://hl7.org/fhir/us/qicore/StructureDefinition/qicore-coverage"]},"status":"active","beneficiary":{"reference":"Patient/631fbecb-2bdc-4e1e-a9e1-52357222474a"},"payor":[{"reference":"Organization/4b5a882f-1f43-485c-85c6-f5ad2337d5b1"}]},"request":{"method":"PUT","url":"Coverage/5e23d180-6ea9-4fa9-8da3-1f97f4e3ff1f"}},{"fullUrl":"https://madie.cms.gov/Organization/123456","resource":{"resourceType":"Organization","id":"4b5a882f-1f43-485c-85c6-f5ad2337d5b1","meta":{"profile":["http://hl7.org/fhir/us/qicore/StructureDefinition/qicore-organization"]},"identifier":[{"use":"temp","system":"urn:oid:2.16.840.1.113883.4.4","value":"21-3259825"}],"active":true,"type":[{"coding":[{"system":"http://terminology.hl7.org/CodeSystem/organization-type","code":"pay","display":"Payer"}]}],"name":"Blue Cross Blue Shield of Texas","telecom":[{"system":"phone","value":"(+1) 972-766-6900"}],"address":[{"use":"billing","type":"postal","line":["P.O. Box 660044"],"city":"Dallas","state":"TX","postalCode":"75266-0044","country":"USA"}]},"request":{"method":"PUT","url":"Organization/4b5a882f-1f43-485c-85c6-f5ad2337d5b1"}},{"fullUrl":"https://madie.cms.gov/Practitioner/practitioner-123456","resource":{"resourceType":"Practitioner","id":"6e9b45b6-dfc6-40e1-a9a0-53fc2b81e3e7","meta":{"profile":["http://hl7.org/fhir/us/qicore/StructureDefinition/qicore-practitioner"]},"identifier":[{"system":"http://hl7.org/fhir/sid/us-npi","value":"123456"}],"name":[{"family":"Evil","prefix":["Dr"]}]},"request":{"method":"PUT","url":"Practitioner/6e9b45b6-dfc6-40e1-a9a0-53fc2b81e3e7"}},{"fullUrl":"https://madie.cms.gov/MeasureReport/5ad053eb-0ac2-4cd1-9872-2cb92785a26d","resource":{"resourceType":"MeasureReport","id":"5ad053eb-0ac2-4cd1-9872-2cb92785a26d","meta":{"profile":["http://hl7.org/fhir/us/cqfmeasures/StructureDefinition/test-case-cqfm"]},"contained":[{"resourceType":"Parameters","id":"8cce7556-cc90-482f-9c0f-cb5959f8c009-parameters","parameter":[{"name":"subject","valueString":"631fbecb-2bdc-4e1e-a9e1-52357222474a"}]}],"extension":[{"url":"http://hl7.org/fhir/us/cqfmeasures/StructureDefinition/cqfm-inputParameters","valueReference":{"reference":"#8cce7556-cc90-482f-9c0f-cb5959f8c009-parameters"}},{"url":"http://hl7.org/fhir/us/cqfmeasures/StructureDefinition/cqfm-testCaseDescription","valueMarkdown":"Age 18 or older, encounter first day of MP, Normal BP reading but systolic status \"entered in error\". "}],"modifierExtension":[{"url":"http://hl7.org/fhir/us/cqfmeasures/StructureDefinition/cqfm-isTestCase","valueBoolean":true}],"status":"complete","type":"individual","measure":"https://madie.cms.gov/Measure/PCSBPScreeningFollowUpFHIR","period":{"start":"2025-01-01","end":"2025-12-31"},"group":[{"population":[{"code":{"coding":[{"system":"http://terminology.hl7.org/CodeSystem/measure-population","code":"initial-population","display":"Initial Population"}]},"count":1},{"code":{"coding":[{"system":"http://terminology.hl7.org/CodeSystem/measure-population","code":"denominator","display":"Denominator"}]},"count":1},{"code":{"coding":[{"system":"http://terminology.hl7.org/CodeSystem/measure-population","code":"denominator-exclusion","display":"Denominator Exclusion"}]},"count":0},{"code":{"coding":[{"system":"http://terminology.hl7.org/CodeSystem/measure-population","code":"numerator","display":"Numerator"}]},"count":0},{"code":{"coding":[{"system":"http://terminology.hl7.org/CodeSystem/measure-population","code":"denominator-exception","display":"Denominator Exception"}]},"count":0}]}]},"request":{"method":"PUT","url":"MeasureReport/5ad053eb-0ac2-4cd1-9872-2cb92785a26d"}}]}