{"resourceType":"Bundle","id":"tests-92d6fd00-76fa-4354-8c16-59582a8c7278-bundle","type":"transaction","entry":[{"fullUrl":"https://madie.cms.gov/Patient/92d6fd00-76fa-4354-8c16-59582a8c7278","resource":{"resourceType":"Patient","id":"92d6fd00-76fa-4354-8c16-59582a8c7278","meta":{"profile":["http://hl7.org/fhir/us/qicore/StructureDefinition/qicore-patient"]},"extension":[{"url":"http://hl7.org/fhir/us/core/StructureDefinition/us-core-race","extension":[{"url":"ombCategory","valueCoding":{"system":"urn:oid:2.16.840.1.113883.6.238","code":"1002-5","display":"American Indian or Alaska Native","userSelected":true}},{"url":"text","valueString":"American Indian or Alaska Native"}]},{"url":"http://hl7.org/fhir/us/core/StructureDefinition/us-core-ethnicity","extension":[{"url":"ombCategory","valueCoding":{"system":"urn:oid:2.16.840.1.113883.6.238","code":"2135-2","display":"Hispanic or Latino","userSelected":true}},{"url":"text","valueString":"Hispanic or Latino"}]}],"identifier":[{"type":{"coding":[{"system":"http://terminology.hl7.org/CodeSystem/v2-0203","code":"MR"}]},"system":"https://bonnie-fhir.healthit.gov/","value":"62fa88b5e884ee19102758b5"}],"name":[{"family":"DENEXFail","given":["HTNAbatedBeforeEnc"]}],"gender":"male","birthDate":"2004-06-18"},"request":{"method":"PUT","url":"Patient/92d6fd00-76fa-4354-8c16-59582a8c7278"}},{"fullUrl":"https://madie.cms.gov/Encounter/encounter-to-screen-for-blood-pressure-b30d","resource":{"resourceType":"Encounter","id":"487ad82f-9b70-4a63-b49c-a86d2abfeb6b","meta":{"profile":["http://hl7.org/fhir/us/qicore/StructureDefinition/qicore-encounter"]},"status":"finished","class":{"system":"http://terminology.hl7.org/CodeSystem/v3-ActCode","code":"AMB","display":"ambulatory"},"type":[{"coding":[{"system":"http://snomed.info/sct","version":"2022-03","code":"103705002","display":"Patient status observation (procedure)","userSelected":true}]}],"subject":{"reference":"Patient/92d6fd00-76fa-4354-8c16-59582a8c7278"},"period":{"start":"2025-01-01T10:00:00.000+00:00","end":"2025-01-01T10:15:00.000+00:00"}},"request":{"method":"PUT","url":"Encounter/487ad82f-9b70-4a63-b49c-a86d2abfeb6b"}},{"fullUrl":"https://madie.cms.gov/Condition/diagnosis-of-hypertension-b30e","resource":{"resourceType":"Condition","id":"d6ed1c9f-a7de-42cc-a65b-134397d150dd","meta":{"profile":["http://hl7.org/fhir/us/qicore/StructureDefinition/qicore-condition"]},"clinicalStatus":{"coding":[{"system":"http://terminology.hl7.org/CodeSystem/condition-clinical","code":"inactive","display":"Inactive","userSelected":true}]},"verificationStatus":{"coding":[{"system":"http://terminology.hl7.org/CodeSystem/condition-ver-status","code":"confirmed","display":"Confirmed","userSelected":true}]},"category":[{"coding":[{"system":"http://terminology.hl7.org/CodeSystem/condition-category","code":"problem-list-item","display":"Problem List Item"}]}],"code":{"coding":[{"system":"http://snomed.info/sct","version":"2022-03","code":"10725009","display":"Benign hypertension (disorder)","userSelected":true}]},"subject":{"reference":"Patient/92d6fd00-76fa-4354-8c16-59582a8c7278"},"onsetDateTime":"2023-12-31T23:59:00.000+00:00","abatementDateTime":"2025-01-01T00:01:00.000+00:00"},"request":{"method":"PUT","url":"Condition/d6ed1c9f-a7de-42cc-a65b-134397d150dd"}},{"fullUrl":"https://madie.cms.gov/Coverage/1","resource":{"resourceType":"Coverage","id":"2f792d17-a8bb-4b41-b221-d448097ec411","meta":{"profile":["http://hl7.org/fhir/us/qicore/StructureDefinition/qicore-coverage"]},"status":"active","beneficiary":{"reference":"Patient/92d6fd00-76fa-4354-8c16-59582a8c7278"},"payor":[{"reference":"Organization/4b5a882f-1f43-485c-85c6-f5ad2337d5b1"}]},"request":{"method":"PUT","url":"Coverage/2f792d17-a8bb-4b41-b221-d448097ec411"}},{"fullUrl":"https://madie.cms.gov/Organization/123456","resource":{"resourceType":"Organization","id":"4b5a882f-1f43-485c-85c6-f5ad2337d5b1","meta":{"profile":["http://hl7.org/fhir/us/qicore/StructureDefinition/qicore-organization"]},"identifier":[{"use":"temp","system":"urn:oid:2.16.840.1.113883.4.4","value":"21-3259825"}],"active":true,"type":[{"coding":[{"system":"http://terminology.hl7.org/CodeSystem/organization-type","code":"pay","display":"Payer"}]}],"name":"Blue Cross Blue Shield of Texas","telecom":[{"system":"phone","value":"(+1) 972-766-6900"}],"address":[{"use":"billing","type":"postal","line":["P.O. Box 660044"],"city":"Dallas","state":"TX","postalCode":"75266-0044","country":"USA"}]},"request":{"method":"PUT","url":"Organization/4b5a882f-1f43-485c-85c6-f5ad2337d5b1"}},{"fullUrl":"https://madie.cms.gov/Practitioner/practitioner-123456","resource":{"resourceType":"Practitioner","id":"64a78271-8332-4deb-bf89-2aad6b52a1c9","meta":{"profile":["http://hl7.org/fhir/us/qicore/StructureDefinition/qicore-practitioner"]},"identifier":[{"system":"http://hl7.org/fhir/sid/us-npi","value":"123456"}],"name":[{"family":"Evil","prefix":["Dr"]}]},"request":{"method":"PUT","url":"Practitioner/64a78271-8332-4deb-bf89-2aad6b52a1c9"}},{"fullUrl":"https://madie.cms.gov/MeasureReport/c39928ad-5bd3-4668-b456-42959b9a3910","resource":{"resourceType":"MeasureReport","id":"c39928ad-5bd3-4668-b456-42959b9a3910","meta":{"profile":["http://hl7.org/fhir/us/cqfmeasures/StructureDefinition/test-case-cqfm"]},"contained":[{"resourceType":"Parameters","id":"cecc13bf-eb7a-457d-a0e2-6dcbda53d6da-parameters","parameter":[{"name":"subject","valueString":"92d6fd00-76fa-4354-8c16-59582a8c7278"}]}],"extension":[{"url":"http://hl7.org/fhir/us/cqfmeasures/StructureDefinition/cqfm-inputParameters","valueReference":{"reference":"#cecc13bf-eb7a-457d-a0e2-6dcbda53d6da-parameters"}},{"url":"http://hl7.org/fhir/us/cqfmeasures/StructureDefinition/cqfm-testCaseDescription","valueMarkdown":"Encounter first day of MP, HTN dx  abated first minute of MP and as such inactive, but continues to pass denex since logic does not indicate the need to be active at the time of the encounter"}],"modifierExtension":[{"url":"http://hl7.org/fhir/us/cqfmeasures/StructureDefinition/cqfm-isTestCase","valueBoolean":true}],"status":"complete","type":"individual","measure":"https://madie.cms.gov/Measure/PCSBPScreeningFollowUpFHIR","period":{"start":"2025-01-01","end":"2025-12-31"},"group":[{"population":[{"code":{"coding":[{"system":"http://terminology.hl7.org/CodeSystem/measure-population","code":"initial-population","display":"Initial Population"}]},"count":1},{"code":{"coding":[{"system":"http://terminology.hl7.org/CodeSystem/measure-population","code":"denominator","display":"Denominator"}]},"count":1},{"code":{"coding":[{"system":"http://terminology.hl7.org/CodeSystem/measure-population","code":"denominator-exclusion","display":"Denominator Exclusion"}]},"count":1},{"code":{"coding":[{"system":"http://terminology.hl7.org/CodeSystem/measure-population","code":"numerator","display":"Numerator"}]},"count":0},{"code":{"coding":[{"system":"http://terminology.hl7.org/CodeSystem/measure-population","code":"denominator-exception","display":"Denominator Exception"}]},"count":0}]}]},"request":{"method":"PUT","url":"MeasureReport/c39928ad-5bd3-4668-b456-42959b9a3910"}}]}