{"resourceType":"Bundle","id":"tests-28370af1-320f-4431-9862-f433e0522373-bundle","type":"transaction","entry":[{"fullUrl":"https://madie.cms.gov/Patient/28370af1-320f-4431-9862-f433e0522373","resource":{"resourceType":"Patient","id":"28370af1-320f-4431-9862-f433e0522373","meta":{"profile":["http://hl7.org/fhir/us/qicore/StructureDefinition/qicore-patient"]},"extension":[{"url":"http://hl7.org/fhir/us/core/StructureDefinition/us-core-race","extension":[{"url":"ombCategory","valueCoding":{"system":"urn:oid:2.16.840.1.113883.6.238","code":"2054-5","display":"Black or African American","userSelected":true}},{"url":"text","valueString":"Black or African American"}]},{"url":"http://hl7.org/fhir/us/core/StructureDefinition/us-core-ethnicity","extension":[{"url":"ombCategory","valueCoding":{"system":"urn:oid:2.16.840.1.113883.6.238","code":"2135-2","display":"Hispanic or Latino","userSelected":true}},{"url":"text","valueString":"Hispanic or Latino"}]}],"identifier":[{"type":{"coding":[{"system":"http://terminology.hl7.org/CodeSystem/v2-0203","code":"MR"}]},"system":"https://bonnie-fhir.healthit.gov/","value":"62cc2f5467cd2f796b838aaa"}],"name":[{"family":"NUMERPassX2","given":["MultipleElevatedEncLifestlyeFUReferralWithInterventions"]}],"gender":"male","birthDate":"2004-01-31"},"request":{"method":"PUT","url":"Patient/28370af1-320f-4431-9862-f433e0522373"}},{"fullUrl":"https://madie.cms.gov/Encounter/encounter-to-screen-for-blood-pressure-d1ae","resource":{"resourceType":"Encounter","id":"8cf0f939-3f86-40ce-8105-d0ae725707b6","meta":{"profile":["http://hl7.org/fhir/us/qicore/StructureDefinition/qicore-encounter"]},"status":"finished","class":{"system":"http://terminology.hl7.org/CodeSystem/v3-ActCode","code":"AMB","display":"ambulatory"},"type":[{"coding":[{"system":"http://snomed.info/sct","version":"2022-03","code":"103705002","display":"Patient status observation (procedure)","userSelected":true}]}],"subject":{"reference":"Patient/28370af1-320f-4431-9862-f433e0522373"},"period":{"start":"2025-01-01T08:00:00.000+00:00","end":"2025-01-01T08:30:00.000+00:00"}},"request":{"method":"PUT","url":"Encounter/8cf0f939-3f86-40ce-8105-d0ae725707b6"}},{"fullUrl":"https://madie.cms.gov/Observation/blood-pressure-2","resource":{"resourceType":"Observation","id":"6c9c910e-8090-4bb8-8390-70629d21a2d2","meta":{"profile":["http://hl7.org/fhir/StructureDefinition/bp"]},"status":"final","category":[{"coding":[{"system":"http://terminology.hl7.org/CodeSystem/observation-category","code":"vital-signs","display":"Vital Signs"}],"text":"Vital Signs"}],"code":{"coding":[{"system":"http://loinc.org","code":"85354-9","display":"Blood pressure panel"}]},"subject":{"reference":"Patient/28370af1-320f-4431-9862-f433e0522373"},"effectiveDateTime":"2025-12-31T10:05:00.000Z","component":[{"code":{"coding":[{"system":"http://loinc.org","code":"8480-6","display":"Systolic blood pressure"}]},"valueQuantity":{"value":129,"unit":"mmHg","system":"http://unitsofmeasure.org","code":"mm[Hg]"}},{"code":{"coding":[{"system":"http://loinc.org","code":"8462-4","display":"Diastolic blood pressure"}]},"valueQuantity":{"value":79,"unit":"mmHg","system":"http://unitsofmeasure.org","code":"mm[Hg]"}}]},"request":{"method":"PUT","url":"Observation/6c9c910e-8090-4bb8-8390-70629d21a2d2"}},{"fullUrl":"https://madie.cms.gov/ServiceRequest/follow-up-2-3-months-finding-8aa7","resource":{"resourceType":"ServiceRequest","id":"d1f136d8-1d57-44c3-8e90-f860c8ca8edc","meta":{"profile":["http://hl7.org/fhir/us/qicore/StructureDefinition/qicore-servicerequest"]},"status":"active","intent":"order","code":{"coding":[{"system":"http://snomed.info/sct","code":"183624006","display":"Follow-up 2-3 months (finding)","userSelected":true}]},"subject":{"reference":"Patient/28370af1-320f-4431-9862-f433e0522373"},"authoredOn":"2025-01-01T08:25:00.000+00:00"},"request":{"method":"PUT","url":"ServiceRequest/d1f136d8-1d57-44c3-8e90-f860c8ca8edc"}},{"fullUrl":"https://madie.cms.gov/ServiceRequest/follow-up-4-6-months-finding-8aa8","resource":{"resourceType":"ServiceRequest","id":"86703f63-4d27-46e0-9f82-33aeb6807dcb","meta":{"profile":["http://hl7.org/fhir/us/qicore/StructureDefinition/qicore-servicerequest"]},"status":"active","intent":"order","code":{"coding":[{"system":"http://snomed.info/sct","code":"183625007","display":"Follow-up 4-6 months (finding)","userSelected":true}]},"subject":{"reference":"Patient/28370af1-320f-4431-9862-f433e0522373"},"authoredOn":"2025-01-01T08:25:00.000+00:00"},"request":{"method":"PUT","url":"ServiceRequest/86703f63-4d27-46e0-9f82-33aeb6807dcb"}},{"fullUrl":"https://madie.cms.gov/ServiceRequest/lifestyle-recommendation-8aa9","resource":{"resourceType":"ServiceRequest","id":"c4a25c3e-a9c9-445e-8dbe-1b164296877b","meta":{"profile":["http://hl7.org/fhir/us/qicore/StructureDefinition/qicore-servicerequest"]},"status":"active","intent":"order","code":{"coding":[{"system":"http://snomed.info/sct","version":"2022-03","code":"313204009","display":"Lifestyle education (procedure)","userSelected":true}]},"subject":{"reference":"Patient/28370af1-320f-4431-9862-f433e0522373"},"authoredOn":"2025-01-01T08:25:00.000+00:00"},"request":{"method":"PUT","url":"ServiceRequest/c4a25c3e-a9c9-445e-8dbe-1b164296877b"}},{"fullUrl":"https://madie.cms.gov/Encounter/encounter-to-screen-for-blood-pressure-8aab","resource":{"resourceType":"Encounter","id":"41c084fb-952b-4a31-b2d3-95561dcf1022","meta":{"profile":["http://hl7.org/fhir/us/qicore/StructureDefinition/qicore-encounter"]},"status":"finished","class":{"system":"http://terminology.hl7.org/CodeSystem/v3-ActCode","code":"AMB","display":"ambulatory"},"type":[{"coding":[{"system":"http://snomed.info/sct","version":"2022-03","code":"103705002","display":"Patient status observation (procedure)","userSelected":true}]}],"subject":{"reference":"Patient/28370af1-320f-4431-9862-f433e0522373"},"period":{"start":"2025-12-31T10:00:00.000+00:00","end":"2025-12-31T10:45:00.000+00:00"}},"request":{"method":"PUT","url":"Encounter/41c084fb-952b-4a31-b2d3-95561dcf1022"}},{"fullUrl":"https://madie.cms.gov/Observation/blood-pressure-1","resource":{"resourceType":"Observation","id":"acb54b62-8135-43c3-aef5-17c0b1fbd9c5","meta":{"profile":["http://hl7.org/fhir/StructureDefinition/bp"]},"status":"final","category":[{"coding":[{"system":"http://terminology.hl7.org/CodeSystem/observation-category","code":"vital-signs","display":"Vital Signs"}],"text":"Vital Signs"}],"code":{"coding":[{"system":"http://loinc.org","code":"85354-9","display":"Blood pressure panel"}]},"subject":{"reference":"Patient/28370af1-320f-4431-9862-f433e0522373"},"effectiveDateTime":"2025-01-01T08:05:00.000Z","component":[{"code":{"coding":[{"system":"http://loinc.org","code":"8480-6","display":"Systolic blood pressure"}]},"valueQuantity":{"value":120,"unit":"mmHg","system":"http://unitsofmeasure.org","code":"mm[Hg]"}},{"code":{"coding":[{"system":"http://loinc.org","code":"8462-4","display":"Diastolic blood pressure"}]},"valueQuantity":{"value":79,"unit":"mmHg","system":"http://unitsofmeasure.org","code":"mm[Hg]"}}]},"request":{"method":"PUT","url":"Observation/acb54b62-8135-43c3-aef5-17c0b1fbd9c5"}},{"fullUrl":"https://madie.cms.gov/ServiceRequest/referral-to-primary-care-or-alternate-provider-8aae","resource":{"resourceType":"ServiceRequest","id":"085bb214-43a6-495e-844c-97bfcc2b662d","meta":{"profile":["http://hl7.org/fhir/us/qicore/StructureDefinition/qicore-servicerequest"]},"status":"active","intent":"order","code":{"coding":[{"system":"http://snomed.info/sct","version":"2022-03","code":"134403003","display":"Urgent referral (procedure)","userSelected":true}]},"subject":{"reference":"Patient/28370af1-320f-4431-9862-f433e0522373"},"authoredOn":"2025-12-31T10:25:00.000+00:00","reasonCode":[{"coding":[{"system":"http://hl7.org/fhir/sid/icd-10-cm","code":"R03.0","display":"Elevated blood-pressure reading, without diagnosis of hypertension","userSelected":true}]}]},"request":{"method":"PUT","url":"ServiceRequest/085bb214-43a6-495e-844c-97bfcc2b662d"}},{"fullUrl":"https://madie.cms.gov/Coverage/1","resource":{"resourceType":"Coverage","id":"3d1fdee5-8c25-4c68-868c-749fcaadf509","meta":{"profile":["http://hl7.org/fhir/us/qicore/StructureDefinition/qicore-coverage"]},"status":"active","beneficiary":{"reference":"Patient/28370af1-320f-4431-9862-f433e0522373"},"payor":[{"reference":"Organization/4b5a882f-1f43-485c-85c6-f5ad2337d5b1"}]},"request":{"method":"PUT","url":"Coverage/3d1fdee5-8c25-4c68-868c-749fcaadf509"}},{"fullUrl":"https://madie.cms.gov/Organization/123456","resource":{"resourceType":"Organization","id":"4b5a882f-1f43-485c-85c6-f5ad2337d5b1","meta":{"profile":["http://hl7.org/fhir/us/qicore/StructureDefinition/qicore-organization"]},"identifier":[{"use":"temp","system":"urn:oid:2.16.840.1.113883.4.4","value":"21-3259825"}],"active":true,"type":[{"coding":[{"system":"http://terminology.hl7.org/CodeSystem/organization-type","code":"pay","display":"Payer"}]}],"name":"Blue Cross Blue Shield of Texas","telecom":[{"system":"phone","value":"(+1) 972-766-6900"}],"address":[{"use":"billing","type":"postal","line":["P.O. Box 660044"],"city":"Dallas","state":"TX","postalCode":"75266-0044","country":"USA"}]},"request":{"method":"PUT","url":"Organization/4b5a882f-1f43-485c-85c6-f5ad2337d5b1"}},{"fullUrl":"https://madie.cms.gov/MeasureReport/926f393c-9034-40d5-9e28-2f239ae804e0","resource":{"resourceType":"MeasureReport","id":"926f393c-9034-40d5-9e28-2f239ae804e0","meta":{"profile":["http://hl7.org/fhir/us/cqfmeasures/StructureDefinition/test-case-cqfm"]},"contained":[{"resourceType":"Parameters","id":"797d1552-6bf9-42a4-b18f-741eff606b9a-parameters","parameter":[{"name":"subject","valueString":"28370af1-320f-4431-9862-f433e0522373"}]}],"extension":[{"url":"http://hl7.org/fhir/us/cqfmeasures/StructureDefinition/cqfm-inputParameters","valueReference":{"reference":"#797d1552-6bf9-42a4-b18f-741eff606b9a-parameters"}},{"url":"http://hl7.org/fhir/us/cqfmeasures/StructureDefinition/cqfm-testCaseDescription","valueMarkdown":"Age 18+, 1st enc 1/01 0800 - 0830,  BP 120/79, order for  f/u 2-3 mo, f/u 4-6 mo.  lifestyle.\n2nd Enc. 12/31 1000-1045, 129/79, urgent referral order, "}],"modifierExtension":[{"url":"http://hl7.org/fhir/us/cqfmeasures/StructureDefinition/cqfm-isTestCase","valueBoolean":true}],"status":"complete","type":"individual","measure":"https://madie.cms.gov/Measure/PCSBPScreeningFollowUpFHIR","period":{"start":"2025-01-01","end":"2025-12-31"},"group":[{"population":[{"code":{"coding":[{"system":"http://terminology.hl7.org/CodeSystem/measure-population","code":"initial-population","display":"Initial Population"}]},"count":2},{"code":{"coding":[{"system":"http://terminology.hl7.org/CodeSystem/measure-population","code":"denominator","display":"Denominator"}]},"count":2},{"code":{"coding":[{"system":"http://terminology.hl7.org/CodeSystem/measure-population","code":"denominator-exclusion","display":"Denominator Exclusion"}]},"count":0},{"code":{"coding":[{"system":"http://terminology.hl7.org/CodeSystem/measure-population","code":"numerator","display":"Numerator"}]},"count":2},{"code":{"coding":[{"system":"http://terminology.hl7.org/CodeSystem/measure-population","code":"denominator-exception","display":"Denominator Exception"}]},"count":0}]}]},"request":{"method":"PUT","url":"MeasureReport/926f393c-9034-40d5-9e28-2f239ae804e0"}}]}