{
  "resourceType": "Bundle",
  "id": "2ScreAtriNotatriNorefAsseMdoDxNocp",
  "type": "transaction",
  "entry": [ {
    "fullUrl": "https://madie.cms.gov/Patient/61c2c588-8a0f-44db-bfdb-e4ccc17641ed",
    "resource": {
      "resourceType": "Patient",
      "id": "61c2c588-8a0f-44db-bfdb-e4ccc17641ed",
      "meta": {
        "profile": [ "http://hl7.org/fhir/us/qicore/StructureDefinition/qicore-patient" ]
      },
      "text": {
        "status": "generated",
        "div": "<div xmlns=\"http://www.w3.org/1999/xhtml\"><div class=\"hapiHeaderText\">2ScreAtriNotatriNorefAsseMdoDxNocp, , <b> </b></div><table class=\"hapiPropertyTable\"><tbody><tr><td>Identifier</td><td>2ScreAtriNotatriNorefAsseMdoDxNocp</td></tr><tr><td>Date of birth</td><td><span>14 May 1950</span></td></tr></tbody></table></div>"
      },
      "extension": [ {
        "url": "http://hl7.org/fhir/us/core/StructureDefinition/us-core-race",
        "extension": [ {
          "url": "ombCategory",
          "valueCoding": {
            "system": "urn:oid:2.16.840.1.113883.6.238",
            "code": "2106-3",
            "display": "White",
            "userSelected": true
          }
        }, {
          "url": "text",
          "valueString": "White"
        } ]
      }, {
        "url": "http://hl7.org/fhir/us/core/StructureDefinition/us-core-ethnicity",
        "extension": [ {
          "url": "ombCategory",
          "valueCoding": {
            "system": "urn:oid:2.16.840.1.113883.6.238",
            "code": "2186-5",
            "display": "Not Hispanic or Latino",
            "userSelected": true
          }
        }, {
          "url": "text",
          "valueString": "Not Hispanic or Latino"
        } ]
      } ],
      "identifier": [ {
        "type": {
          "coding": [ {
            "system": "http://terminology.hl7.org/CodeSystem/v2-0203",
            "code": "MR"
          } ]
        },
        "system": "https://madie.cms.gov/",
        "value": "2ScreAtriNotatriNorefAsseMdoDxNocp"
      } ],
      "active": true,
      "name": [ {
        "use": "usual",
        "text": "2ScreAtriNotatriNorefAsseMdoDxNocp",
        "family": "OCCURPass4",
        "given": [ "2ScreAtriNotatriNorefAsseMdoDxNocpOCCURPass4" ]
      } ],
      "gender": "female",
      "birthDate": "1950-05-14",
      "address": [ {
        "text": "2ScreAtriNotatriNorefAsseMdoDxNocp, Screened Not at risk Assessed Severely Malnourished Diagnosed Care Plan, ID=2ScreAtriNotatriNorefAsseMdoDxNocp, DOB: 14 May 1950"
      } ]
    },
    "request": {
      "method": "POST",
      "url": "Patient/61c2c588-8a0f-44db-bfdb-e4ccc17641ed"
    }
  }, {
    "fullUrl": "https://madie.cms.gov/Encounter/2ScreAtriNotatriNorefAsseMdoDxNocp-01",
    "resource": {
      "resourceType": "Encounter",
      "id": "2ScreAtriNotatriNorefAsseMdoDxNocp-01",
      "meta": {
        "profile": [ "http://hl7.org/fhir/us/qicore/StructureDefinition/qicore-encounter" ]
      },
      "status": "finished",
      "class": {
        "system": "http://terminology.hl7.org/CodeSystem/v3-ActCode",
        "code": "IMP",
        "display": "inpatient encounter"
      },
      "type": [ {
        "coding": [ {
          "system": "http://snomed.info/sct",
          "code": "183452005"
        } ]
      } ],
      "subject": {
        "reference": "Patient/61c2c588-8a0f-44db-bfdb-e4ccc17641ed"
      },
      "period": {
        "start": "2026-02-01T08:00:00.000Z",
        "end": "2026-02-07T08:15:00.000Z"
      }
    },
    "request": {
      "method": "POST",
      "url": "Encounter/2ScreAtriNotatriNorefAsseMdoDxNocp-01"
    }
  }, {
    "fullUrl": "https://madie.cms.gov/Condition/2ScreAtriNotatriNorefAsseMdoDxNocp-06",
    "resource": {
      "resourceType": "Condition",
      "id": "2ScreAtriNotatriNorefAsseMdoDxNocp-06",
      "meta": {
        "profile": [ "http://hl7.org/fhir/us/qicore/StructureDefinition/qicore-condition" ]
      },
      "clinicalStatus": {
        "coding": [ {
          "system": "http://terminology.hl7.org/CodeSystem/condition-clinical",
          "code": "active",
          "display": "Active",
          "userSelected": true
        } ]
      },
      "verificationStatus": {
        "coding": [ {
          "system": "http://terminology.hl7.org/CodeSystem/condition-ver-status",
          "code": "confirmed",
          "display": "Confirmed",
          "userSelected": true
        } ]
      },
      "category": [ {
        "coding": [ {
          "system": "http://terminology.hl7.org/CodeSystem/condition-category",
          "code": "encounter-diagnosis",
          "display": "Encounter Diagnosis",
          "userSelected": true
        } ]
      } ],
      "code": {
        "coding": [ {
          "system": "http://hl7.org/fhir/sid/icd-10-cm",
          "code": "E45",
          "display": "Retarded development following protein-calorie malnutrition",
          "userSelected": true
        } ]
      },
      "subject": {
        "reference": "Patient/61c2c588-8a0f-44db-bfdb-e4ccc17641ed"
      },
      "onsetPeriod": {
        "start": "2026-02-01T08:00:00.000+00:00"
      },
      "recordedDate": "2026-02-01T11:00:00.000+00:00"
    },
    "request": {
      "method": "POST",
      "url": "Condition/2ScreAtriNotatriNorefAsseMdoDxNocp-06"
    }
  }, {
    "fullUrl": "https://madie.cms.gov/Observation/2ScreAtriNotatriNorefAsseMdoDxNocp-18",
    "resource": {
      "resourceType": "Observation",
      "id": "2ScreAtriNotatriNorefAsseMdoDxNocp-18",
      "meta": {
        "profile": [ "http://hl7.org/fhir/us/qicore/StructureDefinition/qicore-observation" ]
      },
      "status": "final",
      "category": [ {
        "coding": [ {
          "system": "http://terminology.hl7.org/CodeSystem/observation-category",
          "code": "survey",
          "display": "Survey"
        } ]
      } ],
      "code": {
        "coding": [ {
          "system": "http://loinc.org",
          "code": "98972-3",
          "display": "Nutrition Risk Screening 2002 panel",
          "userSelected": true
        } ]
      },
      "subject": {
        "reference": "Patient/61c2c588-8a0f-44db-bfdb-e4ccc17641ed"
      },
      "effectiveDateTime": "2026-02-01T09:00:00.000+00:00",
      "valueCodeableConcept": {
        "coding": [ {
          "system": "http://snomed.info/sct",
          "code": "445421000124101",
          "display": "At risk for inadequate intake of multiple nutrients (finding)",
          "userSelected": true
        } ]
      }
    },
    "request": {
      "method": "POST",
      "url": "Observation/2ScreAtriNotatriNorefAsseMdoDxNocp-18"
    }
  }, {
    "fullUrl": "https://madie.cms.gov/Observation/2ScreAtriNotatriNorefAsseMdoDxNocp-20",
    "resource": {
      "resourceType": "Observation",
      "id": "2ScreAtriNotatriNorefAsseMdoDxNocp-20",
      "meta": {
        "profile": [ "http://hl7.org/fhir/us/qicore/StructureDefinition/qicore-observation" ]
      },
      "status": "final",
      "category": [ {
        "coding": [ {
          "system": "http://terminology.hl7.org/CodeSystem/observation-category",
          "code": "survey",
          "display": "Survey"
        } ]
      } ],
      "code": {
        "coding": [ {
          "system": "http://loinc.org",
          "code": "98972-3",
          "display": "Nutrition Risk Screening 2002 panel",
          "userSelected": true
        } ]
      },
      "subject": {
        "reference": "Patient/61c2c588-8a0f-44db-bfdb-e4ccc17641ed"
      },
      "effectiveDateTime": "2026-02-01T09:00:00.000+00:00",
      "valueCodeableConcept": {
        "coding": [ {
          "system": "http://loinc.org",
          "code": "LA33699-2",
          "display": "Not at risk for malnutrition",
          "userSelected": true
        } ]
      }
    },
    "request": {
      "method": "POST",
      "url": "Observation/2ScreAtriNotatriNorefAsseMdoDxNocp-20"
    }
  }, {
    "fullUrl": "https://madie.cms.gov/Observation/2ScreAtriNotatriNorefAsseMdoDxNocp-19",
    "resource": {
      "resourceType": "Observation",
      "id": "2ScreAtriNotatriNorefAsseMdoDxNocp-19",
      "meta": {
        "profile": [ "http://hl7.org/fhir/us/qicore/StructureDefinition/qicore-observation" ]
      },
      "status": "final",
      "category": [ {
        "coding": [ {
          "system": "http://terminology.hl7.org/CodeSystem/observation-category",
          "code": "survey",
          "display": "Survey"
        } ]
      } ],
      "code": {
        "coding": [ {
          "system": "http://loinc.org",
          "code": "75285-7",
          "display": "Comparative nutrition assessment standards panel",
          "userSelected": true
        } ]
      },
      "subject": {
        "reference": "Patient/61c2c588-8a0f-44db-bfdb-e4ccc17641ed"
      },
      "effectiveDateTime": "2026-02-01T10:00:00.000+00:00",
      "valueCodeableConcept": {
        "coding": [ {
          "system": "http://snomed.info/sct",
          "code": "102635008",
          "display": "Acute nutritional deficiency (finding)",
          "userSelected": true
        } ]
      }
    },
    "request": {
      "method": "POST",
      "url": "Observation/2ScreAtriNotatriNorefAsseMdoDxNocp-19"
    }
  }, {
    "fullUrl": "https://madie.cms.gov/Coverage/2ScreAtriNotatriNorefAsseMdoDxNocp-61",
    "resource": {
      "resourceType": "Coverage",
      "id": "2ScreAtriNotatriNorefAsseMdoDxNocp-61",
      "meta": {
        "profile": [ "http://hl7.org/fhir/us/qicore/StructureDefinition/qicore-coverage" ]
      },
      "status": "active",
      "type": {
        "coding": [ {
          "system": "https://nahdo.org/sopt",
          "version": "9.2",
          "code": "11",
          "display": "Medicare Managed Care (Includes Medicare Advantage Plans)"
        } ]
      },
      "beneficiary": {
        "reference": "Patient/61c2c588-8a0f-44db-bfdb-e4ccc17641ed"
      },
      "period": {
        "start": "2025-10-01T00:00:00+00:00"
      },
      "payor": [ {
        "reference": "Organization/2ScreAtriNotatriNorefAsseMdoDxNocp-98"
      } ]
    },
    "request": {
      "method": "POST",
      "url": "Coverage/2ScreAtriNotatriNorefAsseMdoDxNocp-61"
    }
  }, {
    "fullUrl": "https://madie.cms.gov/Organization/2ScreAtriNotatriNorefAsseMdoDxNocp-98",
    "resource": {
      "resourceType": "Organization",
      "id": "2ScreAtriNotatriNorefAsseMdoDxNocp-98",
      "meta": {
        "profile": [ "http://hl7.org/fhir/us/qicore/StructureDefinition/qicore-organization" ]
      },
      "identifier": [ {
        "use": "temp",
        "system": "urn:oid:2.16.840.1.113883.4.4",
        "value": "21-3259825"
      } ],
      "active": true,
      "type": [ {
        "coding": [ {
          "system": "http://terminology.hl7.org/CodeSystem/organization-type",
          "code": "pay",
          "display": "Payer"
        } ]
      } ],
      "name": "Blue Cross Blue Shield of Texas",
      "telecom": [ {
        "system": "phone",
        "value": "(+1) 972-766-6900"
      } ],
      "address": [ {
        "use": "billing",
        "type": "postal",
        "line": [ "P.O. Box 660044" ],
        "city": "Dallas",
        "state": "TX",
        "postalCode": "75266-0044",
        "country": "USA"
      } ]
    },
    "request": {
      "method": "POST",
      "url": "Organization/2ScreAtriNotatriNorefAsseMdoDxNocp-98"
    }
  }, {
    "fullUrl": "https://madie.cms.gov/MeasureReport/87aab7a1-a8a3-46a1-bec7-a571b3b849ff",
    "resource": {
      "resourceType": "MeasureReport",
      "id": "87aab7a1-a8a3-46a1-bec7-a571b3b849ff",
      "meta": {
        "profile": [ "http://hl7.org/fhir/us/cqfmeasures/StructureDefinition/test-case-cqfm" ]
      },
      "contained": [ {
        "resourceType": "Parameters",
        "id": "5062bd49-ed41-440d-beaa-f2f24fecc12f-parameters",
        "parameter": [ {
          "name": "subject",
          "valueString": "61c2c588-8a0f-44db-bfdb-e4ccc17641ed"
        } ]
      } ],
      "extension": [ {
        "url": "http://hl7.org/fhir/us/cqfmeasures/StructureDefinition/cqfm-inputParameters",
        "valueReference": {
          "reference": "#5062bd49-ed41-440d-beaa-f2f24fecc12f-parameters"
        }
      }, {
        "url": "http://hl7.org/fhir/us/cqfmeasures/StructureDefinition/cqfm-testCaseDescription",
        "valueMarkdown": "Screened, At Risk, Not At Risk, No Referral, Assessed, Severe Malnutrition, Diagnosis, No Nutrition Care Plan"
      } ],
      "modifierExtension": [ {
        "url": "http://hl7.org/fhir/us/cqfmeasures/StructureDefinition/cqfm-isTestCase",
        "valueBoolean": true
      } ],
      "status": "complete",
      "type": "individual",
      "measure": "https://madie.cms.gov/Measure/GlobalMalnutritionCompositeFHIR",
      "period": {
        "start": "2026-01-01",
        "end": "2026-12-31"
      },
      "group": [ {
        "population": [ {
          "code": {
            "coding": [ {
              "system": "http://terminology.hl7.org/CodeSystem/measure-population",
              "code": "initial-population",
              "display": "Initial Population"
            } ]
          },
          "count": 1
        }, {
          "code": {
            "coding": [ {
              "system": "http://terminology.hl7.org/CodeSystem/measure-population",
              "code": "measure-population",
              "display": "Measure Population"
            } ]
          },
          "count": 1
        }, {
          "code": {
            "coding": [ {
              "system": "http://terminology.hl7.org/CodeSystem/measure-population",
              "code": "measure-population-observation",
              "display": "Measure Population Observation"
            } ]
          },
          "count": 1
        } ]
      }, {
        "population": [ {
          "code": {
            "coding": [ {
              "system": "http://terminology.hl7.org/CodeSystem/measure-population",
              "code": "initial-population",
              "display": "Initial Population"
            } ]
          },
          "count": 1
        }, {
          "code": {
            "coding": [ {
              "system": "http://terminology.hl7.org/CodeSystem/measure-population",
              "code": "measure-population",
              "display": "Measure Population"
            } ]
          },
          "count": 1
        }, {
          "code": {
            "coding": [ {
              "system": "http://terminology.hl7.org/CodeSystem/measure-population",
              "code": "measure-population-observation",
              "display": "Measure Population Observation"
            } ]
          },
          "count": 0
        } ]
      }, {
        "population": [ {
          "code": {
            "coding": [ {
              "system": "http://terminology.hl7.org/CodeSystem/measure-population",
              "code": "initial-population",
              "display": "Initial Population"
            } ]
          },
          "count": 1
        }, {
          "code": {
            "coding": [ {
              "system": "http://terminology.hl7.org/CodeSystem/measure-population",
              "code": "measure-population",
              "display": "Measure Population"
            } ]
          },
          "count": 1
        }, {
          "code": {
            "coding": [ {
              "system": "http://terminology.hl7.org/CodeSystem/measure-population",
              "code": "measure-population-observation",
              "display": "Measure Population Observation"
            } ]
          },
          "count": 0
        } ]
      }, {
        "population": [ {
          "code": {
            "coding": [ {
              "system": "http://terminology.hl7.org/CodeSystem/measure-population",
              "code": "initial-population",
              "display": "Initial Population"
            } ]
          },
          "count": 1
        }, {
          "code": {
            "coding": [ {
              "system": "http://terminology.hl7.org/CodeSystem/measure-population",
              "code": "measure-population",
              "display": "Measure Population"
            } ]
          },
          "count": 1
        }, {
          "code": {
            "coding": [ {
              "system": "http://terminology.hl7.org/CodeSystem/measure-population",
              "code": "measure-population-observation",
              "display": "Measure Population Observation"
            } ]
          },
          "count": 0
        } ]
      }, {
        "population": [ {
          "code": {
            "coding": [ {
              "system": "http://terminology.hl7.org/CodeSystem/measure-population",
              "code": "initial-population",
              "display": "Initial Population"
            } ]
          },
          "count": 1
        }, {
          "code": {
            "coding": [ {
              "system": "http://terminology.hl7.org/CodeSystem/measure-population",
              "code": "measure-population",
              "display": "Measure Population"
            } ]
          },
          "count": 1
        }, {
          "code": {
            "coding": [ {
              "system": "http://terminology.hl7.org/CodeSystem/measure-population",
              "code": "measure-population-observation",
              "display": "Measure Population Observation"
            } ]
          },
          "count": 1
        } ]
      }, {
        "population": [ {
          "code": {
            "coding": [ {
              "system": "http://terminology.hl7.org/CodeSystem/measure-population",
              "code": "initial-population",
              "display": "Initial Population"
            } ]
          },
          "count": 1
        }, {
          "code": {
            "coding": [ {
              "system": "http://terminology.hl7.org/CodeSystem/measure-population",
              "code": "measure-population",
              "display": "Measure Population"
            } ]
          },
          "count": 1
        }, {
          "code": {
            "coding": [ {
              "system": "http://terminology.hl7.org/CodeSystem/measure-population",
              "code": "measure-population-observation",
              "display": "Measure Population Observation"
            } ]
          },
          "count": 100
        } ]
      } ],
      "evaluatedResource": [ {
        "reference": "https://madie.cms.gov/Patient/61c2c588-8a0f-44db-bfdb-e4ccc17641ed"
      }, {
        "reference": "https://madie.cms.gov/Encounter/2ScreAtriNotatriNorefAsseMdoDxNocp-01"
      }, {
        "reference": "https://madie.cms.gov/Condition/2ScreAtriNotatriNorefAsseMdoDxNocp-06"
      }, {
        "reference": "https://madie.cms.gov/Observation/2ScreAtriNotatriNorefAsseMdoDxNocp-18"
      }, {
        "reference": "https://madie.cms.gov/Observation/2ScreAtriNotatriNorefAsseMdoDxNocp-20"
      }, {
        "reference": "https://madie.cms.gov/Observation/2ScreAtriNotatriNorefAsseMdoDxNocp-19"
      }, {
        "reference": "https://madie.cms.gov/Coverage/2ScreAtriNotatriNorefAsseMdoDxNocp-61"
      }, {
        "reference": "https://madie.cms.gov/Organization/2ScreAtriNotatriNorefAsseMdoDxNocp-98"
      } ]
    },
    "request": {
      "method": "POST",
      "url": "MeasureReport/87aab7a1-a8a3-46a1-bec7-a571b3b849ff"
    }
  } ]
}