{
  "resourceType": "Bundle",
  "id": "63233350414ba67d4e1d1c2f",
  "type": "transaction",
  "entry": [ {
    "fullUrl": "https://madie.cms.gov/Patient/59c3a231-ef45-424a-89f7-8e9e8b037633",
    "resource": {
      "resourceType": "Patient",
      "id": "59c3a231-ef45-424a-89f7-8e9e8b037633",
      "meta": {
        "profile": [ "http://hl7.org/fhir/us/qicore/StructureDefinition/qicore-patient" ]
      },
      "extension": [ {
        "url": "http://hl7.org/fhir/us/core/StructureDefinition/us-core-race",
        "extension": [ {
          "url": "ombCategory",
          "valueCoding": {
            "system": "urn:oid:2.16.840.1.113883.6.238",
            "code": "2028-9",
            "display": "Asian",
            "userSelected": true
          }
        }, {
          "url": "text",
          "valueString": "Asian"
        } ]
      }, {
        "url": "http://hl7.org/fhir/us/core/StructureDefinition/us-core-ethnicity",
        "extension": [ {
          "url": "ombCategory",
          "valueCoding": {
            "system": "urn:oid:2.16.840.1.113883.6.238",
            "code": "2186-5",
            "display": "Not Hispanic or Latino",
            "userSelected": true
          }
        }, {
          "url": "text",
          "valueString": "Not Hispanic or Latino"
        } ]
      } ],
      "identifier": [ {
        "type": {
          "coding": [ {
            "system": "http://terminology.hl7.org/CodeSystem/v2-0203",
            "code": "MR"
          } ]
        },
        "system": "https://bonnie-fhir.healthit.gov/",
        "value": "63233350414ba67d4e1d1c2f"
      } ],
      "name": [ {
        "family": "DENEXPass",
        "given": [ "CancerEncounterDx" ]
      } ],
      "gender": "female",
      "birthDate": "1943-02-01"
    },
    "request": {
      "method": "POST",
      "url": "Patient/59c3a231-ef45-424a-89f7-8e9e8b037633"
    }
  }, {
    "fullUrl": "https://madie.cms.gov/Encounter/encounter-inpatient-1c2a",
    "resource": {
      "resourceType": "Encounter",
      "id": "encounter-inpatient-1c2a",
      "meta": {
        "profile": [ "http://hl7.org/fhir/us/qicore/StructureDefinition/qicore-encounter" ]
      },
      "status": "finished",
      "class": {
        "system": "http://terminology.hl7.org/CodeSystem/v3-ActCode",
        "code": "IMP",
        "display": "inpatient encounter"
      },
      "type": [ {
        "coding": [ {
          "system": "http://snomed.info/sct",
          "version": "2022-03",
          "code": "183452005",
          "display": "Emergency hospital admission (procedure)",
          "userSelected": true
        } ]
      } ],
      "subject": {
        "reference": "Patient/59c3a231-ef45-424a-89f7-8e9e8b037633"
      },
      "period": {
        "start": "2025-01-01T23:59:00.000+00:00",
        "end": "2025-01-03T23:59:00.000+00:00"
      },
      "diagnosis": [ {
        "condition": {
          "reference": "Condition/cancer-related-pain-1c30"
        }
      }, {
        "condition": {
          "reference": "Condition/cancer-related-pain-1c30"
        }
      } ]
    },
    "request": {
      "method": "POST",
      "url": "Encounter/encounter-inpatient-1c2a"
    }
  }, {
    "fullUrl": "https://madie.cms.gov/MedicationRequest/schedule-ii-iii-opioid-medications-1c2b",
    "resource": {
      "resourceType": "MedicationRequest",
      "id": "schedule-ii-iii-opioid-medications-1c2b",
      "meta": {
        "profile": [ "http://hl7.org/fhir/us/qicore/StructureDefinition/qicore-medicationrequest" ]
      },
      "status": "active",
      "intent": "order",
      "category": [ {
        "coding": [ {
          "system": "http://terminology.hl7.org/CodeSystem/medicationrequest-category",
          "code": "discharge",
          "display": "Discharge",
          "userSelected": true
        } ]
      } ],
      "doNotPerform": false,
      "medicationCodeableConcept": {
        "coding": [ {
          "system": "http://www.nlm.nih.gov/research/umls/rxnorm",
          "code": "2103192",
          "display": "sufentanil 0.03 MG Sublingual Tablet",
          "userSelected": true
        } ]
      },
      "subject": {
        "reference": "Patient/59c3a231-ef45-424a-89f7-8e9e8b037633"
      },
      "authoredOn": "2025-01-03T23:59:00.000+00:00",
      "requester": {
        "reference": "Practitioner/example",
        "display": "Patrick Pump"
      }
    },
    "request": {
      "method": "POST",
      "url": "MedicationRequest/schedule-ii-iii-opioid-medications-1c2b"
    }
  }, {
    "fullUrl": "https://madie.cms.gov/Condition/cancer-related-pain-1c30",
    "resource": {
      "resourceType": "Condition",
      "id": "cancer-related-pain-1c30",
      "meta": {
        "profile": [ "http://hl7.org/fhir/us/qicore/StructureDefinition/qicore-condition" ]
      },
      "clinicalStatus": {
        "coding": [ {
          "system": "http://terminology.hl7.org/CodeSystem/condition-clinical",
          "code": "active",
          "display": "active",
          "userSelected": true
        } ]
      },
      "category": [ {
        "coding": [ {
          "system": "http://terminology.hl7.org/CodeSystem/condition-category",
          "code": "encounter-diagnosis",
          "display": "Encounter Diagnosis"
        }, {
          "system": "http://snomed.info/sct",
          "code": "439401001",
          "display": "Diagnosis"
        } ]
      } ],
      "code": {
        "coding": [ {
          "system": "http://snomed.info/sct",
          "version": "2022-03",
          "code": "735935009",
          "display": "Chronic pain due to malignant neoplastic disease (finding)",
          "userSelected": true
        } ]
      },
      "subject": {
        "reference": "Patient/59c3a231-ef45-424a-89f7-8e9e8b037633"
      },
      "onsetPeriod": {
        "start": "2024-12-31T08:00:00.000+00:00"
      }
    },
    "request": {
      "method": "POST",
      "url": "Condition/cancer-related-pain-1c30"
    }
  }, {
    "fullUrl": "https://madie.cms.gov/Coverage/1",
    "resource": {
      "resourceType": "Coverage",
      "id": "1",
      "meta": {
        "profile": [ "http://hl7.org/fhir/us/qicore/StructureDefinition/qicore-coverage" ]
      },
      "status": "active",
      "beneficiary": {
        "reference": "Patient/59c3a231-ef45-424a-89f7-8e9e8b037633"
      },
      "payor": [ {
        "reference": "Organization/123456"
      } ]
    },
    "request": {
      "method": "POST",
      "url": "Coverage/1"
    }
  }, {
    "fullUrl": "https://madie.cms.gov/Organization/123456",
    "resource": {
      "resourceType": "Organization",
      "id": "123456",
      "meta": {
        "profile": [ "http://hl7.org/fhir/us/qicore/StructureDefinition/qicore-organization" ]
      },
      "identifier": [ {
        "use": "temp",
        "system": "urn:oid:2.16.840.1.113883.4.4",
        "value": "21-3259825"
      } ],
      "active": true,
      "type": [ {
        "coding": [ {
          "system": "http://terminology.hl7.org/CodeSystem/organization-type",
          "code": "pay",
          "display": "Payer"
        } ]
      } ],
      "name": "Blue Cross Blue Shield of Texas",
      "telecom": [ {
        "system": "phone",
        "value": "(+1) 972-766-6900"
      } ],
      "address": [ {
        "use": "billing",
        "type": "postal",
        "line": [ "P.O. Box 660044" ],
        "city": "Dallas",
        "state": "TX",
        "postalCode": "75266-0044",
        "country": "USA"
      } ]
    },
    "request": {
      "method": "POST",
      "url": "Organization/123456"
    }
  }, {
    "fullUrl": "https://madie.cms.gov/MeasureReport/9a930727-6767-4253-b45f-39f0982a87ca",
    "resource": {
      "resourceType": "MeasureReport",
      "id": "9a930727-6767-4253-b45f-39f0982a87ca",
      "meta": {
        "profile": [ "http://hl7.org/fhir/us/cqfmeasures/StructureDefinition/test-case-cqfm" ]
      },
      "contained": [ {
        "resourceType": "Parameters",
        "id": "8d051774-e321-4a07-9edf-7eb518da4a16-parameters",
        "parameter": [ {
          "name": "subject",
          "valueString": "59c3a231-ef45-424a-89f7-8e9e8b037633"
        } ]
      } ],
      "extension": [ {
        "url": "http://hl7.org/fhir/us/cqfmeasures/StructureDefinition/cqfm-inputParameters",
        "valueReference": {
          "reference": "#8d051774-e321-4a07-9edf-7eb518da4a16-parameters"
        }
      }, {
        "url": "http://hl7.org/fhir/us/cqfmeasures/StructureDefinition/cqfm-testCaseDescription",
        "valueMarkdown": "Enc.  1/1  at 2359 - 1/3 at 2359; encounter dx cancer pain, diagnosed last day of prior year, opioid at 2359 on discharge date; "
      } ],
      "modifierExtension": [ {
        "url": "http://hl7.org/fhir/us/cqfmeasures/StructureDefinition/cqfm-isTestCase",
        "valueBoolean": true
      } ],
      "status": "complete",
      "type": "individual",
      "measure": "https://madie.cms.gov/Measure/SafeUseofOpioidsConcurrentPrescribingFHIR",
      "period": {
        "start": "2025-01-01",
        "end": "2025-12-31"
      },
      "group": [ {
        "population": [ {
          "code": {
            "coding": [ {
              "system": "http://terminology.hl7.org/CodeSystem/measure-population",
              "code": "initial-population",
              "display": "Initial Population"
            } ]
          },
          "count": 1
        }, {
          "code": {
            "coding": [ {
              "system": "http://terminology.hl7.org/CodeSystem/measure-population",
              "code": "denominator",
              "display": "Denominator"
            } ]
          },
          "count": 1
        }, {
          "code": {
            "coding": [ {
              "system": "http://terminology.hl7.org/CodeSystem/measure-population",
              "code": "denominator-exclusion",
              "display": "Denominator Exclusion"
            } ]
          },
          "count": 1
        }, {
          "code": {
            "coding": [ {
              "system": "http://terminology.hl7.org/CodeSystem/measure-population",
              "code": "numerator",
              "display": "Numerator"
            } ]
          },
          "count": 0
        } ]
      } ],
      "evaluatedResource": [ {
        "reference": "https://madie.cms.gov/Patient/59c3a231-ef45-424a-89f7-8e9e8b037633"
      }, {
        "reference": "https://madie.cms.gov/Encounter/encounter-inpatient-1c2a"
      }, {
        "reference": "https://madie.cms.gov/MedicationRequest/schedule-ii-iii-opioid-medications-1c2b"
      }, {
        "reference": "https://madie.cms.gov/Condition/cancer-related-pain-1c30"
      }, {
        "reference": "https://madie.cms.gov/Coverage/1"
      }, {
        "reference": "https://madie.cms.gov/Organization/123456"
      } ]
    },
    "request": {
      "method": "POST",
      "url": "MeasureReport/9a930727-6767-4253-b45f-39f0982a87ca"
    }
  } ]
}