{"resourceType":"Bundle","id":"tests-8562be3a-0255-4120-8666-c0357bc191e5-bundle","type":"transaction","entry":[{"fullUrl":"https://madie.cms.gov/Patient/8562be3a-0255-4120-8666-c0357bc191e5","resource":{"resourceType":"Patient","id":"8562be3a-0255-4120-8666-c0357bc191e5","meta":{"profile":["http://hl7.org/fhir/us/qicore/StructureDefinition/qicore-patient"]},"extension":[{"url":"http://hl7.org/fhir/us/core/StructureDefinition/us-core-race","extension":[{"url":"ombCategory","valueCoding":{"system":"urn:oid:2.16.840.1.113883.6.238","code":"2106-3","display":"White"}},{"url":"text","valueString":"White"}]},{"url":"http://hl7.org/fhir/us/core/StructureDefinition/us-core-ethnicity","extension":[{"url":"ombCategory","valueCoding":{"system":"urn:oid:2.16.840.1.113883.6.238","code":"2186-5","display":"Not Hispanic or Latino"}},{"url":"text","valueString":"Not Hispanic or Latino"}]}],"identifier":[{"type":{"coding":[{"system":"http://terminology.hl7.org/CodeSystem/v2-0203","code":"MR"}]},"system":"https://bonnie-fhir.healthit.gov/","value":"630307bd0968f80122477479"}],"name":[{"family":"IPPFail","given":["PtAge11"]}],"gender":"female","birthDate":"2013-01-01"},"request":{"method":"PUT","url":"Patient/8562be3a-0255-4120-8666-c0357bc191e5"}},{"fullUrl":"https://madie.cms.gov/Encounter/846816468613163156","resource":{"resourceType":"Encounter","id":"8d268515-db21-4d4f-9ccf-ef5c1d771545","meta":{"profile":["http://hl7.org/fhir/us/qicore/StructureDefinition/qicore-encounter"]},"status":"finished","class":{"system":"http://terminology.hl7.org/CodeSystem/v3-ActCode","code":"AMB","display":"ambulatory"},"type":[{"coding":[{"system":"http://www.ama-assn.org/go/cpt","version":"2024","code":"90791"}]}],"subject":{"reference":"Patient/8562be3a-0255-4120-8666-c0357bc191e5"},"period":{"start":"2024-06-25T14:30:00+00:00","end":"2024-06-25T14:50:00+00:00"},"length":{"value":0,"unit":"days"}},"request":{"method":"PUT","url":"Encounter/8d268515-db21-4d4f-9ccf-ef5c1d771545"}},{"fullUrl":"https://madie.cms.gov/Observation/98778613516461352131315","resource":{"resourceType":"Observation","id":"c50bc7c7-5f3e-4b91-bdc0-0394647b8e9d","meta":{"profile":["http://hl7.org/fhir/us/qicore/StructureDefinition/qicore-observation"]},"status":"final","category":[{"coding":[{"system":"http://terminology.hl7.org/CodeSystem/observation-category","code":"survey","display":"Survey"}]}],"code":{"coding":[{"system":"http://loinc.org","version":"2.76","code":"44261-6"}]},"subject":{"reference":"Patient/8562be3a-0255-4120-8666-c0357bc191e5"},"effectiveDateTime":"2024-06-25T14:35:00+00:00","valueInteger":11},"request":{"method":"PUT","url":"Observation/c50bc7c7-5f3e-4b91-bdc0-0394647b8e9d"}},{"fullUrl":"https://madie.cms.gov/Observation/784651651684135131313","resource":{"resourceType":"Observation","id":"d224e7a2-8552-40d9-8f56-626ae6c65a7b","meta":{"profile":["http://hl7.org/fhir/us/qicore/StructureDefinition/qicore-observation"]},"status":"final","category":[{"coding":[{"system":"http://terminology.hl7.org/CodeSystem/observation-category","code":"survey","display":"Survey"}]}],"code":{"coding":[{"system":"http://loinc.org","version":"2.76","code":"44261-6"}]},"subject":{"reference":"Patient/8562be3a-0255-4120-8666-c0357bc191e5"},"effectiveDateTime":"2025-04-19T14:30:00+00:00","valueInteger":3},"request":{"method":"PUT","url":"Observation/d224e7a2-8552-40d9-8f56-626ae6c65a7b"}},{"fullUrl":"https://madie.cms.gov/Condition/18961651646466486545","resource":{"resourceType":"Condition","id":"f513adc5-d8ab-4cf3-ad89-4fa613afb13e","meta":{"profile":["http://hl7.org/fhir/us/qicore/StructureDefinition/qicore-condition"]},"clinicalStatus":{"coding":[{"system":"http://terminology.hl7.org/CodeSystem/condition-clinical","code":"active","display":"active"}]},"verificationStatus":{"coding":[{"system":"http://terminology.hl7.org/CodeSystem/condition-ver-status","code":"confirmed"}]},"category":[{"coding":[{"system":"http://terminology.hl7.org/CodeSystem/condition-category","code":"problem-list-item","display":"Problem List Item"}]}],"code":{"coding":[{"system":"http://hl7.org/fhir/sid/icd-10-cm","version":"2024","code":"F32.9"}]},"subject":{"reference":"Patient/8562be3a-0255-4120-8666-c0357bc191e5"},"onsetDateTime":"2024-02-25T14:35:00+00:00"},"request":{"method":"PUT","url":"Condition/f513adc5-d8ab-4cf3-ad89-4fa613afb13e"}},{"fullUrl":"https://madie.cms.gov/MeasureReport/9787de0a-da37-42d6-8480-99b7b807a695","resource":{"resourceType":"MeasureReport","id":"9787de0a-da37-42d6-8480-99b7b807a695","meta":{"profile":["http://hl7.org/fhir/us/cqfmeasures/StructureDefinition/test-case-cqfm"]},"contained":[{"resourceType":"Parameters","id":"5436d135-522d-40c4-b887-598d074e9248-parameters","parameter":[{"name":"subject","valueString":"8562be3a-0255-4120-8666-c0357bc191e5"}]}],"extension":[{"url":"http://hl7.org/fhir/us/cqfmeasures/StructureDefinition/cqfm-inputParameters","valueReference":{"reference":"#5436d135-522d-40c4-b887-598d074e9248-parameters"}},{"url":"http://hl7.org/fhir/us/cqfmeasures/StructureDefinition/cqfm-testCaseDescription","valueMarkdown":"Patient is 11 years old. Patient is too young to be in initial population."}],"modifierExtension":[{"url":"http://hl7.org/fhir/us/cqfmeasures/StructureDefinition/cqfm-isTestCase","valueBoolean":true}],"status":"complete","type":"individual","measure":"https://madie.cms.gov/Measure/DepressionRemissionatTwelveMonthsFHIR","period":{"start":"2025-01-01","end":"2025-12-31"},"group":[{"population":[{"code":{"coding":[{"system":"http://terminology.hl7.org/CodeSystem/measure-population","code":"initial-population","display":"Initial Population"}]},"count":0},{"code":{"coding":[{"system":"http://terminology.hl7.org/CodeSystem/measure-population","code":"denominator","display":"Denominator"}]},"count":0},{"code":{"coding":[{"system":"http://terminology.hl7.org/CodeSystem/measure-population","code":"denominator-exclusion","display":"Denominator Exclusion"}]},"count":0},{"code":{"coding":[{"system":"http://terminology.hl7.org/CodeSystem/measure-population","code":"numerator","display":"Numerator"}]},"count":0}]}]},"request":{"method":"PUT","url":"MeasureReport/9787de0a-da37-42d6-8480-99b7b807a695"}}]}