{"resourceType":"Bundle","id":"tests-f9bc58d1-b545-404a-b5c5-488c157c21f2-bundle","type":"transaction","entry":[{"fullUrl":"https://madie.cms.gov/Patient/f9bc58d1-b545-404a-b5c5-488c157c21f2","resource":{"resourceType":"Patient","id":"f9bc58d1-b545-404a-b5c5-488c157c21f2","meta":{"profile":["http://hl7.org/fhir/us/qicore/StructureDefinition/qicore-patient"]},"text":{"status":"generated","div":"<div xmlns=\"http://www.w3.org/1999/xhtml\"><div class=\"hapiHeaderText\">IPPPopStrat2Fail <b>IPPPOPSTRAT2FAIL </b></div><table class=\"hapiPropertyTable\"><tbody><tr><td>Identifier</td><td>013c53416b50921b59196c4457937265</td></tr><tr><td>Date of birth</td><td><span>04 June 1986</span></td></tr></tbody></table></div>"},"extension":[{"url":"http://hl7.org/fhir/us/core/StructureDefinition/us-core-race","extension":[{"url":"ombCategory","valueCoding":{"system":"urn:oid:2.16.840.1.113883.6.238","code":"2054-5","display":"Black or African American","userSelected":true}},{"url":"text","valueString":"Black or African American"}]},{"url":"http://hl7.org/fhir/us/core/StructureDefinition/us-core-ethnicity","extension":[{"url":"ombCategory","valueCoding":{"system":"urn:oid:2.16.840.1.113883.6.238","code":"2186-5","display":"Not Hispanic or Latino","userSelected":true}},{"url":"text","valueString":"Not Hispanic or Latino"}]}],"identifier":[{"type":{"coding":[{"system":"http://terminology.hl7.org/CodeSystem/v2-0203","code":"MR"}]},"system":"https://bonnie-fhir.healthit.gov/","value":"630307c10968f80122477841"}],"active":true,"name":[{"use":"usual","family":"IPPPopStrat2Fail","given":["EncounterBeforeStartofMajorDepression"]}],"gender":"female","birthDate":"1987-06-04"},"request":{"method":"PUT","url":"Patient/f9bc58d1-b545-404a-b5c5-488c157c21f2"}},{"fullUrl":"https://madie.cms.gov/Encounter/5ca3bd2bb848462a120f9dbf","resource":{"resourceType":"Encounter","id":"2c748239-5de8-45d9-8e9a-5b99bc93bfdb","status":"finished","class":{"system":"http://www.ama-assn.org/go/cpt","code":"90791","display":"Psychiatric diagnostic evaluation","userSelected":true},"type":[{"coding":[{"system":"http://www.ama-assn.org/go/cpt","code":"90791"}]}],"subject":{"reference":"Patient/f9bc58d1-b545-404a-b5c5-488c157c21f2"},"period":{"start":"2012-02-05T14:30:00+00:00","end":"2012-02-05T14:50:00+00:00"},"length":{"value":0,"unit":"days"}},"request":{"method":"PUT","url":"Encounter/2c748239-5de8-45d9-8e9a-5b99bc93bfdb"}},{"fullUrl":"https://madie.cms.gov/Observation/5ca3bd2bb848462a120f9dc0","resource":{"resourceType":"Observation","id":"a3ea1d2f-3cef-48ae-aa09-a95a3886dc18","status":"final","code":{"coding":[{"system":"http://loinc.org","code":"44261-6"}]},"subject":{"reference":"Patient/f9bc58d1-b545-404a-b5c5-488c157c21f2"},"effectiveDateTime":"2012-02-05T14:30:00+00:00","valueInteger":11},"request":{"method":"PUT","url":"Observation/a3ea1d2f-3cef-48ae-aa09-a95a3886dc18"}},{"fullUrl":"https://madie.cms.gov/Observation/5ca3bd2bb848462a120f9dc2","resource":{"resourceType":"Observation","id":"14b2e23d-85b0-44c7-ba18-4fc71dd69e0b","status":"final","code":{"coding":[{"system":"http://loinc.org","code":"44261-6"}]},"subject":{"reference":"Patient/f9bc58d1-b545-404a-b5c5-488c157c21f2"},"effectiveDateTime":"2013-01-06T14:30:00+00:00","valueInteger":4},"request":{"method":"PUT","url":"Observation/14b2e23d-85b0-44c7-ba18-4fc71dd69e0b"}},{"fullUrl":"https://madie.cms.gov/Condition/5ca3bd2bb848462a120f9dbe","resource":{"resourceType":"Condition","id":"98faa6e3-e4d6-44c7-81ef-40d81413013d","clinicalStatus":{"coding":[{"system":"http://terminology.hl7.org/CodeSystem/condition-clinical","code":"active","display":"active","userSelected":true}]},"code":{"coding":[{"system":"http://snomed.info/sct","version":"http://snomed.info/sct/731000124108/version/20240301","code":"268621008","display":"Recurrent major depression (disorder)"}]},"subject":{"reference":"Patient/f9bc58d1-b545-404a-b5c5-488c157c21f2"},"onsetPeriod":{"start":"2012-02-06T17:00:00+00:00"}},"request":{"method":"PUT","url":"Condition/98faa6e3-e4d6-44c7-81ef-40d81413013d"}},{"fullUrl":"https://madie.cms.gov/MeasureReport/da564eb8-c28f-486e-aae8-29bfa1448eb7","resource":{"resourceType":"MeasureReport","id":"da564eb8-c28f-486e-aae8-29bfa1448eb7","meta":{"profile":["http://hl7.org/fhir/us/cqfmeasures/StructureDefinition/test-case-cqfm"]},"contained":[{"resourceType":"Parameters","id":"bc68b5d6-df14-4a27-a20a-461dc17ced8d-parameters","parameter":[{"name":"subject","valueString":"f9bc58d1-b545-404a-b5c5-488c157c21f2"}]}],"extension":[{"url":"http://hl7.org/fhir/us/cqfmeasures/StructureDefinition/cqfm-inputParameters","valueReference":{"reference":"#bc68b5d6-df14-4a27-a20a-461dc17ced8d-parameters"}},{"url":"http://hl7.org/fhir/us/cqfmeasures/StructureDefinition/cqfm-testCaseDescription","valueMarkdown":"Patient is 26 and had office visit with PHQ9>9 that occurred before start of a major depression diagnosis. Patient should not be in initial population."}],"modifierExtension":[{"url":"http://hl7.org/fhir/us/cqfmeasures/StructureDefinition/cqfm-isTestCase","valueBoolean":true}],"status":"complete","type":"individual","measure":"https://madie.cms.gov/Measure/DepressionRemissionatTwelveMonthsFHIR","period":{"start":"2025-01-01","end":"2025-12-31"},"group":[{"population":[{"code":{"coding":[{"system":"http://terminology.hl7.org/CodeSystem/measure-population","code":"initial-population","display":"Initial Population"}]},"count":0},{"code":{"coding":[{"system":"http://terminology.hl7.org/CodeSystem/measure-population","code":"denominator","display":"Denominator"}]},"count":0},{"code":{"coding":[{"system":"http://terminology.hl7.org/CodeSystem/measure-population","code":"denominator-exclusion","display":"Denominator Exclusion"}]},"count":0},{"code":{"coding":[{"system":"http://terminology.hl7.org/CodeSystem/measure-population","code":"numerator","display":"Numerator"}]},"count":0}]}]},"request":{"method":"PUT","url":"MeasureReport/da564eb8-c28f-486e-aae8-29bfa1448eb7"}}]}