{"resourceType":"Bundle","id":"tests-3650cd70-613a-445f-a924-534a05a5a5c0-bundle","type":"transaction","entry":[{"fullUrl":"https://madie.cms.gov/Patient/3650cd70-613a-445f-a924-534a05a5a5c0","resource":{"resourceType":"Patient","id":"3650cd70-613a-445f-a924-534a05a5a5c0","meta":{"profile":["http://hl7.org/fhir/us/qicore/StructureDefinition/qicore-patient"]},"extension":[{"url":"http://hl7.org/fhir/us/core/StructureDefinition/us-core-race","extension":[{"url":"ombCategory","valueCoding":{"system":"urn:oid:2.16.840.1.113883.6.238","code":"2106-3","display":"White"}},{"url":"text","valueString":"White"}]},{"url":"http://hl7.org/fhir/us/core/StructureDefinition/us-core-ethnicity","extension":[{"url":"ombCategory","valueCoding":{"system":"urn:oid:2.16.840.1.113883.6.238","code":"2186-5","display":"Not Hispanic or Latino"}},{"url":"text","valueString":"Not Hispanic or Latino"}]}],"identifier":[{"type":{"coding":[{"system":"http://terminology.hl7.org/CodeSystem/v2-0203","code":"MR"}]},"system":"https://bonnie-fhir.healthit.gov/","value":"630307cd0968f801224786f4"}],"name":[{"family":"DENOMPopStrat1Pass","given":["SecondAssessmentStatusUnknown"]}],"gender":"female","birthDate":"2010-01-01"},"request":{"method":"PUT","url":"Patient/3650cd70-613a-445f-a924-534a05a5a5c0"}},{"fullUrl":"https://madie.cms.gov/Encounter/846816468613163156","resource":{"resourceType":"Encounter","id":"4286b391-95a0-49ff-8987-cd27b68d1a75","meta":{"profile":["http://hl7.org/fhir/us/qicore/StructureDefinition/qicore-encounter"]},"status":"finished","class":{"system":"http://terminology.hl7.org/CodeSystem/v3-ActCode","code":"AMB","display":"ambulatory"},"type":[{"coding":[{"system":"http://www.ama-assn.org/go/cpt","version":"2024","code":"90791"}]}],"subject":{"reference":"Patient/3650cd70-613a-445f-a924-534a05a5a5c0"},"period":{"start":"2024-02-25T14:30:00+00:00","end":"2024-02-25T14:50:00+00:00"},"length":{"value":0,"unit":"days"}},"request":{"method":"PUT","url":"Encounter/4286b391-95a0-49ff-8987-cd27b68d1a75"}},{"fullUrl":"https://madie.cms.gov/Observation/98778613516461352131315","resource":{"resourceType":"Observation","id":"7fab4812-f4ed-4d3e-b9c8-139223810b94","meta":{"profile":["http://hl7.org/fhir/us/qicore/StructureDefinition/qicore-observation"]},"status":"final","category":[{"coding":[{"system":"http://terminology.hl7.org/CodeSystem/observation-category","code":"survey","display":"Survey"}]}],"code":{"coding":[{"system":"http://loinc.org","version":"2.76","code":"44261-6"}]},"subject":{"reference":"Patient/3650cd70-613a-445f-a924-534a05a5a5c0"},"effectiveDateTime":"2024-02-25T14:35:00+00:00","valueInteger":20},"request":{"method":"PUT","url":"Observation/7fab4812-f4ed-4d3e-b9c8-139223810b94"}},{"fullUrl":"https://madie.cms.gov/Observation/784651651684135131313","resource":{"resourceType":"Observation","id":"3f984992-ab43-4c6b-a564-e74c00ecee0e","meta":{"profile":["http://hl7.org/fhir/us/qicore/StructureDefinition/qicore-observation"]},"status":"unknown","category":[{"coding":[{"system":"http://terminology.hl7.org/CodeSystem/observation-category","code":"survey","display":"Survey"}]}],"code":{"coding":[{"system":"http://loinc.org","version":"2.76","code":"44261-6"}]},"subject":{"reference":"Patient/3650cd70-613a-445f-a924-534a05a5a5c0"},"effectiveDateTime":"2025-02-19T14:30:00+00:00","valueInteger":4},"request":{"method":"PUT","url":"Observation/3f984992-ab43-4c6b-a564-e74c00ecee0e"}},{"fullUrl":"https://madie.cms.gov/Condition/18961651646466486545","resource":{"resourceType":"Condition","id":"6ac66767-8359-435b-81f4-708a237e9787","meta":{"profile":["http://hl7.org/fhir/us/qicore/StructureDefinition/qicore-condition"]},"clinicalStatus":{"coding":[{"system":"http://terminology.hl7.org/CodeSystem/condition-clinical","code":"active","display":"active"}]},"verificationStatus":{"coding":[{"system":"http://terminology.hl7.org/CodeSystem/condition-ver-status","code":"confirmed"}]},"category":[{"coding":[{"system":"http://terminology.hl7.org/CodeSystem/condition-category","code":"problem-list-item","display":"Problem List Item"}]}],"code":{"coding":[{"system":"http://hl7.org/fhir/sid/icd-10-cm","version":"2024","code":"F32.9","display":"Major Depressive Disorder"}]},"subject":{"reference":"Patient/3650cd70-613a-445f-a924-534a05a5a5c0"},"onsetDateTime":"2024-02-25T14:30:00+00:00"},"request":{"method":"PUT","url":"Condition/6ac66767-8359-435b-81f4-708a237e9787"}},{"fullUrl":"https://madie.cms.gov/MeasureReport/9d0ff21d-d18e-41b9-a390-14668b00e648","resource":{"resourceType":"MeasureReport","id":"9d0ff21d-d18e-41b9-a390-14668b00e648","meta":{"profile":["http://hl7.org/fhir/us/cqfmeasures/StructureDefinition/test-case-cqfm"]},"contained":[{"resourceType":"Parameters","id":"6ddf719b-9a71-406d-907b-938a13f1d283-parameters","parameter":[{"name":"subject","valueString":"3650cd70-613a-445f-a924-534a05a5a5c0"}]}],"extension":[{"url":"http://hl7.org/fhir/us/cqfmeasures/StructureDefinition/cqfm-inputParameters","valueReference":{"reference":"#6ddf719b-9a71-406d-907b-938a13f1d283-parameters"}},{"url":"http://hl7.org/fhir/us/cqfmeasures/StructureDefinition/cqfm-testCaseDescription","valueMarkdown":"Patient is 15 and has a Major Depression diagnosis and PHQ-9>9 during the denom ID period. Had follow up assessment with no recorded timing. Patient should be in denominator for strat 2. "}],"modifierExtension":[{"url":"http://hl7.org/fhir/us/cqfmeasures/StructureDefinition/cqfm-isTestCase","valueBoolean":true}],"status":"complete","type":"individual","measure":"https://madie.cms.gov/Measure/DepressionRemissionatTwelveMonthsFHIR","period":{"start":"2025-01-01","end":"2025-12-31"},"group":[{"population":[{"code":{"coding":[{"system":"http://terminology.hl7.org/CodeSystem/measure-population","code":"initial-population","display":"Initial Population"}]},"count":1},{"code":{"coding":[{"system":"http://terminology.hl7.org/CodeSystem/measure-population","code":"denominator","display":"Denominator"}]},"count":1},{"code":{"coding":[{"system":"http://terminology.hl7.org/CodeSystem/measure-population","code":"denominator-exclusion","display":"Denominator Exclusion"}]},"count":0},{"code":{"coding":[{"system":"http://terminology.hl7.org/CodeSystem/measure-population","code":"numerator","display":"Numerator"}]},"count":0}]}]},"request":{"method":"PUT","url":"MeasureReport/9d0ff21d-d18e-41b9-a390-14668b00e648"}}]}