{"resourceType":"Bundle","id":"tests-d04323b4-e4db-4a9a-9fd1-27d1d48fc595-bundle","type":"transaction","entry":[{"fullUrl":"https://madie.cms.gov/Patient/d04323b4-e4db-4a9a-9fd1-27d1d48fc595","resource":{"resourceType":"Patient","id":"d04323b4-e4db-4a9a-9fd1-27d1d48fc595","meta":{"profile":["http://hl7.org/fhir/us/qicore/StructureDefinition/qicore-patient"]},"extension":[{"url":"http://hl7.org/fhir/us/core/StructureDefinition/us-core-race","extension":[{"url":"ombCategory","valueCoding":{"system":"urn:oid:2.16.840.1.113883.6.238","code":"2106-3","display":"White"}},{"url":"text","valueString":"White"}]},{"url":"http://hl7.org/fhir/us/core/StructureDefinition/us-core-ethnicity","extension":[{"url":"ombCategory","valueCoding":{"system":"urn:oid:2.16.840.1.113883.6.238","code":"2186-5","display":"Not Hispanic or Latino"}},{"url":"text","valueString":"Not Hispanic or Latino"}]}],"identifier":[{"type":{"coding":[{"system":"http://terminology.hl7.org/CodeSystem/v2-0203","code":"MR"}]},"system":"https://bonnie-fhir.healthit.gov/","value":"630307bd0968f80122477479"}],"name":[{"family":"IPPPopStrat2Pass","given":["Patientis18 "]}],"gender":"female","birthDate":"2007-06-24"},"request":{"method":"PUT","url":"Patient/d04323b4-e4db-4a9a-9fd1-27d1d48fc595"}},{"fullUrl":"https://madie.cms.gov/Encounter/846816468613163156","resource":{"resourceType":"Encounter","id":"feb7a6e8-45ec-4dcf-9613-4bbfb7767f14","meta":{"profile":["http://hl7.org/fhir/us/qicore/StructureDefinition/qicore-encounter"]},"status":"finished","class":{"system":"http://terminology.hl7.org/CodeSystem/v3-ActCode","code":"AMB","display":"ambulatory"},"type":[{"coding":[{"system":"http://www.ama-assn.org/go/cpt","version":"2024","code":"90791"}]}],"subject":{"reference":"Patient/d04323b4-e4db-4a9a-9fd1-27d1d48fc595"},"period":{"start":"2024-06-25T14:30:00+00:00","end":"2024-06-25T14:50:00+00:00"},"length":{"value":0,"unit":"days"}},"request":{"method":"PUT","url":"Encounter/feb7a6e8-45ec-4dcf-9613-4bbfb7767f14"}},{"fullUrl":"https://madie.cms.gov/Observation/98778613516461352131315","resource":{"resourceType":"Observation","id":"3b122a51-e353-4394-9d11-147d46452c17","meta":{"profile":["http://hl7.org/fhir/us/qicore/StructureDefinition/qicore-observation"]},"status":"final","category":[{"coding":[{"system":"http://terminology.hl7.org/CodeSystem/observation-category","code":"survey","display":"Survey"}]}],"code":{"coding":[{"system":"http://loinc.org","version":"2.76","code":"44261-6"}]},"subject":{"reference":"Patient/d04323b4-e4db-4a9a-9fd1-27d1d48fc595"},"effectiveDateTime":"2024-06-25T14:35:00+00:00","valueInteger":11},"request":{"method":"PUT","url":"Observation/3b122a51-e353-4394-9d11-147d46452c17"}},{"fullUrl":"https://madie.cms.gov/Condition/18961651646466486545","resource":{"resourceType":"Condition","id":"ac006b45-b518-4b4b-ae91-61229b373ede","meta":{"profile":["http://hl7.org/fhir/us/qicore/StructureDefinition/qicore-condition"]},"clinicalStatus":{"coding":[{"system":"http://terminology.hl7.org/CodeSystem/condition-clinical","code":"active","display":"active"}]},"verificationStatus":{"coding":[{"system":"http://terminology.hl7.org/CodeSystem/condition-ver-status","code":"confirmed"}]},"category":[{"coding":[{"system":"http://terminology.hl7.org/CodeSystem/condition-category","code":"problem-list-item","display":"Problem List Item"}]}],"code":{"coding":[{"system":"http://hl7.org/fhir/sid/icd-10-cm","version":"2024","code":"F32.9"}]},"subject":{"reference":"Patient/d04323b4-e4db-4a9a-9fd1-27d1d48fc595"},"onsetDateTime":"2024-02-25T14:35:00+00:00"},"request":{"method":"PUT","url":"Condition/ac006b45-b518-4b4b-ae91-61229b373ede"}},{"fullUrl":"https://madie.cms.gov/MeasureReport/bf0ef1e4-ea56-4373-a53a-aacdc879fbb0","resource":{"resourceType":"MeasureReport","id":"bf0ef1e4-ea56-4373-a53a-aacdc879fbb0","meta":{"profile":["http://hl7.org/fhir/us/cqfmeasures/StructureDefinition/test-case-cqfm"]},"contained":[{"resourceType":"Parameters","id":"baf80f8e-057d-4b05-9b09-ee1946766d5c-parameters","parameter":[{"name":"subject","valueString":"d04323b4-e4db-4a9a-9fd1-27d1d48fc595"}]}],"extension":[{"url":"http://hl7.org/fhir/us/cqfmeasures/StructureDefinition/cqfm-inputParameters","valueReference":{"reference":"#baf80f8e-057d-4b05-9b09-ee1946766d5c-parameters"}},{"url":"http://hl7.org/fhir/us/cqfmeasures/StructureDefinition/cqfm-testCaseDescription","valueMarkdown":"patient turns 18 one day before the index event (edge case)"}],"modifierExtension":[{"url":"http://hl7.org/fhir/us/cqfmeasures/StructureDefinition/cqfm-isTestCase","valueBoolean":true}],"status":"complete","type":"individual","measure":"https://madie.cms.gov/Measure/DepressionRemissionatTwelveMonthsFHIR","period":{"start":"2025-01-01","end":"2025-12-31"},"group":[{"population":[{"code":{"coding":[{"system":"http://terminology.hl7.org/CodeSystem/measure-population","code":"initial-population","display":"Initial Population"}]},"count":1},{"code":{"coding":[{"system":"http://terminology.hl7.org/CodeSystem/measure-population","code":"denominator","display":"Denominator"}]},"count":1},{"code":{"coding":[{"system":"http://terminology.hl7.org/CodeSystem/measure-population","code":"denominator-exclusion","display":"Denominator Exclusion"}]},"count":0},{"code":{"coding":[{"system":"http://terminology.hl7.org/CodeSystem/measure-population","code":"numerator","display":"Numerator"}]},"count":0}]}]},"request":{"method":"PUT","url":"MeasureReport/bf0ef1e4-ea56-4373-a53a-aacdc879fbb0"}}]}