{"resourceType":"Bundle","id":"tests-8467758b-18c6-4576-87cf-c2aeec2e11f9-bundle","type":"transaction","entry":[{"fullUrl":"https://madie.cms.gov/Patient/8467758b-18c6-4576-87cf-c2aeec2e11f9","resource":{"resourceType":"Patient","id":"8467758b-18c6-4576-87cf-c2aeec2e11f9","meta":{"profile":["http://hl7.org/fhir/us/qicore/StructureDefinition/qicore-patient"]},"extension":[{"url":"http://hl7.org/fhir/us/core/StructureDefinition/us-core-race","extension":[{"url":"ombCategory","valueCoding":{"system":"urn:oid:2.16.840.1.113883.6.238","code":"2106-3","display":"White"}},{"url":"text","valueString":"White"}]},{"url":"http://hl7.org/fhir/us/core/StructureDefinition/us-core-ethnicity","extension":[{"url":"ombCategory","valueCoding":{"system":"urn:oid:2.16.840.1.113883.6.238","code":"2186-5","display":"Not Hispanic or Latino"}},{"url":"text","valueString":"Not Hispanic or Latino"}]}],"identifier":[{"type":{"coding":[{"system":"http://terminology.hl7.org/CodeSystem/v2-0203","code":"MR"}]},"system":"https://bonnie-fhir.healthit.gov/","value":"630307bd0968f80122477479"}],"name":[{"family":"IPPPopStrat2Pass","given":["Patientis18 "]}],"gender":"female","birthDate":"2012-06-24"},"request":{"method":"PUT","url":"Patient/8467758b-18c6-4576-87cf-c2aeec2e11f9"}},{"fullUrl":"https://madie.cms.gov/Encounter/846816468613163156","resource":{"resourceType":"Encounter","id":"b622dee0-c693-48b5-ab8c-2591049d3cd5","meta":{"profile":["http://hl7.org/fhir/us/qicore/StructureDefinition/qicore-encounter"]},"status":"finished","class":{"system":"http://terminology.hl7.org/CodeSystem/v3-ActCode","code":"AMB","display":"ambulatory"},"type":[{"coding":[{"system":"http://www.ama-assn.org/go/cpt","version":"2024","code":"90791"}]}],"subject":{"reference":"Patient/8467758b-18c6-4576-87cf-c2aeec2e11f9"},"period":{"start":"2024-06-25T14:30:00+00:00","end":"2024-06-25T14:50:00+00:00"},"length":{"value":0,"unit":"days"}},"request":{"method":"PUT","url":"Encounter/b622dee0-c693-48b5-ab8c-2591049d3cd5"}},{"fullUrl":"https://madie.cms.gov/Observation/98778613516461352131315","resource":{"resourceType":"Observation","id":"126c7fe3-6712-4ea7-a74f-9e7d54e65405","meta":{"profile":["http://hl7.org/fhir/us/qicore/StructureDefinition/qicore-observation"]},"status":"final","category":[{"coding":[{"system":"http://terminology.hl7.org/CodeSystem/observation-category","code":"survey","display":"Survey"}]}],"code":{"coding":[{"system":"http://loinc.org","version":"2.76","code":"44261-6"}]},"subject":{"reference":"Patient/8467758b-18c6-4576-87cf-c2aeec2e11f9"},"effectiveDateTime":"2024-06-25T14:35:00+00:00","valueInteger":11},"request":{"method":"PUT","url":"Observation/126c7fe3-6712-4ea7-a74f-9e7d54e65405"}},{"fullUrl":"https://madie.cms.gov/Condition/18961651646466486545","resource":{"resourceType":"Condition","id":"4e8c9f49-4ec0-491b-b659-4f504eaabfa6","meta":{"profile":["http://hl7.org/fhir/us/qicore/StructureDefinition/qicore-condition"]},"clinicalStatus":{"coding":[{"system":"http://terminology.hl7.org/CodeSystem/condition-clinical","code":"active","display":"active"}]},"verificationStatus":{"coding":[{"system":"http://terminology.hl7.org/CodeSystem/condition-ver-status","code":"confirmed"}]},"category":[{"coding":[{"system":"http://terminology.hl7.org/CodeSystem/condition-category","code":"problem-list-item","display":"Problem List Item"}]}],"code":{"coding":[{"system":"http://hl7.org/fhir/sid/icd-10-cm","version":"2024","code":"F32.9"}]},"subject":{"reference":"Patient/8467758b-18c6-4576-87cf-c2aeec2e11f9"},"onsetDateTime":"2024-02-25T14:35:00+00:00"},"request":{"method":"PUT","url":"Condition/4e8c9f49-4ec0-491b-b659-4f504eaabfa6"}},{"fullUrl":"https://madie.cms.gov/MeasureReport/9f9b4896-6d54-4867-848a-bf64052a545d","resource":{"resourceType":"MeasureReport","id":"9f9b4896-6d54-4867-848a-bf64052a545d","meta":{"profile":["http://hl7.org/fhir/us/cqfmeasures/StructureDefinition/test-case-cqfm"]},"contained":[{"resourceType":"Parameters","id":"7bb523e2-aa14-4d56-9159-b9747512847c-parameters","parameter":[{"name":"subject","valueString":"8467758b-18c6-4576-87cf-c2aeec2e11f9"}]}],"extension":[{"url":"http://hl7.org/fhir/us/cqfmeasures/StructureDefinition/cqfm-inputParameters","valueReference":{"reference":"#7bb523e2-aa14-4d56-9159-b9747512847c-parameters"}},{"url":"http://hl7.org/fhir/us/cqfmeasures/StructureDefinition/cqfm-testCaseDescription","valueMarkdown":"patient turns 12 one day before the index event (edge case)"}],"modifierExtension":[{"url":"http://hl7.org/fhir/us/cqfmeasures/StructureDefinition/cqfm-isTestCase","valueBoolean":true}],"status":"complete","type":"individual","measure":"https://madie.cms.gov/Measure/DepressionRemissionatTwelveMonthsFHIR","period":{"start":"2025-01-01","end":"2025-12-31"},"group":[{"population":[{"code":{"coding":[{"system":"http://terminology.hl7.org/CodeSystem/measure-population","code":"initial-population","display":"Initial Population"}]},"count":1},{"code":{"coding":[{"system":"http://terminology.hl7.org/CodeSystem/measure-population","code":"denominator","display":"Denominator"}]},"count":1},{"code":{"coding":[{"system":"http://terminology.hl7.org/CodeSystem/measure-population","code":"denominator-exclusion","display":"Denominator Exclusion"}]},"count":0},{"code":{"coding":[{"system":"http://terminology.hl7.org/CodeSystem/measure-population","code":"numerator","display":"Numerator"}]},"count":0}]}]},"request":{"method":"PUT","url":"MeasureReport/9f9b4896-6d54-4867-848a-bf64052a545d"}}]}