{"resourceType":"Bundle","id":"tests-702deaa2-e038-4ed9-a804-de9e524a2498-bundle","type":"transaction","entry":[{"fullUrl":"https://madie.cms.gov/Patient/702deaa2-e038-4ed9-a804-de9e524a2498","resource":{"resourceType":"Patient","id":"702deaa2-e038-4ed9-a804-de9e524a2498","meta":{"profile":["http://hl7.org/fhir/us/qicore/StructureDefinition/qicore-patient"]},"extension":[{"url":"http://hl7.org/fhir/us/core/StructureDefinition/us-core-race","extension":[{"url":"ombCategory","valueCoding":{"system":"urn:oid:2.16.840.1.113883.6.238","code":"2106-3","display":"White"}},{"url":"text","valueString":"White"}]},{"url":"http://hl7.org/fhir/us/core/StructureDefinition/us-core-ethnicity","extension":[{"url":"ombCategory","valueCoding":{"system":"urn:oid:2.16.840.1.113883.6.238","code":"2186-5","display":"Not Hispanic or Latino"}},{"url":"text","valueString":"Not Hispanic or Latino"}]}],"identifier":[{"type":{"coding":[{"system":"http://terminology.hl7.org/CodeSystem/v2-0203","code":"MR"}]},"system":"https://bonnie-fhir.healthit.gov/","value":"784135168461351653513"}],"name":[{"family":"DENEXPopStrat2Fail","given":["PtExpiredAfterMeasurementPeriod"]}],"gender":"male","birthDate":"1980-06-06","deceasedDateTime":"2026-01-01T08:00:00.000Z"},"request":{"method":"PUT","url":"Patient/702deaa2-e038-4ed9-a804-de9e524a2498"}},{"fullUrl":"https://madie.cms.gov/Encounter/846816468613163156","resource":{"resourceType":"Encounter","id":"49e1d134-1362-4048-930a-8f107731e85b","meta":{"profile":["http://hl7.org/fhir/us/qicore/StructureDefinition/qicore-encounter"]},"status":"finished","class":{"system":"http://www.ama-assn.org/go/cpt","version":"2024","code":"99205","display":"Office or other outpatient visit for the evaluation and management of a new patient, which requires a medically appropriate history and/or examination and high level of medical decision making. When using time for code selection, 60-74 minutes of total time is spent on the date of the encounter."},"type":[{"coding":[{"system":"http://www.ama-assn.org/go/cpt","version":"2024","code":"90791"}]}],"subject":{"reference":"Patient/702deaa2-e038-4ed9-a804-de9e524a2498"},"period":{"start":"2024-10-31T14:35:00+00:00","end":"2024-10-31T14:45:00+00:00"},"length":{"value":0,"unit":"days"}},"request":{"method":"PUT","url":"Encounter/49e1d134-1362-4048-930a-8f107731e85b"}},{"fullUrl":"https://madie.cms.gov/Observation/98778613516461352131315","resource":{"resourceType":"Observation","id":"e55df5ac-2d2b-43fd-94f1-3378b19fd7ef","meta":{"profile":["http://hl7.org/fhir/us/qicore/StructureDefinition/qicore-observation"]},"status":"final","category":[{"coding":[{"system":"http://terminology.hl7.org/CodeSystem/observation-category","code":"survey","display":"Survey"}]}],"code":{"coding":[{"system":"http://loinc.org","version":"2.76","code":"44261-6"}]},"subject":{"reference":"Patient/702deaa2-e038-4ed9-a804-de9e524a2498"},"effectiveDateTime":"2024-10-31T14:35:00+00:00","valueInteger":10},"request":{"method":"PUT","url":"Observation/e55df5ac-2d2b-43fd-94f1-3378b19fd7ef"}},{"fullUrl":"https://madie.cms.gov/Condition/18961651646466486545","resource":{"resourceType":"Condition","id":"b774c767-c8bc-4cb8-b230-b02fcf21cc07","meta":{"profile":["http://hl7.org/fhir/us/qicore/StructureDefinition/qicore-condition"]},"clinicalStatus":{"coding":[{"system":"http://terminology.hl7.org/CodeSystem/condition-clinical","code":"active","display":"active"}]},"verificationStatus":{"coding":[{"system":"http://terminology.hl7.org/CodeSystem/condition-ver-status","code":"confirmed"}]},"category":[{"coding":[{"system":"http://terminology.hl7.org/CodeSystem/condition-category","code":"problem-list-item","display":"Problem List Item"}]}],"code":{"coding":[{"system":"http://snomed.info/sct","version":"http://snomed.info/sct/731000124108/version/20240301","code":"191611001"}]},"subject":{"reference":"Patient/702deaa2-e038-4ed9-a804-de9e524a2498"},"onsetDateTime":"2022-10-22T14:35:00+00:00"},"request":{"method":"PUT","url":"Condition/b774c767-c8bc-4cb8-b230-b02fcf21cc07"}},{"fullUrl":"https://madie.cms.gov/MeasureReport/db578d05-c48a-4819-b149-9fa17daaf0c3","resource":{"resourceType":"MeasureReport","id":"db578d05-c48a-4819-b149-9fa17daaf0c3","meta":{"profile":["http://hl7.org/fhir/us/cqfmeasures/StructureDefinition/test-case-cqfm"]},"contained":[{"resourceType":"Parameters","id":"9066231c-0ebd-4d80-9ca9-9e0ab4852442-parameters","parameter":[{"name":"subject","valueString":"702deaa2-e038-4ed9-a804-de9e524a2498"}]}],"extension":[{"url":"http://hl7.org/fhir/us/cqfmeasures/StructureDefinition/cqfm-inputParameters","valueReference":{"reference":"#9066231c-0ebd-4d80-9ca9-9e0ab4852442-parameters"}},{"url":"http://hl7.org/fhir/us/cqfmeasures/StructureDefinition/cqfm-testCaseDescription","valueMarkdown":"Patient is 44 years old, has a Major Depression Dx, and PHQ-9>9 during the denom ID period. Patient had follow-up PHQ-9<5 during MAP. Patient expired after end of MP. Should be in numerator for Strat 2. "}],"modifierExtension":[{"url":"http://hl7.org/fhir/us/cqfmeasures/StructureDefinition/cqfm-isTestCase","valueBoolean":true}],"status":"complete","type":"individual","measure":"https://madie.cms.gov/Measure/DepressionRemissionatTwelveMonthsFHIR","period":{"start":"2025-01-01","end":"2025-12-31"},"group":[{"population":[{"code":{"coding":[{"system":"http://terminology.hl7.org/CodeSystem/measure-population","code":"initial-population","display":"Initial Population"}]},"count":1},{"code":{"coding":[{"system":"http://terminology.hl7.org/CodeSystem/measure-population","code":"denominator","display":"Denominator"}]},"count":1},{"code":{"coding":[{"system":"http://terminology.hl7.org/CodeSystem/measure-population","code":"denominator-exclusion","display":"Denominator Exclusion"}]},"count":0},{"code":{"coding":[{"system":"http://terminology.hl7.org/CodeSystem/measure-population","code":"numerator","display":"Numerator"}]},"count":0}]}]},"request":{"method":"PUT","url":"MeasureReport/db578d05-c48a-4819-b149-9fa17daaf0c3"}}]}