{"resourceType":"Bundle","id":"tests-3892ef89-5feb-4ca3-b7c6-d47e5c12c65b-bundle","type":"transaction","entry":[{"fullUrl":"https://madie.cms.gov/Patient/3892ef89-5feb-4ca3-b7c6-d47e5c12c65b","resource":{"resourceType":"Patient","id":"3892ef89-5feb-4ca3-b7c6-d47e5c12c65b","meta":{"profile":["http://hl7.org/fhir/us/qicore/StructureDefinition/qicore-patient"]},"extension":[{"url":"http://hl7.org/fhir/us/core/StructureDefinition/us-core-race","extension":[{"url":"ombCategory","valueCoding":{"system":"urn:oid:2.16.840.1.113883.6.238","code":"2106-3","display":"White"}},{"url":"text","valueString":"White"}]},{"url":"http://hl7.org/fhir/us/core/StructureDefinition/us-core-ethnicity","extension":[{"url":"ombCategory","valueCoding":{"system":"urn:oid:2.16.840.1.113883.6.238","code":"2186-5","display":"Not Hispanic or Latino"}},{"url":"text","valueString":"Not Hispanic or Latino"}]}],"identifier":[{"type":{"coding":[{"system":"http://terminology.hl7.org/CodeSystem/v2-0203","code":"MR"}]},"system":"https://bonnie-fhir.healthit.gov/","value":"630307cc0968f8012247857e"}],"name":[{"family":"NUMERPopStrat2Pass","given":["AssessmentWithin7DaysofEncounter"]}],"gender":"female","birthDate":"1970-01-01"},"request":{"method":"PUT","url":"Patient/3892ef89-5feb-4ca3-b7c6-d47e5c12c65b"}},{"fullUrl":"https://madie.cms.gov/Encounter/846816468613163156","resource":{"resourceType":"Encounter","id":"8c8a892f-8bac-4046-b7a3-9bde803645d2","meta":{"profile":["http://hl7.org/fhir/us/qicore/StructureDefinition/qicore-encounter"]},"status":"finished","class":{"system":"http://terminology.hl7.org/CodeSystem/v3-ActCode","code":"AMB","display":"ambulatory"},"type":[{"coding":[{"system":"http://www.ama-assn.org/go/cpt","version":"2024","code":"90791"}]}],"subject":{"reference":"Patient/3892ef89-5feb-4ca3-b7c6-d47e5c12c65b"},"period":{"start":"2024-02-25T14:30:00+00:00","end":"2024-02-25T14:50:00+00:00"},"length":{"value":0,"unit":"days"}},"request":{"method":"PUT","url":"Encounter/8c8a892f-8bac-4046-b7a3-9bde803645d2"}},{"fullUrl":"https://madie.cms.gov/Observation/98778613516461352131315","resource":{"resourceType":"Observation","id":"3b5f0f16-ed73-48d1-ab5c-39661cf6def1","meta":{"profile":["http://hl7.org/fhir/us/qicore/StructureDefinition/qicore-observation"]},"status":"final","category":[{"coding":[{"system":"http://terminology.hl7.org/CodeSystem/observation-category","code":"survey","display":"Survey"}]}],"code":{"coding":[{"system":"http://loinc.org","version":"2.76","code":"44261-6"}]},"subject":{"reference":"Patient/3892ef89-5feb-4ca3-b7c6-d47e5c12c65b"},"effectiveDateTime":"2024-02-20T14:35:00+00:00","valueInteger":10},"request":{"method":"PUT","url":"Observation/3b5f0f16-ed73-48d1-ab5c-39661cf6def1"}},{"fullUrl":"https://madie.cms.gov/Observation/784651651684135131313","resource":{"resourceType":"Observation","id":"69c74248-2813-4594-a16d-7c58057159a8","meta":{"profile":["http://hl7.org/fhir/us/qicore/StructureDefinition/qicore-observation"]},"status":"final","category":[{"coding":[{"system":"http://terminology.hl7.org/CodeSystem/observation-category","code":"survey","display":"Survey"}]}],"code":{"coding":[{"system":"http://loinc.org","version":"2.76","code":"44261-6"}]},"subject":{"reference":"Patient/3892ef89-5feb-4ca3-b7c6-d47e5c12c65b"},"effectiveDateTime":"2025-02-19T14:30:00+00:00","valueInteger":3},"request":{"method":"PUT","url":"Observation/69c74248-2813-4594-a16d-7c58057159a8"}},{"fullUrl":"https://madie.cms.gov/Condition/18961651646466486545","resource":{"resourceType":"Condition","id":"c23d9863-4c08-4c01-ad56-769dcc576ef5","meta":{"profile":["http://hl7.org/fhir/us/qicore/StructureDefinition/qicore-condition"]},"clinicalStatus":{"coding":[{"system":"http://terminology.hl7.org/CodeSystem/condition-clinical","code":"active","display":"active"}]},"verificationStatus":{"coding":[{"system":"http://terminology.hl7.org/CodeSystem/condition-ver-status","code":"confirmed"}]},"category":[{"coding":[{"system":"http://terminology.hl7.org/CodeSystem/condition-category","code":"problem-list-item","display":"Problem List Item"}]}],"code":{"coding":[{"system":"http://hl7.org/fhir/sid/icd-10-cm","version":"2024","code":"F32.9","display":"Major Depressive Disorder"}]},"subject":{"reference":"Patient/3892ef89-5feb-4ca3-b7c6-d47e5c12c65b"},"onsetDateTime":"2024-02-25T14:35:00+00:00"},"request":{"method":"PUT","url":"Condition/c23d9863-4c08-4c01-ad56-769dcc576ef5"}},{"fullUrl":"https://madie.cms.gov/MeasureReport/9d25ae9f-02a0-4f64-8757-eaf50204cbe3","resource":{"resourceType":"MeasureReport","id":"9d25ae9f-02a0-4f64-8757-eaf50204cbe3","meta":{"profile":["http://hl7.org/fhir/us/cqfmeasures/StructureDefinition/test-case-cqfm"]},"contained":[{"resourceType":"Parameters","id":"90f57e6a-ce46-4741-a9f2-826bd5fb65ba-parameters","parameter":[{"name":"subject","valueString":"3892ef89-5feb-4ca3-b7c6-d47e5c12c65b"}]}],"extension":[{"url":"http://hl7.org/fhir/us/cqfmeasures/StructureDefinition/cqfm-inputParameters","valueReference":{"reference":"#90f57e6a-ce46-4741-a9f2-826bd5fb65ba-parameters"}},{"url":"http://hl7.org/fhir/us/cqfmeasures/StructureDefinition/cqfm-testCaseDescription","valueMarkdown":"Patients has a PHQ-9>9 and a Major Depression diagnosis during the denom ID period. Assessment occurs within 7 day window of encounter. Patient has PHQ-9<5 during MAP. Patient should be in numerator for strat 2."}],"modifierExtension":[{"url":"http://hl7.org/fhir/us/cqfmeasures/StructureDefinition/cqfm-isTestCase","valueBoolean":true}],"status":"complete","type":"individual","measure":"https://madie.cms.gov/Measure/DepressionRemissionatTwelveMonthsFHIR","period":{"start":"2025-01-01","end":"2025-12-31"},"group":[{"population":[{"code":{"coding":[{"system":"http://terminology.hl7.org/CodeSystem/measure-population","code":"initial-population","display":"Initial Population"}]},"count":1},{"code":{"coding":[{"system":"http://terminology.hl7.org/CodeSystem/measure-population","code":"denominator","display":"Denominator"}]},"count":1},{"code":{"coding":[{"system":"http://terminology.hl7.org/CodeSystem/measure-population","code":"denominator-exclusion","display":"Denominator Exclusion"}]},"count":0},{"code":{"coding":[{"system":"http://terminology.hl7.org/CodeSystem/measure-population","code":"numerator","display":"Numerator"}]},"count":1}]}]},"request":{"method":"PUT","url":"MeasureReport/9d25ae9f-02a0-4f64-8757-eaf50204cbe3"}}]}