{"resourceType":"Bundle","id":"tests-9879bf57-839e-485e-abf6-51c93a7e31ab-bundle","type":"transaction","entry":[{"fullUrl":"https://madie.cms.gov/Patient/9879bf57-839e-485e-abf6-51c93a7e31ab","resource":{"resourceType":"Patient","id":"9879bf57-839e-485e-abf6-51c93a7e31ab","meta":{"profile":["http://hl7.org/fhir/us/qicore/StructureDefinition/qicore-patient"]},"extension":[{"url":"http://hl7.org/fhir/us/core/StructureDefinition/us-core-race","extension":[{"url":"ombCategory","valueCoding":{"system":"urn:oid:2.16.840.1.113883.6.238","code":"2106-3","display":"White"}},{"url":"text","valueString":"White"}]},{"url":"http://hl7.org/fhir/us/core/StructureDefinition/us-core-ethnicity","extension":[{"url":"ombCategory","valueCoding":{"system":"urn:oid:2.16.840.1.113883.6.238","code":"2186-5","display":"Not Hispanic or Latino"}},{"url":"text","valueString":"Not Hispanic or Latino"}]}],"identifier":[{"type":{"coding":[{"system":"http://terminology.hl7.org/CodeSystem/v2-0203","code":"MR"}]},"system":"https://bonnie-fhir.healthit.gov/","value":"630307cd0968f801224786f4"}],"name":[{"family":"DENOMPopStrat2Pass","given":["NoFUAssess"]}],"gender":"female","birthDate":"1945-01-01"},"request":{"method":"PUT","url":"Patient/9879bf57-839e-485e-abf6-51c93a7e31ab"}},{"fullUrl":"https://madie.cms.gov/Encounter/846816468613163156","resource":{"resourceType":"Encounter","id":"356e8254-b428-46f7-8626-f95a28e81f40","meta":{"profile":["http://hl7.org/fhir/us/qicore/StructureDefinition/qicore-encounter"]},"status":"finished","class":{"system":"http://terminology.hl7.org/CodeSystem/v3-ActCode","code":"AMB","display":"ambulatory"},"type":[{"coding":[{"system":"http://www.ama-assn.org/go/cpt","version":"2024","code":"90791"}]}],"subject":{"reference":"Patient/9879bf57-839e-485e-abf6-51c93a7e31ab"},"period":{"start":"2024-02-25T14:30:00+00:00","end":"2024-02-25T14:50:00+00:00"},"length":{"value":0,"unit":"days"}},"request":{"method":"PUT","url":"Encounter/356e8254-b428-46f7-8626-f95a28e81f40"}},{"fullUrl":"https://madie.cms.gov/Observation/98778613516461352131315","resource":{"resourceType":"Observation","id":"4e202dea-d0eb-4d7f-9de2-0a2b7f7f0e14","meta":{"profile":["http://hl7.org/fhir/us/qicore/StructureDefinition/qicore-observation"]},"status":"final","category":[{"coding":[{"system":"http://terminology.hl7.org/CodeSystem/observation-category","code":"survey","display":"Survey"}]}],"code":{"coding":[{"system":"http://loinc.org","version":"2.76","code":"44261-6"}]},"subject":{"reference":"Patient/9879bf57-839e-485e-abf6-51c93a7e31ab"},"effectiveDateTime":"2024-02-25T14:35:00+00:00","valueInteger":20},"request":{"method":"PUT","url":"Observation/4e202dea-d0eb-4d7f-9de2-0a2b7f7f0e14"}},{"fullUrl":"https://madie.cms.gov/Condition/18961651646466486545","resource":{"resourceType":"Condition","id":"446feb1b-b740-44ce-8292-f8a336cb6eae","meta":{"profile":["http://hl7.org/fhir/us/qicore/StructureDefinition/qicore-condition"]},"clinicalStatus":{"coding":[{"system":"http://terminology.hl7.org/CodeSystem/condition-clinical","code":"active","display":"active"}]},"verificationStatus":{"coding":[{"system":"http://terminology.hl7.org/CodeSystem/condition-ver-status","code":"confirmed"}]},"category":[{"coding":[{"system":"http://terminology.hl7.org/CodeSystem/condition-category","code":"problem-list-item","display":"Problem List Item"}]}],"code":{"coding":[{"system":"http://hl7.org/fhir/sid/icd-10-cm","version":"2024","code":"F32.9"}]},"subject":{"reference":"Patient/9879bf57-839e-485e-abf6-51c93a7e31ab"},"onsetDateTime":"2024-02-25T14:30:00+00:00"},"request":{"method":"PUT","url":"Condition/446feb1b-b740-44ce-8292-f8a336cb6eae"}},{"fullUrl":"https://madie.cms.gov/MeasureReport/10e44c55-218e-434e-8d3d-ec3970c649cb","resource":{"resourceType":"MeasureReport","id":"10e44c55-218e-434e-8d3d-ec3970c649cb","meta":{"profile":["http://hl7.org/fhir/us/cqfmeasures/StructureDefinition/test-case-cqfm"]},"contained":[{"resourceType":"Parameters","id":"3ee535e4-bc06-4eb5-b594-852277fb4664-parameters","parameter":[{"name":"subject","valueString":"9879bf57-839e-485e-abf6-51c93a7e31ab"}]}],"extension":[{"url":"http://hl7.org/fhir/us/cqfmeasures/StructureDefinition/cqfm-inputParameters","valueReference":{"reference":"#3ee535e4-bc06-4eb5-b594-852277fb4664-parameters"}},{"url":"http://hl7.org/fhir/us/cqfmeasures/StructureDefinition/cqfm-testCaseDescription","valueMarkdown":"Patient has a Major Depression diagnosis and PHQ-9>9 during the denom ID period. Patient had no follow up assessment before end of MAP. Patient should be in denominator for strat 2.  Note: Stratification issue."}],"modifierExtension":[{"url":"http://hl7.org/fhir/us/cqfmeasures/StructureDefinition/cqfm-isTestCase","valueBoolean":true}],"status":"complete","type":"individual","measure":"https://madie.cms.gov/Measure/DepressionRemissionatTwelveMonthsFHIR","period":{"start":"2025-01-01","end":"2025-12-31"},"group":[{"population":[{"code":{"coding":[{"system":"http://terminology.hl7.org/CodeSystem/measure-population","code":"initial-population","display":"Initial Population"}]},"count":1},{"code":{"coding":[{"system":"http://terminology.hl7.org/CodeSystem/measure-population","code":"denominator","display":"Denominator"}]},"count":1},{"code":{"coding":[{"system":"http://terminology.hl7.org/CodeSystem/measure-population","code":"denominator-exclusion","display":"Denominator Exclusion"}]},"count":0},{"code":{"coding":[{"system":"http://terminology.hl7.org/CodeSystem/measure-population","code":"numerator","display":"Numerator"}]},"count":0}]}]},"request":{"method":"PUT","url":"MeasureReport/10e44c55-218e-434e-8d3d-ec3970c649cb"}}]}