{"resourceType":"Bundle","id":"tests-3776140d-948a-4126-908a-6a95af1d80fa-bundle","type":"transaction","entry":[{"fullUrl":"https://madie.cms.gov/Patient/3776140d-948a-4126-908a-6a95af1d80fa","resource":{"resourceType":"Patient","id":"3776140d-948a-4126-908a-6a95af1d80fa","meta":{"profile":["http://hl7.org/fhir/us/qicore/StructureDefinition/qicore-patient"]},"extension":[{"url":"http://hl7.org/fhir/us/core/StructureDefinition/us-core-race","extension":[{"url":"ombCategory","valueCoding":{"system":"urn:oid:2.16.840.1.113883.6.238","code":"2106-3","display":"White"}},{"url":"text","valueString":"White"}]},{"url":"http://hl7.org/fhir/us/core/StructureDefinition/us-core-ethnicity","extension":[{"url":"ombCategory","valueCoding":{"system":"urn:oid:2.16.840.1.113883.6.238","code":"2186-5","display":"Not Hispanic or Latino"}},{"url":"text","valueString":"Not Hispanic or Latino"}]}],"identifier":[{"type":{"coding":[{"system":"http://terminology.hl7.org/CodeSystem/v2-0203","code":"MR"}]},"system":"https://bonnie-fhir.healthit.gov/","value":"630307be0968f80122477542"}],"name":[{"family":"IPPPopStrat1Fail","given":["PHQ9Lessthan9Pop1"]}],"gender":"female","birthDate":"2009-01-01"},"request":{"method":"PUT","url":"Patient/3776140d-948a-4126-908a-6a95af1d80fa"}},{"fullUrl":"https://madie.cms.gov/Encounter/846816468613163156","resource":{"resourceType":"Encounter","id":"6f7f591b-114a-46b3-b91c-949ac95e3d2a","meta":{"profile":["http://hl7.org/fhir/us/qicore/StructureDefinition/qicore-encounter"]},"status":"finished","class":{"system":"http://terminology.hl7.org/CodeSystem/v3-ActCode","code":"AMB","display":"ambulatory"},"type":[{"coding":[{"system":"http://www.ama-assn.org/go/cpt","version":"2024","code":"90791"}]}],"subject":{"reference":"Patient/3776140d-948a-4126-908a-6a95af1d80fa"},"period":{"start":"2024-02-25T14:30:00+00:00","end":"2024-02-25T14:50:00+00:00"}},"request":{"method":"PUT","url":"Encounter/6f7f591b-114a-46b3-b91c-949ac95e3d2a"}},{"fullUrl":"https://madie.cms.gov/Observation/98778613516461352131315","resource":{"resourceType":"Observation","id":"6fb4b6e1-68a8-4aea-9bcd-37221208a463","meta":{"profile":["http://hl7.org/fhir/us/qicore/StructureDefinition/qicore-observation"]},"status":"final","category":[{"coding":[{"system":"http://terminology.hl7.org/CodeSystem/observation-category","code":"survey","display":"Survey"}]}],"code":{"coding":[{"system":"http://loinc.org","version":"2.76","code":"44261-6"}]},"subject":{"reference":"Patient/3776140d-948a-4126-908a-6a95af1d80fa"},"effectiveDateTime":"2024-02-25T14:35:00+00:00","valueInteger":8},"request":{"method":"PUT","url":"Observation/6fb4b6e1-68a8-4aea-9bcd-37221208a463"}},{"fullUrl":"https://madie.cms.gov/Observation/784651651684135131313","resource":{"resourceType":"Observation","id":"1633c614-f024-44d7-8c4c-d5b750bf0fa5","meta":{"profile":["http://hl7.org/fhir/us/qicore/StructureDefinition/qicore-observation"]},"status":"final","category":[{"coding":[{"system":"http://terminology.hl7.org/CodeSystem/observation-category","code":"survey","display":"Survey"}]}],"code":{"coding":[{"system":"http://loinc.org","version":"2.76","code":"44261-6"}]},"subject":{"reference":"Patient/3776140d-948a-4126-908a-6a95af1d80fa"},"effectiveDateTime":"2025-02-19T14:30:00+00:00","valueInteger":4},"request":{"method":"PUT","url":"Observation/1633c614-f024-44d7-8c4c-d5b750bf0fa5"}},{"fullUrl":"https://madie.cms.gov/Condition/18961651646466486545","resource":{"resourceType":"Condition","id":"a818fb67-1727-410d-b817-a0ee3161cc2b","meta":{"profile":["http://hl7.org/fhir/us/qicore/StructureDefinition/qicore-condition"]},"clinicalStatus":{"coding":[{"system":"http://terminology.hl7.org/CodeSystem/condition-clinical","code":"active","display":"active"}]},"verificationStatus":{"coding":[{"system":"http://terminology.hl7.org/CodeSystem/condition-ver-status","code":"confirmed","display":"confirmed"}]},"category":[{"coding":[{"system":"http://terminology.hl7.org/CodeSystem/condition-category","code":"problem-list-item","display":"Problem List Item"}]}],"code":{"coding":[{"system":"http://hl7.org/fhir/sid/icd-10-cm","version":"2024","code":"F32.9","display":"Major Depressive Disorder"}]},"subject":{"reference":"Patient/3776140d-948a-4126-908a-6a95af1d80fa"},"onsetDateTime":"2023-02-25T14:35:00+00:00"},"request":{"method":"PUT","url":"Condition/a818fb67-1727-410d-b817-a0ee3161cc2b"}},{"fullUrl":"https://madie.cms.gov/Encounter/13546841616846141","resource":{"resourceType":"Encounter","id":"308ba337-9d38-4cae-a964-c3f67204496a","meta":{"profile":["http://hl7.org/fhir/us/qicore/StructureDefinition/qicore-encounter"]},"status":"finished","class":{"system":"http://terminology.hl7.org/CodeSystem/v3-ActCode","code":"AMB","display":"ambulatory"},"type":[{"coding":[{"system":"http://www.nlm.nih.gov/research/umls/hcpcs","version":"2024","code":"G0438","display":"Annual wellness visit; includes a personalized prevention plan of service (pps), initial visit"}]}],"subject":{"reference":"Patient/3776140d-948a-4126-908a-6a95af1d80fa"},"period":{"start":"2024-12-31T08:00:00+00:00","end":"2025-01-01T12:00:00+00:00"}},"request":{"method":"PUT","url":"Encounter/308ba337-9d38-4cae-a964-c3f67204496a"}},{"fullUrl":"https://madie.cms.gov/MeasureReport/7d90cbc4-f0cc-432a-9abe-d9d9a642d288","resource":{"resourceType":"MeasureReport","id":"7d90cbc4-f0cc-432a-9abe-d9d9a642d288","meta":{"profile":["http://hl7.org/fhir/us/cqfmeasures/StructureDefinition/test-case-cqfm"]},"contained":[{"resourceType":"Parameters","id":"5a8d7077-0e0f-4fea-8295-9d215454a96d-parameters","parameter":[{"name":"subject","valueString":"3776140d-948a-4126-908a-6a95af1d80fa"}]}],"extension":[{"url":"http://hl7.org/fhir/us/cqfmeasures/StructureDefinition/cqfm-inputParameters","valueReference":{"reference":"#5a8d7077-0e0f-4fea-8295-9d215454a96d-parameters"}},{"url":"http://hl7.org/fhir/us/cqfmeasures/StructureDefinition/cqfm-testCaseDescription","valueMarkdown":"Patient is 16 and has Major depression diagnosis during denom ID period. Patient has PHQ-9 score below 9 during denom ID period. Note: Stratification issue."}],"modifierExtension":[{"url":"http://hl7.org/fhir/us/cqfmeasures/StructureDefinition/cqfm-isTestCase","valueBoolean":true}],"status":"complete","type":"individual","measure":"https://madie.cms.gov/Measure/DepressionRemissionatTwelveMonthsFHIR","period":{"start":"2025-01-01","end":"2025-12-31"},"group":[{"population":[{"code":{"coding":[{"system":"http://terminology.hl7.org/CodeSystem/measure-population","code":"initial-population","display":"Initial Population"}]},"count":0},{"code":{"coding":[{"system":"http://terminology.hl7.org/CodeSystem/measure-population","code":"denominator","display":"Denominator"}]},"count":0},{"code":{"coding":[{"system":"http://terminology.hl7.org/CodeSystem/measure-population","code":"denominator-exclusion","display":"Denominator Exclusion"}]},"count":0},{"code":{"coding":[{"system":"http://terminology.hl7.org/CodeSystem/measure-population","code":"numerator","display":"Numerator"}]},"count":0}]}]},"request":{"method":"PUT","url":"MeasureReport/7d90cbc4-f0cc-432a-9abe-d9d9a642d288"}}]}