{"resourceType":"Bundle","id":"tests-b34e3afc-de09-4850-861e-964ad3a94e67-bundle","type":"transaction","entry":[{"fullUrl":"https://madie.cms.gov/Patient/b34e3afc-de09-4850-861e-964ad3a94e67","resource":{"resourceType":"Patient","id":"b34e3afc-de09-4850-861e-964ad3a94e67","meta":{"profile":["http://hl7.org/fhir/us/qicore/StructureDefinition/qicore-patient"]},"extension":[{"url":"http://hl7.org/fhir/us/core/StructureDefinition/us-core-race","extension":[{"url":"ombCategory","valueCoding":{"system":"urn:oid:2.16.840.1.113883.6.238","code":"2106-3","display":"White"}},{"url":"text","valueString":"White"}]},{"url":"http://hl7.org/fhir/us/core/StructureDefinition/us-core-ethnicity","extension":[{"url":"ombCategory","valueCoding":{"system":"urn:oid:2.16.840.1.113883.6.238","code":"2186-5","display":"Not Hispanic or Latino"}},{"url":"text","valueString":"Not Hispanic or Latino"}]}],"identifier":[{"type":{"coding":[{"system":"http://terminology.hl7.org/CodeSystem/v2-0203","code":"MR"}]},"system":"https://bonnie-fhir.healthit.gov/","value":"630307cb0968f801224783c6"}],"name":[{"family":"NUMERPopStrat2Pass","given":["FUAssessmentAfterMP"]}],"gender":"female","birthDate":"1987-01-01"},"request":{"method":"PUT","url":"Patient/b34e3afc-de09-4850-861e-964ad3a94e67"}},{"fullUrl":"https://madie.cms.gov/Encounter/846816468613163156","resource":{"resourceType":"Encounter","id":"8655b01a-7b1f-4dd6-9abb-0de42dde5e74","meta":{"profile":["http://hl7.org/fhir/us/qicore/StructureDefinition/qicore-encounter"]},"status":"finished","class":{"system":"http://terminology.hl7.org/CodeSystem/v3-ActCode","code":"AMB","display":"ambulatory"},"type":[{"coding":[{"system":"http://www.ama-assn.org/go/cpt","version":"2024","code":"90791"}]}],"subject":{"reference":"Patient/b34e3afc-de09-4850-861e-964ad3a94e67"},"period":{"start":"2024-02-25T14:30:00+00:00","end":"2024-02-25T14:50:00+00:00"},"length":{"value":0,"unit":"days"}},"request":{"method":"PUT","url":"Encounter/8655b01a-7b1f-4dd6-9abb-0de42dde5e74"}},{"fullUrl":"https://madie.cms.gov/Observation/98778613516461352131315","resource":{"resourceType":"Observation","id":"c361da91-9c95-4f81-bd45-a3a75e4526a9","meta":{"profile":["http://hl7.org/fhir/us/qicore/StructureDefinition/qicore-observation"]},"status":"final","category":[{"coding":[{"system":"http://terminology.hl7.org/CodeSystem/observation-category","code":"survey","display":"Survey"}]}],"code":{"coding":[{"system":"http://loinc.org","version":"2.76","code":"44261-6"}]},"subject":{"reference":"Patient/b34e3afc-de09-4850-861e-964ad3a94e67"},"effectiveDateTime":"2024-02-25T14:35:00+00:00","valueInteger":10},"request":{"method":"PUT","url":"Observation/c361da91-9c95-4f81-bd45-a3a75e4526a9"}},{"fullUrl":"https://madie.cms.gov/Observation/784651651684135131313","resource":{"resourceType":"Observation","id":"afbe359b-c7ac-41bd-84dd-1766cdd51632","meta":{"profile":["http://hl7.org/fhir/us/qicore/StructureDefinition/qicore-observation"]},"status":"final","category":[{"coding":[{"system":"http://terminology.hl7.org/CodeSystem/observation-category","code":"survey","display":"Survey"}]}],"code":{"coding":[{"system":"http://loinc.org","version":"2.76","code":"44261-6"}]},"subject":{"reference":"Patient/b34e3afc-de09-4850-861e-964ad3a94e67"},"effectiveDateTime":"2026-02-19T14:30:00+00:00","valueInteger":4},"request":{"method":"PUT","url":"Observation/afbe359b-c7ac-41bd-84dd-1766cdd51632"}},{"fullUrl":"https://madie.cms.gov/Condition/18961651646466486545","resource":{"resourceType":"Condition","id":"cee4655c-affa-4bc8-8677-ca26941f46e9","meta":{"profile":["http://hl7.org/fhir/us/qicore/StructureDefinition/qicore-condition"]},"clinicalStatus":{"coding":[{"system":"http://terminology.hl7.org/CodeSystem/condition-clinical","code":"active","display":"active"}]},"verificationStatus":{"coding":[{"system":"http://terminology.hl7.org/CodeSystem/condition-ver-status","code":"confirmed"}]},"category":[{"coding":[{"system":"http://terminology.hl7.org/CodeSystem/condition-category","code":"problem-list-item","display":"Problem List Item"}]}],"code":{"coding":[{"system":"http://hl7.org/fhir/sid/icd-10-cm","version":"2024","code":"F32.9"}]},"subject":{"reference":"Patient/b34e3afc-de09-4850-861e-964ad3a94e67"},"onsetDateTime":"2024-02-25T14:30:00+00:00"},"request":{"method":"PUT","url":"Condition/cee4655c-affa-4bc8-8677-ca26941f46e9"}},{"fullUrl":"https://madie.cms.gov/MeasureReport/6602fab1-198c-4e03-be69-6479f438a454","resource":{"resourceType":"MeasureReport","id":"6602fab1-198c-4e03-be69-6479f438a454","meta":{"profile":["http://hl7.org/fhir/us/cqfmeasures/StructureDefinition/test-case-cqfm"]},"contained":[{"resourceType":"Parameters","id":"240b8d84-fd84-4a8c-866b-4d005d65e310-parameters","parameter":[{"name":"subject","valueString":"b34e3afc-de09-4850-861e-964ad3a94e67"}]}],"extension":[{"url":"http://hl7.org/fhir/us/cqfmeasures/StructureDefinition/cqfm-inputParameters","valueReference":{"reference":"#240b8d84-fd84-4a8c-866b-4d005d65e310-parameters"}},{"url":"http://hl7.org/fhir/us/cqfmeasures/StructureDefinition/cqfm-testCaseDescription","valueMarkdown":"Patient is 36 and has a PHQ-9>9 and and Major Depression remission during the denom ID period. Patient has follow up assessment but it occurred after the end of the MAP. Patient should be in denom for strat 2."}],"modifierExtension":[{"url":"http://hl7.org/fhir/us/cqfmeasures/StructureDefinition/cqfm-isTestCase","valueBoolean":true}],"status":"complete","type":"individual","measure":"https://madie.cms.gov/Measure/DepressionRemissionatTwelveMonthsFHIR","period":{"start":"2025-01-01","end":"2025-12-31"},"group":[{"population":[{"code":{"coding":[{"system":"http://terminology.hl7.org/CodeSystem/measure-population","code":"initial-population","display":"Initial Population"}]},"count":1},{"code":{"coding":[{"system":"http://terminology.hl7.org/CodeSystem/measure-population","code":"denominator","display":"Denominator"}]},"count":1},{"code":{"coding":[{"system":"http://terminology.hl7.org/CodeSystem/measure-population","code":"denominator-exclusion","display":"Denominator Exclusion"}]},"count":0},{"code":{"coding":[{"system":"http://terminology.hl7.org/CodeSystem/measure-population","code":"numerator","display":"Numerator"}]},"count":0}]}]},"request":{"method":"PUT","url":"MeasureReport/6602fab1-198c-4e03-be69-6479f438a454"}}]}