{"resourceType":"Bundle","id":"tests-8090a147-702c-452a-b59d-524c2bcbaaad-bundle","type":"transaction","entry":[{"fullUrl":"https://madie.cms.gov/Patient/8090a147-702c-452a-b59d-524c2bcbaaad","resource":{"resourceType":"Patient","id":"8090a147-702c-452a-b59d-524c2bcbaaad","meta":{"profile":["http://hl7.org/fhir/us/qicore/StructureDefinition/qicore-patient"]},"text":{"status":"generated","div":"<div xmlns=\"http://www.w3.org/1999/xhtml\"><div class=\"hapiHeaderText\">yearoverlap2, Screened Not at risk Assessed Severely Malnourished Diagnosed Care Plan, <b>mo1111d4p100 </b></div><table class=\"hapiPropertyTable\"><tbody><tr><td>Identifier</td><td>yearoverlap2</td></tr><tr><td>Date of birth</td><td><span>14 May 1950</span></td></tr></tbody></table></div>"},"extension":[{"url":"http://hl7.org/fhir/us/core/StructureDefinition/us-core-race","extension":[{"url":"ombCategory","valueCoding":{"system":"urn:oid:2.16.840.1.113883.6.238","code":"2106-3","display":"White","userSelected":true}},{"url":"text","valueString":"White"}]},{"url":"http://hl7.org/fhir/us/core/StructureDefinition/us-core-ethnicity","extension":[{"url":"ombCategory","valueCoding":{"system":"urn:oid:2.16.840.1.113883.6.238","code":"2186-5","display":"Not Hispanic or Latino","userSelected":true}},{"url":"text","valueString":"Not Hispanic or Latino"}]}],"identifier":[{"type":{"coding":[{"system":"http://terminology.hl7.org/CodeSystem/v2-0203","code":"MR"}]},"system":"https://madie.cms.gov/","value":"yearoverlap2"}],"active":true,"name":[{"use":"usual","text":"yearoverlap2","family":"IPPFAIL","given":["yearoverlap2IPPFAIL"]}],"gender":"female","birthDate":"1950-05-14","address":[{"text":"yearoverlap2, Screened Not at risk Assessed Severely Malnourished Diagnosed Care Plan, ID=yearoverlap2, DOB: 14 May 1950"}]},"request":{"method":"PUT","url":"Patient/8090a147-702c-452a-b59d-524c2bcbaaad"}},{"fullUrl":"https://madie.cms.gov/Encounter/yearoverlap2-01","resource":{"resourceType":"Encounter","id":"3a0ba90b-155f-4363-b94f-f13f0b162374","meta":{"profile":["http://hl7.org/fhir/us/qicore/StructureDefinition/qicore-encounter"]},"status":"finished","class":{"system":"http://terminology.hl7.org/CodeSystem/v3-ActCode","code":"IMP","display":"inpatient encounter"},"type":[{"coding":[{"system":"http://snomed.info/sct","code":"183452005"}]}],"subject":{"reference":"Patient/8090a147-702c-452a-b59d-524c2bcbaaad"},"period":{"start":"2024-12-30T08:00:00.000Z","end":"2024-12-31T08:15:00.000Z"}},"request":{"method":"PUT","url":"Encounter/3a0ba90b-155f-4363-b94f-f13f0b162374"}},{"fullUrl":"https://madie.cms.gov/Condition/yearoverlap2-06","resource":{"resourceType":"Condition","id":"90a69c76-51ae-4a84-aa4e-260ec6b8c53f","meta":{"profile":["http://hl7.org/fhir/us/qicore/StructureDefinition/qicore-condition"]},"clinicalStatus":{"coding":[{"system":"http://terminology.hl7.org/CodeSystem/condition-clinical","code":"active","display":"Active","userSelected":true}]},"verificationStatus":{"coding":[{"system":"http://terminology.hl7.org/CodeSystem/condition-ver-status","code":"confirmed","display":"Confirmed","userSelected":true}]},"category":[{"coding":[{"system":"http://terminology.hl7.org/CodeSystem/condition-category","code":"encounter-diagnosis","display":"Encounter Diagnosis","userSelected":true}]}],"code":{"coding":[{"system":"http://snomed.info/sct","code":"190606006","display":"Moderate protein energy malnutrition (disorder)","userSelected":true}]},"subject":{"reference":"Patient/8090a147-702c-452a-b59d-524c2bcbaaad"},"onsetPeriod":{"start":"2024-12-31T08:00:00.000+00:00"},"recordedDate":"2026-01-04T11:00:00.000+00:00"},"request":{"method":"PUT","url":"Condition/90a69c76-51ae-4a84-aa4e-260ec6b8c53f"}},{"fullUrl":"https://madie.cms.gov/Observation/yearoverlap2-18","resource":{"resourceType":"Observation","id":"2fd98d26-cb5e-48da-8c25-710d54dd53b1","meta":{"profile":["http://hl7.org/fhir/us/qicore/StructureDefinition/qicore-observation"]},"status":"final","category":[{"coding":[{"system":"http://terminology.hl7.org/CodeSystem/observation-category","code":"survey","display":"Survey"}]}],"code":{"coding":[{"system":"http://loinc.org","code":"98967-3","display":"Nutritional Risk Screening 2002 panel","userSelected":true}]},"subject":{"reference":"Patient/8090a147-702c-452a-b59d-524c2bcbaaad"},"effectiveDateTime":"2024-12-31T08:00:00.000+00:00","valueCodeableConcept":{"coding":[{"system":"http://snomed.info/sct","code":"129689002","display":"At risk for nutritional problem (finding)","userSelected":true}]}},"request":{"method":"PUT","url":"Observation/2fd98d26-cb5e-48da-8c25-710d54dd53b1"}},{"fullUrl":"https://madie.cms.gov/Observation/yearoverlap2-19","resource":{"resourceType":"Observation","id":"a9305d50-ce0b-4ad5-a5d2-e714697b9435","meta":{"profile":["http://hl7.org/fhir/us/qicore/StructureDefinition/qicore-observation"]},"status":"final","category":[{"coding":[{"system":"http://terminology.hl7.org/CodeSystem/observation-category","code":"survey","display":"Survey"}]}],"code":{"coding":[{"system":"http://loinc.org","code":"75282-4","display":"Nutrition assessment panel","userSelected":true}]},"subject":{"reference":"Patient/8090a147-702c-452a-b59d-524c2bcbaaad"},"effectiveDateTime":"2024-12-31T10:00:00.000+00:00","valueCodeableConcept":{"coding":[{"system":"http://snomed.info/sct","code":"102635008","display":"Acute nutritional deficiency (finding)","userSelected":true}]}},"request":{"method":"PUT","url":"Observation/a9305d50-ce0b-4ad5-a5d2-e714697b9435"}},{"fullUrl":"https://madie.cms.gov/Procedure/yearoverlap2-12","resource":{"resourceType":"Procedure","id":"64327cd3-637f-4216-baa1-9bb40f807d8a","meta":{"profile":["http://hl7.org/fhir/us/qicore/StructureDefinition/qicore-procedure"]},"extension":[{"url":"http://hl7.org/fhir/us/qicore/StructureDefinition/qicore-recorded","valueDateTime":"2024-12-31T11:30:00.000Z"}],"status":"completed","code":{"coding":[{"system":"http://snomed.info/sct","code":"306165000","display":"Referral to hospital-based dietetics service (procedure)"}],"text":"Referral to hospital-based dietetics service (procedure)"},"subject":{"reference":"Patient/8090a147-702c-452a-b59d-524c2bcbaaad"},"encounter":{"reference":"Encounter/yearoverlap2IPPFAIL"},"performedPeriod":{"start":"2024-12-31T11:30:00.000Z","end":"2025-01-04T08:15:00.000Z"}},"request":{"method":"PUT","url":"Procedure/64327cd3-637f-4216-baa1-9bb40f807d8a"}},{"fullUrl":"https://madie.cms.gov/Procedure/yearoverlap2-08","resource":{"resourceType":"Procedure","id":"7fef51e5-6e03-43e1-83a2-3906e05d05ed","meta":{"profile":["http://hl7.org/fhir/us/qicore/StructureDefinition/qicore-procedure"]},"extension":[{"url":"http://hl7.org/fhir/us/qicore/StructureDefinition/qicore-recorded","valueDateTime":"2025-12-31T11:30:00.000Z"}],"status":"completed","code":{"coding":[{"system":"http://snomed.info/sct","code":"182922004","display":"Dietary regime (regime/therapy)"}],"text":"Dietary regime (regime/therapy)"},"subject":{"reference":"Patient/8090a147-702c-452a-b59d-524c2bcbaaad"},"encounter":{"reference":"Encounter/yearoverlap2IPPFAIL"},"performedPeriod":{"start":"2024-12-31T11:30:00.000Z","end":"2025-01-04T08:15:00.000Z"}},"request":{"method":"PUT","url":"Procedure/7fef51e5-6e03-43e1-83a2-3906e05d05ed"}},{"fullUrl":"https://madie.cms.gov/Coverage/yearoverlap2-61","resource":{"resourceType":"Coverage","id":"dba1e079-70af-416c-a369-48a31bbcaf06","meta":{"profile":["http://hl7.org/fhir/us/qicore/StructureDefinition/qicore-coverage"]},"status":"active","type":{"coding":[{"system":"https://nahdo.org/sopt","version":"9.2","code":"11","display":"Medicare Managed Care (Includes Medicare Advantage Plans)"}]},"beneficiary":{"reference":"Patient/8090a147-702c-452a-b59d-524c2bcbaaad"},"period":{"start":"2024-10-01T00:00:00+00:00"},"payor":[{"reference":"Organization/26111c91-b0e2-476c-a20b-e3f39799f8f5"}]},"request":{"method":"PUT","url":"Coverage/dba1e079-70af-416c-a369-48a31bbcaf06"}},{"fullUrl":"https://madie.cms.gov/Organization/yearoverlap2-98","resource":{"resourceType":"Organization","id":"26111c91-b0e2-476c-a20b-e3f39799f8f5","meta":{"profile":["http://hl7.org/fhir/us/qicore/StructureDefinition/qicore-organization"]},"identifier":[{"use":"temp","system":"urn:oid:2.16.840.1.113883.4.4","value":"21-3259825"}],"active":true,"type":[{"coding":[{"system":"http://terminology.hl7.org/CodeSystem/organization-type","code":"pay","display":"Payer"}]}],"name":"Blue Cross Blue Shield of Texas","telecom":[{"system":"phone","value":"(+1) 972-766-6900"}],"address":[{"use":"billing","type":"postal","line":["P.O. Box 660044"],"city":"Dallas","state":"TX","postalCode":"75266-0044","country":"USA"}]},"request":{"method":"PUT","url":"Organization/26111c91-b0e2-476c-a20b-e3f39799f8f5"}},{"fullUrl":"https://madie.cms.gov/MeasureReport/4713bb46-9904-4e70-bcc8-e2d652cd0c58","resource":{"resourceType":"MeasureReport","id":"4713bb46-9904-4e70-bcc8-e2d652cd0c58","meta":{"profile":["http://hl7.org/fhir/us/cqfmeasures/StructureDefinition/test-case-cqfm"]},"contained":[{"resourceType":"Parameters","id":"52d3eae8-7704-4d69-b750-210b3d52c015-parameters","parameter":[{"name":"subject","valueString":"8090a147-702c-452a-b59d-524c2bcbaaad"}]}],"extension":[{"url":"http://hl7.org/fhir/us/cqfmeasures/StructureDefinition/cqfm-inputParameters","valueReference":{"reference":"#52d3eae8-7704-4d69-b750-210b3d52c015-parameters"}},{"url":"http://hl7.org/fhir/us/cqfmeasures/StructureDefinition/cqfm-testCaseDescription","valueMarkdown":"Does not meet eligibility criteria"}],"modifierExtension":[{"url":"http://hl7.org/fhir/us/cqfmeasures/StructureDefinition/cqfm-isTestCase","valueBoolean":true}],"status":"complete","type":"individual","measure":"https://madie.cms.gov/Measure/GlobalMalnutritionCompositeFHIR","period":{"start":"2026-01-01","end":"2026-12-31"},"group":[{"population":[{"code":{"coding":[{"system":"http://terminology.hl7.org/CodeSystem/measure-population","code":"initial-population","display":"Initial Population"}]},"count":0},{"code":{"coding":[{"system":"http://terminology.hl7.org/CodeSystem/measure-population","code":"measure-population","display":"Measure Population"}]},"count":0}]},{"population":[{"code":{"coding":[{"system":"http://terminology.hl7.org/CodeSystem/measure-population","code":"initial-population","display":"Initial Population"}]},"count":0},{"code":{"coding":[{"system":"http://terminology.hl7.org/CodeSystem/measure-population","code":"measure-population","display":"Measure Population"}]},"count":0}]},{"population":[{"code":{"coding":[{"system":"http://terminology.hl7.org/CodeSystem/measure-population","code":"initial-population","display":"Initial Population"}]},"count":0},{"code":{"coding":[{"system":"http://terminology.hl7.org/CodeSystem/measure-population","code":"measure-population","display":"Measure Population"}]},"count":0}]},{"population":[{"code":{"coding":[{"system":"http://terminology.hl7.org/CodeSystem/measure-population","code":"initial-population","display":"Initial Population"}]},"count":0},{"code":{"coding":[{"system":"http://terminology.hl7.org/CodeSystem/measure-population","code":"measure-population","display":"Measure Population"}]},"count":0}]},{"population":[{"code":{"coding":[{"system":"http://terminology.hl7.org/CodeSystem/measure-population","code":"initial-population","display":"Initial Population"}]},"count":0},{"code":{"coding":[{"system":"http://terminology.hl7.org/CodeSystem/measure-population","code":"measure-population","display":"Measure Population"}]},"count":0}]},{"population":[{"code":{"coding":[{"system":"http://terminology.hl7.org/CodeSystem/measure-population","code":"initial-population","display":"Initial Population"}]},"count":0},{"code":{"coding":[{"system":"http://terminology.hl7.org/CodeSystem/measure-population","code":"measure-population","display":"Measure Population"}]},"count":0}]}]},"request":{"method":"PUT","url":"MeasureReport/4713bb46-9904-4e70-bcc8-e2d652cd0c58"}}]}