{
  "resourceType": "Bundle",
  "id": "DENOMPass-OfficeOrOtherOutpatientVisit",
  "type": "transaction",
  "entry": [ {
    "fullUrl": "https://madie.cms.gov/Patient/3ed7af00-2d6c-4e8f-8b14-4bf7c58c6c70",
    "resource": {
      "resourceType": "Patient",
      "id": "3ed7af00-2d6c-4e8f-8b14-4bf7c58c6c70",
      "meta": {
        "profile": [ "http://hl7.org/fhir/us/qicore/StructureDefinition/qicore-patient" ]
      },
      "extension": [ {
        "url": "http://hl7.org/fhir/us/core/StructureDefinition/us-core-race",
        "extension": [ {
          "url": "ombCategory",
          "valueCoding": {
            "system": "urn:oid:2.16.840.1.113883.6.238",
            "code": "2028-9",
            "display": "Asian"
          }
        }, {
          "url": "text",
          "valueString": "Asian"
        } ]
      }, {
        "url": "http://hl7.org/fhir/us/core/StructureDefinition/us-core-ethnicity",
        "extension": [ {
          "url": "ombCategory",
          "valueCoding": {
            "system": "urn:oid:2.16.840.1.113883.6.238",
            "code": "2135-2",
            "display": "Hispanic or Latino"
          }
        }, {
          "url": "text",
          "valueString": "Hispanic or Latino"
        } ]
      } ],
      "identifier": [ {
        "system": "http://hospital.smarthealthit.org",
        "value": "999999995"
      } ],
      "name": [ {
        "family": "Bertha",
        "given": [ "Betty" ]
      } ],
      "gender": "female",
      "birthDate": "2023-01-01"
    },
    "request": {
      "method": "POST",
      "url": "Patient/3ed7af00-2d6c-4e8f-8b14-4bf7c58c6c70"
    }
  }, {
    "fullUrl": "https://madie.cms.gov/Encounter/Encounter-1",
    "resource": {
      "resourceType": "Encounter",
      "id": "Encounter-1",
      "meta": {
        "profile": [ "http://hl7.org/fhir/us/qicore/StructureDefinition/qicore-encounter" ]
      },
      "status": "finished",
      "class": {
        "system": "http://terminology.hl7.org/CodeSystem/v3-ActCode",
        "code": "AMB",
        "display": "ambulatory"
      },
      "type": [ {
        "coding": [ {
          "system": "http://www.ama-assn.org/go/cpt",
          "code": "99211",
          "display": "Office or other outpatient visit for the evaluation and management of an established patient that may not require the presence of a physician or other qualified health care professional"
        } ]
      } ],
      "subject": {
        "reference": "Patient/3ed7af00-2d6c-4e8f-8b14-4bf7c58c6c70"
      },
      "period": {
        "start": "2025-01-01T01:00:00.000Z",
        "end": "2025-01-01T01:15:00.000Z"
      }
    },
    "request": {
      "method": "POST",
      "url": "Encounter/Encounter-1"
    }
  }, {
    "fullUrl": "https://madie.cms.gov/MeasureReport/792dce14-3e26-4f1f-979d-6c7031f63f0f",
    "resource": {
      "resourceType": "MeasureReport",
      "id": "792dce14-3e26-4f1f-979d-6c7031f63f0f",
      "meta": {
        "profile": [ "http://hl7.org/fhir/us/cqfmeasures/StructureDefinition/test-case-cqfm" ]
      },
      "contained": [ {
        "resourceType": "Parameters",
        "id": "229b4676-c21d-40de-a0da-56164e8a8eee-parameters",
        "parameter": [ {
          "name": "subject",
          "valueString": "3ed7af00-2d6c-4e8f-8b14-4bf7c58c6c70"
        } ]
      } ],
      "extension": [ {
        "url": "http://hl7.org/fhir/us/cqfmeasures/StructureDefinition/cqfm-inputParameters",
        "valueReference": {
          "reference": "#229b4676-c21d-40de-a0da-56164e8a8eee-parameters"
        }
      }, {
        "url": "http://hl7.org/fhir/us/cqfmeasures/StructureDefinition/cqfm-testCaseDescription",
        "valueMarkdown": "Patient has office or other outpatient encounter (encounter retrieve with DRC)"
      } ],
      "modifierExtension": [ {
        "url": "http://hl7.org/fhir/us/cqfmeasures/StructureDefinition/cqfm-isTestCase",
        "valueBoolean": true
      } ],
      "status": "complete",
      "type": "individual",
      "measure": "https://madie.cms.gov/Measure/ChildhoodImmunizationStatusFHIR",
      "period": {
        "start": "2025-01-01",
        "end": "2025-12-31"
      },
      "group": [ {
        "population": [ {
          "code": {
            "coding": [ {
              "system": "http://terminology.hl7.org/CodeSystem/measure-population",
              "code": "initial-population",
              "display": "Initial Population"
            } ]
          },
          "count": 1
        }, {
          "code": {
            "coding": [ {
              "system": "http://terminology.hl7.org/CodeSystem/measure-population",
              "code": "denominator",
              "display": "Denominator"
            } ]
          },
          "count": 1
        }, {
          "code": {
            "coding": [ {
              "system": "http://terminology.hl7.org/CodeSystem/measure-population",
              "code": "denominator-exclusion",
              "display": "Denominator Exclusion"
            } ]
          },
          "count": 0
        }, {
          "code": {
            "coding": [ {
              "system": "http://terminology.hl7.org/CodeSystem/measure-population",
              "code": "numerator",
              "display": "Numerator"
            } ]
          },
          "count": 0
        } ]
      } ],
      "evaluatedResource": [ {
        "reference": "https://madie.cms.gov/Patient/3ed7af00-2d6c-4e8f-8b14-4bf7c58c6c70"
      }, {
        "reference": "https://madie.cms.gov/Encounter/Encounter-1"
      } ]
    },
    "request": {
      "method": "POST",
      "url": "MeasureReport/792dce14-3e26-4f1f-979d-6c7031f63f0f"
    }
  } ]
}