{
  "resourceType": "Bundle",
  "id": "62c880ec0111a60120dc21f7",
  "type": "transaction",
  "entry": [ {
    "fullUrl": "https://madie.cms.gov/Patient/d7e9bf7d-2b55-4ae1-ab9e-c03cdedb1a2b",
    "resource": {
      "resourceType": "Patient",
      "id": "d7e9bf7d-2b55-4ae1-ab9e-c03cdedb1a2b",
      "meta": {
        "profile": [ "http://hl7.org/fhir/us/qicore/StructureDefinition/qicore-patient" ]
      },
      "text": {
        "status": "generated",
        "div": "<div xmlns=\"http://www.w3.org/1999/xhtml\"><div class=\"hapiHeaderText\">PainAssessEndsAfterRadTx<b>NUMERPassPop2</b></div><table class=\"hapiPropertyTable\"><tbody><tr><td>Identifier</td><td>513eac8560327b1f167921f8fbf35dba</td></tr><tr><td>Date of birth</td><td><span>25 April 1975</span></td></tr></tbody></table></div>"
      },
      "extension": [ {
        "url": "http://hl7.org/fhir/us/core/StructureDefinition/us-core-race",
        "extension": [ {
          "url": "ombCategory",
          "valueCoding": {
            "system": "urn:oid:2.16.840.1.113883.6.238",
            "code": "1002-5",
            "display": "American Indian or Alaska Native",
            "userSelected": true
          }
        }, {
          "url": "text",
          "valueString": "American Indian or Alaska Native"
        } ]
      }, {
        "url": "http://hl7.org/fhir/us/core/StructureDefinition/us-core-ethnicity",
        "extension": [ {
          "url": "ombCategory",
          "valueCoding": {
            "system": "urn:oid:2.16.840.1.113883.6.238",
            "code": "2135-2",
            "display": "Hispanic or Latino",
            "userSelected": true
          }
        }, {
          "url": "text",
          "valueString": "Hispanic or Latino"
        } ]
      } ],
      "identifier": [ {
        "type": {
          "coding": [ {
            "system": "http://terminology.hl7.org/CodeSystem/v2-0203",
            "code": "MR"
          } ]
        },
        "system": "https://bonnie-fhir.healthit.gov/",
        "value": "62c880ec0111a60120dc21f7"
      } ],
      "active": true,
      "name": [ {
        "use": "usual",
        "family": "NUMERPassPop2",
        "given": [ "PainAssessEndsAfterRadTx" ]
      } ],
      "gender": "male",
      "birthDate": "1975-04-25"
    },
    "request": {
      "method": "POST",
      "url": "Patient/d7e9bf7d-2b55-4ae1-ab9e-c03cdedb1a2b"
    }
  }, {
    "fullUrl": "https://madie.cms.gov/Observation/5ca52608b8484613a555a938",
    "resource": {
      "resourceType": "Observation",
      "id": "5ca52608b8484613a555a938",
      "meta": {
        "profile": [ "http://hl7.org/fhir/us/qicore/StructureDefinition/qicore-observation" ]
      },
      "status": "final",
      "category": [ {
        "coding": [ {
          "system": "http://terminology.hl7.org/CodeSystem/observation-category",
          "code": "survey",
          "display": "Survey"
        } ],
        "text": "Survey"
      } ],
      "code": {
        "coding": [ {
          "system": "http://loinc.org",
          "code": "38208-5"
        } ]
      },
      "subject": {
        "reference": "Patient/d7e9bf7d-2b55-4ae1-ab9e-c03cdedb1a2b"
      },
      "effectivePeriod": {
        "start": "2025-05-06T12:55:00.000+00:00",
        "end": "2025-05-06T13:05:00.000+00:00"
      },
      "valueInteger": 5
    },
    "request": {
      "method": "POST",
      "url": "Observation/5ca52608b8484613a555a938"
    }
  }, {
    "fullUrl": "https://madie.cms.gov/Condition/5ca52608b8484613a555a936",
    "resource": {
      "resourceType": "Condition",
      "id": "5ca52608b8484613a555a936",
      "meta": {
        "profile": [ "http://hl7.org/fhir/us/qicore/StructureDefinition/qicore-condition" ]
      },
      "clinicalStatus": {
        "coding": [ {
          "system": "http://terminology.hl7.org/CodeSystem/condition-clinical",
          "code": "active",
          "display": "active",
          "userSelected": true
        } ]
      },
      "verificationStatus": {
        "coding": [ {
          "system": "http://terminology.hl7.org/CodeSystem/condition-ver-status",
          "code": "confirmed",
          "display": "Confirmed"
        } ]
      },
      "category": [ {
        "coding": [ {
          "system": "http://terminology.hl7.org/CodeSystem/condition-category",
          "code": "problem-list-item",
          "display": "Problem List Item"
        } ]
      } ],
      "code": {
        "coding": [ {
          "system": "http://snomed.info/sct",
          "code": "107691000119101"
        } ]
      },
      "subject": {
        "reference": "Patient/d7e9bf7d-2b55-4ae1-ab9e-c03cdedb1a2b"
      },
      "onsetDateTime": "2021-05-06T12:45:00.000Z"
    },
    "request": {
      "method": "POST",
      "url": "Condition/5ca52608b8484613a555a936"
    }
  }, {
    "fullUrl": "https://madie.cms.gov/Coverage/60099ac81c76ba64612b0658",
    "resource": {
      "resourceType": "Coverage",
      "id": "60099ac81c76ba64612b0658",
      "meta": {
        "profile": [ "http://hl7.org/fhir/us/qicore/StructureDefinition/qicore-coverage" ]
      },
      "status": "active",
      "beneficiary": {
        "reference": "Patient/d7e9bf7d-2b55-4ae1-ab9e-c03cdedb1a2b"
      },
      "period": {
        "start": "1975-04-25T08:00:00.000Z"
      },
      "payor": [ {
        "reference": "Organization/123456"
      } ]
    },
    "request": {
      "method": "POST",
      "url": "Coverage/60099ac81c76ba64612b0658"
    }
  }, {
    "fullUrl": "https://madie.cms.gov/Encounter/5ca52608b8484613a555a937",
    "resource": {
      "resourceType": "Encounter",
      "id": "5ca52608b8484613a555a937",
      "meta": {
        "profile": [ "http://hl7.org/fhir/us/qicore/StructureDefinition/qicore-encounter" ]
      },
      "status": "finished",
      "class": {
        "system": "http://terminology.hl7.org/CodeSystem/v3-ActCode",
        "code": "AMB",
        "display": "ambulatory",
        "userSelected": true
      },
      "type": [ {
        "coding": [ {
          "system": "http://www.ama-assn.org/go/cpt",
          "code": "77427",
          "userSelected": true
        } ]
      } ],
      "subject": {
        "reference": "Patient/d7e9bf7d-2b55-4ae1-ab9e-c03cdedb1a2b"
      },
      "period": {
        "start": "2025-05-06T09:00:00.000Z",
        "end": "2025-05-06T13:00:00.000Z"
      }
    },
    "request": {
      "method": "POST",
      "url": "Encounter/5ca52608b8484613a555a937"
    }
  }, {
    "fullUrl": "https://madie.cms.gov/Organization/123456",
    "resource": {
      "resourceType": "Organization",
      "id": "123456",
      "meta": {
        "profile": [ "http://hl7.org/fhir/us/qicore/StructureDefinition/qicore-organization" ]
      },
      "identifier": [ {
        "use": "temp",
        "system": "urn:oid:2.16.840.1.113883.4.4",
        "value": "21-3259825"
      } ],
      "active": true,
      "type": [ {
        "coding": [ {
          "system": "http://terminology.hl7.org/CodeSystem/organization-type",
          "code": "pay",
          "display": "Payer"
        } ]
      } ],
      "name": "Blue Cross Blue Shield of Texas",
      "telecom": [ {
        "system": "phone",
        "value": "(+1) 972-766-6900"
      } ],
      "address": [ {
        "use": "billing",
        "type": "postal",
        "line": [ "P.O. Box 660044" ],
        "city": "Dallas",
        "state": "TX",
        "postalCode": "75266-0044",
        "country": "USA"
      } ]
    },
    "request": {
      "method": "POST",
      "url": "Organization/123456"
    }
  }, {
    "fullUrl": "https://madie.cms.gov/Practitioner/practitioner-123456",
    "resource": {
      "resourceType": "Practitioner",
      "id": "practitioner-123456",
      "meta": {
        "profile": [ "http://hl7.org/fhir/us/qicore/StructureDefinition/qicore-practitioner" ]
      },
      "identifier": [ {
        "system": "http://hl7.org/fhir/sid/us-npi",
        "value": "123456"
      } ],
      "name": [ {
        "family": "Evil",
        "prefix": [ "Dr" ]
      } ]
    },
    "request": {
      "method": "POST",
      "url": "Practitioner/practitioner-123456"
    }
  }, {
    "fullUrl": "https://madie.cms.gov/MeasureReport/b06aa1cf-051a-4dec-9d26-6576aead56a5",
    "resource": {
      "resourceType": "MeasureReport",
      "id": "b06aa1cf-051a-4dec-9d26-6576aead56a5",
      "meta": {
        "profile": [ "http://hl7.org/fhir/us/cqfmeasures/StructureDefinition/test-case-cqfm" ]
      },
      "contained": [ {
        "resourceType": "Parameters",
        "id": "cad9e3d8-5790-4dc4-8821-bce21fcd7baf-parameters",
        "parameter": [ {
          "name": "subject",
          "valueString": "d7e9bf7d-2b55-4ae1-ab9e-c03cdedb1a2b"
        } ]
      } ],
      "extension": [ {
        "url": "http://hl7.org/fhir/us/cqfmeasures/StructureDefinition/cqfm-inputParameters",
        "valueReference": {
          "reference": "#cad9e3d8-5790-4dc4-8821-bce21fcd7baf-parameters"
        }
      }, {
        "url": "http://hl7.org/fhir/us/cqfmeasures/StructureDefinition/cqfm-testCaseDescription",
        "valueMarkdown": "Patient with cancer diagnosis that overlaps radiation treatment management during measurement period. Pain intensity assessment was performed on the same day of but the end time was after end of radiation treatment management encounter. "
      } ],
      "modifierExtension": [ {
        "url": "http://hl7.org/fhir/us/cqfmeasures/StructureDefinition/cqfm-isTestCase",
        "valueBoolean": true
      } ],
      "status": "complete",
      "type": "individual",
      "measure": "https://madie.cms.gov/Measure/OncologyPainIntensityQuantifiedFHIR",
      "period": {
        "start": "2025-01-01",
        "end": "2025-12-31"
      },
      "group": [ {
        "population": [ {
          "code": {
            "coding": [ {
              "system": "http://terminology.hl7.org/CodeSystem/measure-population",
              "code": "initial-population",
              "display": "Initial Population"
            } ]
          },
          "count": 0
        }, {
          "code": {
            "coding": [ {
              "system": "http://terminology.hl7.org/CodeSystem/measure-population",
              "code": "denominator",
              "display": "Denominator"
            } ]
          },
          "count": 0
        }, {
          "code": {
            "coding": [ {
              "system": "http://terminology.hl7.org/CodeSystem/measure-population",
              "code": "numerator",
              "display": "Numerator"
            } ]
          },
          "count": 0
        } ]
      }, {
        "population": [ {
          "code": {
            "coding": [ {
              "system": "http://terminology.hl7.org/CodeSystem/measure-population",
              "code": "initial-population",
              "display": "Initial Population"
            } ]
          },
          "count": 1
        }, {
          "code": {
            "coding": [ {
              "system": "http://terminology.hl7.org/CodeSystem/measure-population",
              "code": "denominator",
              "display": "Denominator"
            } ]
          },
          "count": 1
        }, {
          "code": {
            "coding": [ {
              "system": "http://terminology.hl7.org/CodeSystem/measure-population",
              "code": "numerator",
              "display": "Numerator"
            } ]
          },
          "count": 1
        } ]
      } ],
      "evaluatedResource": [ {
        "reference": "https://madie.cms.gov/Patient/d7e9bf7d-2b55-4ae1-ab9e-c03cdedb1a2b"
      }, {
        "reference": "https://madie.cms.gov/Observation/5ca52608b8484613a555a938"
      }, {
        "reference": "https://madie.cms.gov/Condition/5ca52608b8484613a555a936"
      }, {
        "reference": "https://madie.cms.gov/Coverage/60099ac81c76ba64612b0658"
      }, {
        "reference": "https://madie.cms.gov/Encounter/5ca52608b8484613a555a937"
      }, {
        "reference": "https://madie.cms.gov/Organization/123456"
      }, {
        "reference": "https://madie.cms.gov/Practitioner/practitioner-123456"
      } ]
    },
    "request": {
      "method": "POST",
      "url": "MeasureReport/b06aa1cf-051a-4dec-9d26-6576aead56a5"
    }
  } ]
}