{
  "resourceType": "Bundle",
  "id": "610965b898086b538055c145",
  "type": "transaction",
  "entry": [ {
    "fullUrl": "https://madie.cms.gov/Patient/b03e8b62-8b46-442b-90ae-fc8b7cdfaf5c",
    "resource": {
      "resourceType": "Patient",
      "id": "b03e8b62-8b46-442b-90ae-fc8b7cdfaf5c",
      "meta": {
        "profile": [ "http://hl7.org/fhir/us/qicore/StructureDefinition/qicore-patient" ]
      },
      "text": {
        "status": "generated",
        "div": "<div xmlns=\"http://www.w3.org/1999/xhtml\"><div class=\"hapiHeaderText\">PatientTooOld <b>IPPFAIL </b></div><table class=\"hapiPropertyTable\"><tbody><tr><td>Identifier</td><td>ab3ba8887bf55b4391be536ef8a7da1632a707e33469b64ef734270609d3b4b0</td></tr><tr><td>Date of birth</td><td><span>01 January 1946</span></td></tr></tbody></table></div>"
      },
      "extension": [ {
        "url": "http://hl7.org/fhir/us/core/StructureDefinition/us-core-race",
        "extension": [ {
          "url": "ombCategory",
          "valueCoding": {
            "system": "urn:oid:2.16.840.1.113883.6.238",
            "code": "1002-5",
            "display": "American Indian or Alaska Native",
            "userSelected": true
          }
        }, {
          "url": "text",
          "valueString": "American Indian or Alaska Native"
        } ]
      }, {
        "url": "http://hl7.org/fhir/us/core/StructureDefinition/us-core-ethnicity",
        "extension": [ {
          "url": "ombCategory",
          "valueCoding": {
            "system": "urn:oid:2.16.840.1.113883.6.238",
            "code": "2135-2",
            "display": "Hispanic or Latino",
            "userSelected": true
          }
        }, {
          "url": "text",
          "valueString": "Hispanic or Latino"
        } ]
      } ],
      "identifier": [ {
        "type": {
          "coding": [ {
            "system": "http://terminology.hl7.org/CodeSystem/v2-0203",
            "code": "MR"
          } ]
        },
        "system": "https://bonnie-fhir.healthit.gov/",
        "value": "610965b898086b538055c145"
      } ],
      "active": true,
      "name": [ {
        "use": "usual",
        "family": "IPPFail",
        "given": [ "PatientTooOld" ]
      } ],
      "gender": "male",
      "birthDate": "1959-01-01"
    },
    "request": {
      "method": "POST",
      "url": "Patient/b03e8b62-8b46-442b-90ae-fc8b7cdfaf5c"
    }
  }, {
    "fullUrl": "https://madie.cms.gov/Encounter/5c9e578cb8484602c2f9221d",
    "resource": {
      "resourceType": "Encounter",
      "id": "5c9e578cb8484602c2f9221d",
      "meta": {
        "profile": [ "http://hl7.org/fhir/us/qicore/StructureDefinition/qicore-encounter" ]
      },
      "status": "finished",
      "class": {
        "system": "http://terminology.hl7.org/CodeSystem/v3-ActCode",
        "code": "AMB",
        "display": "ambulatory",
        "userSelected": true
      },
      "type": [ {
        "coding": [ {
          "system": "http://www.ama-assn.org/go/cpt",
          "code": "99385"
        } ]
      } ],
      "subject": {
        "reference": "Patient/b03e8b62-8b46-442b-90ae-fc8b7cdfaf5c"
      },
      "period": {
        "start": "2025-10-24T08:00:00.000+00:00",
        "end": "2025-10-24T08:15:00.000+00:00"
      }
    },
    "request": {
      "method": "POST",
      "url": "Encounter/5c9e578cb8484602c2f9221d"
    }
  }, {
    "fullUrl": "https://madie.cms.gov/MeasureReport/f143b8b6-97a5-4bd9-ab0f-1600a44a05f9",
    "resource": {
      "resourceType": "MeasureReport",
      "id": "f143b8b6-97a5-4bd9-ab0f-1600a44a05f9",
      "meta": {
        "profile": [ "http://hl7.org/fhir/us/cqfmeasures/StructureDefinition/test-case-cqfm" ]
      },
      "contained": [ {
        "resourceType": "Parameters",
        "id": "bc8728b5-afe6-4fb5-969b-39a110f925a7-parameters",
        "parameter": [ {
          "name": "subject",
          "valueString": "b03e8b62-8b46-442b-90ae-fc8b7cdfaf5c"
        } ]
      } ],
      "extension": [ {
        "url": "http://hl7.org/fhir/us/cqfmeasures/StructureDefinition/cqfm-inputParameters",
        "valueReference": {
          "reference": "#bc8728b5-afe6-4fb5-969b-39a110f925a7-parameters"
        }
      }, {
        "url": "http://hl7.org/fhir/us/cqfmeasures/StructureDefinition/cqfm-testCaseDescription",
        "valueMarkdown": "Patient too old, 66 at start of MP, with qualifying encounter."
      } ],
      "modifierExtension": [ {
        "url": "http://hl7.org/fhir/us/cqfmeasures/StructureDefinition/cqfm-isTestCase",
        "valueBoolean": true
      } ],
      "status": "complete",
      "type": "individual",
      "measure": "https://madie.cms.gov/Measure/HIVScreeningFHIR",
      "period": {
        "start": "2025-01-01",
        "end": "2025-12-31"
      },
      "group": [ {
        "population": [ {
          "code": {
            "coding": [ {
              "system": "http://terminology.hl7.org/CodeSystem/measure-population",
              "code": "initial-population",
              "display": "Initial Population"
            } ]
          },
          "count": 0
        }, {
          "code": {
            "coding": [ {
              "system": "http://terminology.hl7.org/CodeSystem/measure-population",
              "code": "denominator",
              "display": "Denominator"
            } ]
          },
          "count": 0
        }, {
          "code": {
            "coding": [ {
              "system": "http://terminology.hl7.org/CodeSystem/measure-population",
              "code": "denominator-exclusion",
              "display": "Denominator Exclusion"
            } ]
          },
          "count": 0
        }, {
          "code": {
            "coding": [ {
              "system": "http://terminology.hl7.org/CodeSystem/measure-population",
              "code": "numerator",
              "display": "Numerator"
            } ]
          },
          "count": 0
        } ]
      } ],
      "evaluatedResource": [ {
        "reference": "Patient/b03e8b62-8b46-442b-90ae-fc8b7cdfaf5c"
      }, {
        "reference": "Encounter/5c9e578cb8484602c2f9221d"
      } ]
    },
    "request": {
      "method": "POST",
      "url": "MeasureReport/f143b8b6-97a5-4bd9-ab0f-1600a44a05f9"
    }
  } ]
}