{
  "resourceType": "Bundle",
  "id": "4163431316163131",
  "type": "transaction",
  "entry": [ {
    "fullUrl": "https://madie.cms.gov/Patient/d528720a-944c-4f78-9b3f-390c55b1232b",
    "resource": {
      "resourceType": "Patient",
      "id": "d528720a-944c-4f78-9b3f-390c55b1232b",
      "meta": {
        "profile": [ "http://hl7.org/fhir/us/qicore/StructureDefinition/qicore-patient" ]
      },
      "extension": [ {
        "url": "http://hl7.org/fhir/us/core/StructureDefinition/us-core-race",
        "extension": [ {
          "url": "ombCategory",
          "valueCoding": {
            "system": "http://terminology.hl7.org/CodeSystem/v3-NullFlavor",
            "code": "UNK",
            "display": "unknown"
          }
        }, {
          "url": "text",
          "valueString": "unknown"
        } ]
      }, {
        "url": "http://hl7.org/fhir/us/core/StructureDefinition/us-core-ethnicity",
        "extension": [ {
          "url": "ombCategory",
          "valueCoding": {
            "system": "urn:oid:2.16.840.1.113883.6.238",
            "code": "2186-5",
            "display": "Not Hispanic or Latino"
          }
        }, {
          "url": "text",
          "valueString": "Not Hispanic or Latino"
        } ]
      } ],
      "identifier": [ {
        "type": {
          "coding": [ {
            "system": "http://terminology.hl7.org/CodeSystem/v2-0203",
            "code": "MR"
          } ]
        },
        "system": "https://bonnie-fhir.healthit.gov/",
        "value": "6543131313"
      } ],
      "active": true,
      "name": [ {
        "use": "usual",
        "family": "NUMERFail",
        "given": [ "MedOrderCancelledDuringEnc" ]
      } ],
      "gender": "female",
      "birthDate": "1982-07-27"
    },
    "request": {
      "method": "POST",
      "url": "Patient/d528720a-944c-4f78-9b3f-390c55b1232b"
    }
  }, {
    "fullUrl": "https://madie.cms.gov/Encounter/64131313124162",
    "resource": {
      "resourceType": "Encounter",
      "id": "64131313124162",
      "meta": {
        "profile": [ "http://hl7.org/fhir/us/qicore/StructureDefinition/qicore-encounter" ]
      },
      "status": "finished",
      "class": {
        "system": "http://terminology.hl7.org/CodeSystem/v3-ActCode",
        "code": "AMB",
        "display": "ambulatory"
      },
      "type": [ {
        "coding": [ {
          "system": "http://snomed.info/sct",
          "version": "http://snomed.info/sct/731000124108/version/20230301",
          "code": "185467006",
          "display": "Home visit for acute condition (procedure)"
        } ]
      } ],
      "subject": {
        "reference": "Patient/d528720a-944c-4f78-9b3f-390c55b1232b"
      },
      "period": {
        "start": "2025-02-27T14:40:00.000+00:00",
        "end": "2025-02-27T14:55:00.000+00:00"
      },
      "length": {
        "value": 0,
        "unit": "days"
      }
    },
    "request": {
      "method": "POST",
      "url": "Encounter/64131313124162"
    }
  }, {
    "fullUrl": "https://madie.cms.gov/Encounter/35431313154",
    "resource": {
      "resourceType": "Encounter",
      "id": "35431313154",
      "meta": {
        "profile": [ "http://hl7.org/fhir/us/qicore/StructureDefinition/qicore-encounter" ]
      },
      "status": "finished",
      "class": {
        "system": "http://terminology.hl7.org/CodeSystem/v3-ActCode",
        "code": "AMB",
        "display": "ambulatory"
      },
      "type": [ {
        "coding": [ {
          "system": "http://www.ama-assn.org/go/cpt",
          "version": "2024",
          "code": "99212"
        } ]
      } ],
      "subject": {
        "reference": "Patient/d528720a-944c-4f78-9b3f-390c55b1232b"
      },
      "period": {
        "start": "2025-06-12T11:50:00+00:00",
        "end": "2025-06-12T12:00:00+00:00"
      },
      "length": {
        "value": 0,
        "unit": "days"
      }
    },
    "request": {
      "method": "POST",
      "url": "Encounter/35431313154"
    }
  }, {
    "fullUrl": "https://madie.cms.gov/Condition/986123131351",
    "resource": {
      "resourceType": "Condition",
      "id": "986123131351",
      "meta": {
        "profile": [ "http://hl7.org/fhir/us/qicore/StructureDefinition/qicore-condition" ]
      },
      "clinicalStatus": {
        "coding": [ {
          "system": "http://terminology.hl7.org/CodeSystem/condition-clinical",
          "code": "active",
          "display": "Active"
        } ]
      },
      "verificationStatus": {
        "coding": [ {
          "system": "http://terminology.hl7.org/CodeSystem/condition-ver-status",
          "code": "confirmed",
          "display": "Confirmed"
        } ]
      },
      "category": [ {
        "coding": [ {
          "system": "http://terminology.hl7.org/CodeSystem/condition-category",
          "code": "problem-list-item",
          "display": "problem list item"
        } ]
      } ],
      "code": {
        "coding": [ {
          "system": "http://hl7.org/fhir/sid/icd-10-cm",
          "version": "2024",
          "code": "I11.0"
        } ]
      },
      "subject": {
        "reference": "Patient/d528720a-944c-4f78-9b3f-390c55b1232b"
      },
      "onsetPeriod": {
        "start": "2025-02-22T14:40:00+00:00"
      }
    },
    "request": {
      "method": "POST",
      "url": "Condition/986123131351"
    }
  }, {
    "fullUrl": "https://madie.cms.gov/Practitioner/63431313131",
    "resource": {
      "resourceType": "Practitioner",
      "id": "63431313131",
      "meta": {
        "profile": [ "http://hl7.org/fhir/us/qicore/StructureDefinition/qicore-practitioner" ]
      },
      "identifier": [ {
        "use": "temp",
        "system": "urn:oid:2.16.840.1.113883.4.336",
        "value": "Practitioner-23"
      } ],
      "active": true,
      "name": [ {
        "family": "Careful",
        "given": [ "Adam" ],
        "prefix": [ "Dr" ]
      } ],
      "address": [ {
        "use": "home",
        "line": [ "534 Erewhon St" ],
        "city": "PleasantVille",
        "state": "UT",
        "postalCode": "84414"
      } ],
      "qualification": [ {
        "identifier": [ {
          "system": "http://example.org/UniversityIdentifier",
          "value": "12345"
        } ],
        "code": {
          "coding": [ {
            "system": "http://terminology.hl7.org/CodeSystem/v2-0360",
            "code": "BS",
            "display": "Bachelor of Science"
          } ],
          "text": "Bachelor of Science"
        },
        "period": {
          "start": "1995"
        },
        "issuer": {
          "display": "Example University"
        }
      } ]
    },
    "request": {
      "method": "POST",
      "url": "Practitioner/63431313131"
    }
  }, {
    "fullUrl": "https://madie.cms.gov/MedicationRequest/54631313131",
    "resource": {
      "resourceType": "MedicationRequest",
      "id": "54631313131",
      "meta": {
        "profile": [ "http://hl7.org/fhir/us/qicore/StructureDefinition/qicore-medicationrequest" ]
      },
      "status": "cancelled",
      "intent": "order",
      "medicationCodeableConcept": {
        "coding": [ {
          "system": "http://www.nlm.nih.gov/research/umls/rxnorm",
          "version": "04012024",
          "code": "200031"
        } ]
      },
      "subject": {
        "reference": "Patient/d528720a-944c-4f78-9b3f-390c55b1232b"
      },
      "authoredOn": "2025-06-12T11:55:00.000+00:00",
      "requester": {
        "reference": "Practitioner/63431313131"
      }
    },
    "request": {
      "method": "POST",
      "url": "MedicationRequest/54631313131"
    }
  }, {
    "fullUrl": "https://madie.cms.gov/Observation/64643131351",
    "resource": {
      "resourceType": "Observation",
      "id": "64643131351",
      "meta": {
        "profile": [ "http://hl7.org/fhir/StructureDefinition/heartrate" ]
      },
      "status": "final",
      "category": [ {
        "coding": [ {
          "system": "http://terminology.hl7.org/CodeSystem/observation-category",
          "code": "vital-signs",
          "display": "Vital Signs"
        } ]
      } ],
      "code": {
        "coding": [ {
          "system": "http://loinc.org",
          "version": "2.76",
          "code": "8867-4"
        } ]
      },
      "subject": {
        "reference": "Patient/d528720a-944c-4f78-9b3f-390c55b1232b"
      },
      "effectiveDateTime": "2025-02-27T14:40:00+00:00",
      "valueQuantity": {
        "value": 45,
        "unit": "/min",
        "system": "http://unitsofmeasure.org",
        "code": "/min"
      }
    },
    "request": {
      "method": "POST",
      "url": "Observation/64643131351"
    }
  }, {
    "fullUrl": "https://madie.cms.gov/Observation/68413131351341",
    "resource": {
      "resourceType": "Observation",
      "id": "68413131351341",
      "meta": {
        "profile": [ "http://hl7.org/fhir/StructureDefinition/heartrate" ]
      },
      "status": "final",
      "category": [ {
        "coding": [ {
          "system": "http://terminology.hl7.org/CodeSystem/observation-category",
          "code": "vital-signs",
          "display": "Vital Signs"
        } ]
      } ],
      "code": {
        "coding": [ {
          "system": "http://loinc.org",
          "version": "2.76",
          "code": "8867-4"
        } ]
      },
      "subject": {
        "reference": "Patient/d528720a-944c-4f78-9b3f-390c55b1232b"
      },
      "effectiveDateTime": "2025-02-27T14:45:00.000+00:00",
      "valueQuantity": {
        "value": 45,
        "unit": "/min",
        "system": "http://unitsofmeasure.org",
        "code": "/min"
      }
    },
    "request": {
      "method": "POST",
      "url": "Observation/68413131351341"
    }
  }, {
    "fullUrl": "https://madie.cms.gov/Condition/9687641313131",
    "resource": {
      "resourceType": "Condition",
      "id": "9687641313131",
      "meta": {
        "profile": [ "http://hl7.org/fhir/us/qicore/StructureDefinition/qicore-condition" ]
      },
      "clinicalStatus": {
        "coding": [ {
          "system": "http://terminology.hl7.org/CodeSystem/condition-clinical",
          "code": "active",
          "display": "Active"
        } ]
      },
      "verificationStatus": {
        "coding": [ {
          "system": "http://terminology.hl7.org/CodeSystem/condition-ver-status",
          "code": "confirmed",
          "display": "Confirmed"
        } ]
      },
      "category": [ {
        "coding": [ {
          "system": "http://terminology.hl7.org/CodeSystem/condition-category",
          "code": "problem-list-item",
          "display": "problem list item"
        } ]
      } ],
      "severity": {
        "coding": [ {
          "system": "http://snomed.info/sct",
          "version": "http://snomed.info/sct/731000124108/version/20240301",
          "code": "24484000",
          "display": "Severe (severity modifier) (qualifier value)"
        } ]
      },
      "code": {
        "coding": [ {
          "system": "http://snomed.info/sct",
          "version": "http://snomed.info/sct/731000124108/version/20240301",
          "code": "134401001",
          "display": "Left ventricular systolic dysfunction (disorder)"
        } ]
      },
      "subject": {
        "reference": "Patient/d528720a-944c-4f78-9b3f-390c55b1232b"
      },
      "onsetPeriod": {
        "start": "2025-02-18T14:40:00.000+00:00",
        "end": "2025-02-18T14:55:00.000+00:00"
      }
    },
    "request": {
      "method": "POST",
      "url": "Condition/9687641313131"
    }
  }, {
    "fullUrl": "https://madie.cms.gov/MeasureReport/5db96251-3a5f-4de1-845c-a4c7c3b07199",
    "resource": {
      "resourceType": "MeasureReport",
      "id": "5db96251-3a5f-4de1-845c-a4c7c3b07199",
      "meta": {
        "profile": [ "http://hl7.org/fhir/us/cqfmeasures/StructureDefinition/test-case-cqfm" ]
      },
      "contained": [ {
        "resourceType": "Parameters",
        "id": "31bc0810-4081-40ef-8e1a-44675f5ae0ee-parameters",
        "parameter": [ {
          "name": "subject",
          "valueString": "d528720a-944c-4f78-9b3f-390c55b1232b"
        } ]
      } ],
      "extension": [ {
        "url": "http://hl7.org/fhir/us/cqfmeasures/StructureDefinition/cqfm-inputParameters",
        "valueReference": {
          "reference": "#31bc0810-4081-40ef-8e1a-44675f5ae0ee-parameters"
        }
      }, {
        "url": "http://hl7.org/fhir/us/cqfmeasures/StructureDefinition/cqfm-testCaseDescription",
        "valueMarkdown": "Patient without beta blocker active medication d/t order cancellation"
      } ],
      "modifierExtension": [ {
        "url": "http://hl7.org/fhir/us/cqfmeasures/StructureDefinition/cqfm-isTestCase",
        "valueBoolean": true
      } ],
      "status": "complete",
      "type": "individual",
      "measure": "https://madie.cms.gov/Measure/HFBetaBlockerTherapyforLVSDFHIR",
      "period": {
        "start": "2025-01-01",
        "end": "2025-12-31"
      },
      "group": [ {
        "population": [ {
          "code": {
            "coding": [ {
              "system": "http://terminology.hl7.org/CodeSystem/measure-population",
              "code": "initial-population",
              "display": "Initial Population"
            } ]
          },
          "count": 1
        }, {
          "code": {
            "coding": [ {
              "system": "http://terminology.hl7.org/CodeSystem/measure-population",
              "code": "denominator",
              "display": "Denominator"
            } ]
          },
          "count": 1
        }, {
          "code": {
            "coding": [ {
              "system": "http://terminology.hl7.org/CodeSystem/measure-population",
              "code": "denominator-exclusion",
              "display": "Denominator Exclusion"
            } ]
          },
          "count": 0
        }, {
          "code": {
            "coding": [ {
              "system": "http://terminology.hl7.org/CodeSystem/measure-population",
              "code": "numerator",
              "display": "Numerator"
            } ]
          },
          "count": 0
        }, {
          "code": {
            "coding": [ {
              "system": "http://terminology.hl7.org/CodeSystem/measure-population",
              "code": "denominator-exception",
              "display": "Denominator Exception"
            } ]
          },
          "count": 0
        } ]
      } ],
      "evaluatedResource": [ {
        "reference": "https://madie.cms.gov/Patient/d528720a-944c-4f78-9b3f-390c55b1232b"
      }, {
        "reference": "https://madie.cms.gov/Encounter/64131313124162"
      }, {
        "reference": "https://madie.cms.gov/Encounter/35431313154"
      }, {
        "reference": "https://madie.cms.gov/Condition/986123131351"
      }, {
        "reference": "https://madie.cms.gov/Practitioner/63431313131"
      }, {
        "reference": "https://madie.cms.gov/MedicationRequest/54631313131"
      }, {
        "reference": "https://madie.cms.gov/Observation/64643131351"
      }, {
        "reference": "https://madie.cms.gov/Observation/68413131351341"
      }, {
        "reference": "https://madie.cms.gov/Condition/9687641313131"
      } ]
    },
    "request": {
      "method": "POST",
      "url": "MeasureReport/5db96251-3a5f-4de1-845c-a4c7c3b07199"
    }
  } ]
}