{"resourceType":"Bundle","id":"tests-6e9a1974-7334-4c41-b8dd-8413ae0caa29-bundle","type":"transaction","entry":[{"fullUrl":"https://madie.cms.gov/Patient/6e9a1974-7334-4c41-b8dd-8413ae0caa29","resource":{"resourceType":"Patient","id":"6e9a1974-7334-4c41-b8dd-8413ae0caa29","meta":{"profile":["http://hl7.org/fhir/us/qicore/StructureDefinition/qicore-patient"]},"extension":[{"url":"http://hl7.org/fhir/us/core/StructureDefinition/us-core-race","extension":[{"url":"ombCategory","valueCoding":{"system":"urn:oid:2.16.840.1.113883.6.238","code":"2106-3","display":"White"}},{"url":"text","valueString":"White"}]},{"url":"http://hl7.org/fhir/us/core/StructureDefinition/us-core-ethnicity","extension":[{"url":"ombCategory","valueCoding":{"system":"urn:oid:2.16.840.1.113883.6.238","code":"2186-5","display":"Not Hispanic or Latino"}},{"url":"text","valueString":"Not Hispanic or Latino"}]}],"identifier":[{"type":{"coding":[{"system":"http://terminology.hl7.org/CodeSystem/v2-0203","code":"MR"}]},"system":"https://bonnie-fhir.healthit.gov/","value":"5c7ee46fdce5e92041158c43"}],"name":[{"family":"NUMERFail","given":["BCGB4StagingBackNotClinicallyRelevant"]}],"gender":"female","birthDate":"1944-11-02"},"request":{"method":"PUT","url":"Patient/6e9a1974-7334-4c41-b8dd-8413ae0caa29"}},{"fullUrl":"https://madie.cms.gov/Encounter/3554313131","resource":{"resourceType":"Encounter","id":"b4a854cf-05d1-4e7d-a2f6-5e964a86b622","meta":{"profile":["http://hl7.org/fhir/us/qicore/StructureDefinition/qicore-encounter"]},"status":"finished","class":{"system":"http://terminology.hl7.org/CodeSystem/v3-ActCode","code":"AMB","display":"ambulatory"},"type":[{"coding":[{"system":"http://snomed.info/sct","version":"http://snomed.info/sct/731000124108/version/20240301","code":"185463005","display":"Visit out of hours (procedure)"}]}],"subject":{"reference":"Patient/6e9a1974-7334-4c41-b8dd-8413ae0caa29"},"period":{"start":"2025-04-06T08:00:00.000+00:00","end":"2025-04-06T08:15:00.000+00:00"}},"request":{"method":"PUT","url":"Encounter/b4a854cf-05d1-4e7d-a2f6-5e964a86b622"}},{"fullUrl":"https://madie.cms.gov/Condition/463546463464","resource":{"resourceType":"Condition","id":"bbeae3c0-4769-49fe-a5ac-43bbf54e57be","meta":{"profile":["http://hl7.org/fhir/us/qicore/StructureDefinition/qicore-condition"]},"clinicalStatus":{"coding":[{"system":"http://terminology.hl7.org/CodeSystem/condition-clinical","code":"active","display":"Active"}]},"verificationStatus":{"coding":[{"system":"http://terminology.hl7.org/CodeSystem/condition-ver-status","code":"confirmed","display":"Confirmed"}]},"category":[{"coding":[{"system":"http://terminology.hl7.org/CodeSystem/condition-category","code":"problem-list-item","display":"Problem List Item"}]}],"code":{"coding":[{"system":"http://hl7.org/fhir/sid/icd-10-cm","version":"2024","code":"C67.1","display":"Malignant neoplasm of dome of bladder"}]},"subject":{"reference":"Patient/6e9a1974-7334-4c41-b8dd-8413ae0caa29"},"onsetDateTime":"2025-04-06T08:00:00.000+00:00"},"request":{"method":"PUT","url":"Condition/bbeae3c0-4769-49fe-a5ac-43bbf54e57be"}},{"fullUrl":"https://madie.cms.gov/Observation/7496463164","resource":{"resourceType":"Observation","id":"4af7ba9d-e022-41c8-819f-6082346b26e4","meta":{"profile":["http://hl7.org/fhir/us/qicore/StructureDefinition/qicore-observation"]},"partOf":[{"reference":"Procedure/313135131"}],"status":"final","category":[{"coding":[{"system":"http://terminology.hl7.org/CodeSystem/observation-category","code":"procedure","display":"Procedure"}]}],"code":{"coding":[{"system":"http://loinc.org","code":"21902-2","display":"Stage group.pathology Cancer"}]},"subject":{"reference":"Patient/6e9a1974-7334-4c41-b8dd-8413ae0caa29"},"effectivePeriod":{"start":"2025-04-06T08:00:00.000+00:00","end":"2025-04-06T08:15:00.000+00:00"},"issued":"2025-04-06T08:15:00.000+00:00","valueCodeableConcept":{"coding":[{"system":"http://snomed.info/sct","version":"http://snomed.info/sct/731000124108/version/20240301","code":"1228883000","display":"American Joint Committee on Cancer cTa (qualifier value)"}]}},"request":{"method":"PUT","url":"Observation/4af7ba9d-e022-41c8-819f-6082346b26e4"}},{"fullUrl":"https://madie.cms.gov/MedicationAdministration/31346430","resource":{"resourceType":"MedicationAdministration","id":"919208e6-bbf7-4e9e-a973-5d310ae40330","meta":{"profile":["http://hl7.org/fhir/us/qicore/StructureDefinition/qicore-medicationadministration"]},"extension":[{"url":"http://hl7.org/fhir/us/qicore/StructureDefinition/qicore-recorded","valueDateTime":"2013-02-02T08:00:00.000+00:00"}],"status":"in-progress","medicationCodeableConcept":{"coding":[{"system":"http://www.nlm.nih.gov/research/umls/rxnorm","version":"http://snomed.info/sct/731000124108/version/20240301","code":"1653484","display":"BCG, Tice strain 50 MG for Intravesical Suspension"}]},"subject":{"reference":"http://GoodHealthcare.com/fhir/Patient/46464646"},"effectivePeriod":{"start":"2025-04-06T08:00:00.000+00:00","end":"2025-04-06T08:15:00.000+00:00"}},"request":{"method":"PUT","url":"MedicationAdministration/919208e6-bbf7-4e9e-a973-5d310ae40330"}},{"fullUrl":"https://madie.cms.gov/Practitioner/3103303","resource":{"resourceType":"Practitioner","id":"23e4ca02-77a9-4839-beb7-fe088c823f31","meta":{"profile":["http://hl7.org/fhir/us/qicore/StructureDefinition/qicore-practitioner"]},"identifier":[{"use":"temp","system":"urn:oid:2.16.840.1.113883.4.336","value":"Practitioner-23"}],"active":true,"name":[{"family":"Careful","given":["Adam"],"prefix":["Dr"]}],"address":[{"use":"home","line":["534 Erewhon St"],"city":"PleasantVille","state":"UT","postalCode":"84414"}],"qualification":[{"identifier":[{"system":"http://example.org/UniversityIdentifier","value":"12345"}],"code":{"coding":[{"system":"http://terminology.hl7.org/CodeSystem/v2-0360|2.7","code":"BS","display":"Bachelor of Science"}],"text":"Bachelor of Science"},"period":{"start":"1995"},"issuer":{"display":"Example University"}}]},"request":{"method":"PUT","url":"Practitioner/23e4ca02-77a9-4839-beb7-fe088c823f31"}},{"fullUrl":"https://madie.cms.gov/Procedure/313135131","resource":{"resourceType":"Procedure","id":"3ff561e1-7767-4637-a5ef-4133b7f1b55f","meta":{"profile":["http://hl7.org/fhir/us/qicore/StructureDefinition/qicore-procedure"]},"extension":[{"url":"http://hl7.org/fhir/us/qicore/StructureDefinition/qicore-recorded","valueDateTime":"2025-02-01T08:00:00.000+00:00"}],"status":"completed","code":{"coding":[{"system":"http://snomed.info/sct","version":"http://snomed.info/sct/731000124108/version/20240301","code":"254292007","display":"Tumor staging"}]},"subject":{"reference":"Patient/6e9a1974-7334-4c41-b8dd-8413ae0caa29"},"performedPeriod":{"start":"2025-04-06T08:00:00.000+00:00","end":"2025-04-06T08:15:00.000+00:00"}},"request":{"method":"PUT","url":"Procedure/3ff561e1-7767-4637-a5ef-4133b7f1b55f"}},{"fullUrl":"https://madie.cms.gov/MeasureReport/78e49a20-1b10-45c0-b860-30db3a04d159","resource":{"resourceType":"MeasureReport","id":"78e49a20-1b10-45c0-b860-30db3a04d159","meta":{"profile":["http://hl7.org/fhir/us/cqfmeasures/StructureDefinition/test-case-cqfm"]},"contained":[{"resourceType":"Parameters","id":"d318a14c-45ca-4b03-b727-4fa44a6db0a2-parameters","parameter":[{"name":"subject","valueString":"6e9a1974-7334-4c41-b8dd-8413ae0caa29"}]}],"extension":[{"url":"http://hl7.org/fhir/us/cqfmeasures/StructureDefinition/cqfm-inputParameters","valueReference":{"reference":"#d318a14c-45ca-4b03-b727-4fa44a6db0a2-parameters"}},{"url":"http://hl7.org/fhir/us/cqfmeasures/StructureDefinition/cqfm-testCaseDescription","valueMarkdown":"Female patient with OV in MP and initial bladder CA dx but staging delayed.  BCG given before staging results back.  Clinically improbable. Should fail  Performed as expected."}],"modifierExtension":[{"url":"http://hl7.org/fhir/us/cqfmeasures/StructureDefinition/cqfm-isTestCase","valueBoolean":true}],"status":"complete","type":"individual","measure":"https://madie.cms.gov/Measure/IntravesicalBacillusCalmetteGuerinForBladderCancerFHIR","period":{"start":"2025-01-01","end":"2025-12-31"},"group":[{"population":[{"code":{"coding":[{"system":"http://terminology.hl7.org/CodeSystem/measure-population","code":"initial-population","display":"Initial Population"}]},"count":1},{"code":{"coding":[{"system":"http://terminology.hl7.org/CodeSystem/measure-population","code":"denominator","display":"Denominator"}]},"count":1},{"code":{"coding":[{"system":"http://terminology.hl7.org/CodeSystem/measure-population","code":"denominator-exclusion","display":"Denominator Exclusion"}]},"count":0},{"code":{"coding":[{"system":"http://terminology.hl7.org/CodeSystem/measure-population","code":"numerator","display":"Numerator"}]},"count":0},{"code":{"coding":[{"system":"http://terminology.hl7.org/CodeSystem/measure-population","code":"denominator-exception","display":"Denominator Exception"}]},"count":0}]}]},"request":{"method":"PUT","url":"MeasureReport/78e49a20-1b10-45c0-b860-30db3a04d159"}}]}