{"resourceType":"Bundle","id":"tests-b487e8da-c244-4cb8-9575-48eab7d7c28d-bundle","type":"transaction","entry":[{"fullUrl":"https://madie.cms.gov/Patient/b487e8da-c244-4cb8-9575-48eab7d7c28d","resource":{"resourceType":"Patient","id":"b487e8da-c244-4cb8-9575-48eab7d7c28d","meta":{"profile":["http://hl7.org/fhir/us/qicore/StructureDefinition/qicore-patient"]},"extension":[{"url":"http://hl7.org/fhir/us/core/StructureDefinition/us-core-race","extension":[{"url":"ombCategory","valueCoding":{"system":"urn:oid:2.16.840.1.113883.6.238","code":"2106-3","display":"White"}},{"url":"text","valueString":"White"}]},{"url":"http://hl7.org/fhir/us/core/StructureDefinition/us-core-ethnicity","extension":[{"url":"ombCategory","valueCoding":{"system":"urn:oid:2.16.840.1.113883.6.238","code":"2135-2","display":"Hispanic or Latino"}},{"url":"text","valueString":"Hispanic or Latino"}]}],"identifier":[{"type":{"coding":[{"system":"http://terminology.hl7.org/CodeSystem/v2-0203","code":"MR"}]},"system":"https://bonnie-fhir.healthit.gov/","value":"1241254783asdf13215321sd"}],"name":[{"family":"DENOMPass","given":["OV1stDayOfYearEdge"]}],"gender":"female","birthDate":"1943-03-15"},"request":{"method":"PUT","url":"Patient/b487e8da-c244-4cb8-9575-48eab7d7c28d"}},{"fullUrl":"https://madie.cms.gov/Condition/16656311","resource":{"resourceType":"Condition","id":"70c217d5-7528-4f5d-b1a6-7b2acd72605e","meta":{"profile":["http://hl7.org/fhir/us/qicore/StructureDefinition/qicore-condition"]},"clinicalStatus":{"coding":[{"system":"http://terminology.hl7.org/CodeSystem/condition-clinical","code":"active","display":"Active"}]},"verificationStatus":{"coding":[{"system":"http://terminology.hl7.org/CodeSystem/condition-ver-status","code":"confirmed","display":"Confirmed"}]},"category":[{"coding":[{"system":"http://terminology.hl7.org/CodeSystem/condition-category","code":"problem-list-item","display":"Problem List Item"}]}],"code":{"coding":[{"system":"http://hl7.org/fhir/sid/icd-10-cm","version":"2024","code":"C67.1","display":"Malignant neoplasm of dome of bladder"}]},"subject":{"reference":"Patient/b487e8da-c244-4cb8-9575-48eab7d7c28d"},"onsetPeriod":{"start":"2025-01-01T08:00:00.000+00:00"}},"request":{"method":"PUT","url":"Condition/70c217d5-7528-4f5d-b1a6-7b2acd72605e"}},{"fullUrl":"https://madie.cms.gov/Encounter/8132032421","resource":{"resourceType":"Encounter","id":"1f56b9f1-04e0-4f82-9412-f599964dd750","meta":{"profile":["http://hl7.org/fhir/us/qicore/StructureDefinition/qicore-encounter"]},"status":"finished","class":{"system":"http://terminology.hl7.org/CodeSystem/v3-ActCode","code":"AMB","display":"ambulatory"},"type":[{"coding":[{"system":"http://snomed.info/sct","version":"http://snomed.info/sct/731000124108/version/20240301","code":"185463005","display":"Visit out of hours (procedure)"}]}],"subject":{"reference":"Patient/b487e8da-c244-4cb8-9575-48eab7d7c28d"},"period":{"start":"2025-01-01T08:00:00.000+00:00","end":"2025-01-01T08:15:00.000+00:00"}},"request":{"method":"PUT","url":"Encounter/1f56b9f1-04e0-4f82-9412-f599964dd750"}},{"fullUrl":"https://madie.cms.gov/Procedure/73035131030","resource":{"resourceType":"Procedure","id":"c4433c04-5e28-44be-b974-e5e88c8ef307","meta":{"profile":["http://hl7.org/fhir/us/qicore/StructureDefinition/qicore-procedure"]},"extension":[{"url":"http://hl7.org/fhir/us/qicore/StructureDefinition/qicore-recorded","valueDateTime":"2025-04-06T08:00:00.000+00:00"}],"status":"completed","code":{"coding":[{"system":"http://snomed.info/sct","version":"http://snomed.info/sct/731000124108/version/20240301","code":"254292007","display":"Tumor staging"}]},"subject":{"reference":"Patient/b487e8da-c244-4cb8-9575-48eab7d7c28d"},"performedPeriod":{"start":"2025-01-01T08:00:00.000+00:00","end":"2025-01-01T08:15:00.000+00:00"}},"request":{"method":"PUT","url":"Procedure/c4433c04-5e28-44be-b974-e5e88c8ef307"}},{"fullUrl":"https://madie.cms.gov/Observation/4135134163132032","resource":{"resourceType":"Observation","id":"46151d58-b4f7-4885-a686-83eb256e7719","meta":{"profile":["http://hl7.org/fhir/us/qicore/StructureDefinition/qicore-observation"]},"partOf":[{"reference":"Procedure/73035131030"}],"status":"final","category":[{"coding":[{"system":"http://terminology.hl7.org/CodeSystem/observation-category","code":"procedure","display":"Procedure"}]}],"code":{"coding":[{"system":"http://loinc.org","version":"2.76","code":"21902-2","display":"Stage group.pathology Cancer"}]},"subject":{"reference":"Patient/b487e8da-c244-4cb8-9575-48eab7d7c28d"},"effectivePeriod":{"start":"2025-01-01T08:00:00.000+00:00","end":"2025-01-01T08:15:00.000+00:00"},"issued":"2025-01-01T08:10:00.000+00:00","valueCodeableConcept":{"coding":[{"system":"http://hl7.org/fhir/sid/icd-10-cm","version":"http://snomed.info/sct/731000124108/version/20240301","code":"D09.0","display":"Carcinoma in situ of bladder"}]}},"request":{"method":"PUT","url":"Observation/46151d58-b4f7-4885-a686-83eb256e7719"}},{"fullUrl":"https://madie.cms.gov/MeasureReport/68377133-6206-4b99-9bc3-24f214150694","resource":{"resourceType":"MeasureReport","id":"68377133-6206-4b99-9bc3-24f214150694","meta":{"profile":["http://hl7.org/fhir/us/cqfmeasures/StructureDefinition/test-case-cqfm"]},"contained":[{"resourceType":"Parameters","id":"ac1d8c46-d925-4a44-a286-0522f12c1f19-parameters","parameter":[{"name":"subject","valueString":"b487e8da-c244-4cb8-9575-48eab7d7c28d"}]}],"extension":[{"url":"http://hl7.org/fhir/us/cqfmeasures/StructureDefinition/cqfm-inputParameters","valueReference":{"reference":"#ac1d8c46-d925-4a44-a286-0522f12c1f19-parameters"}},{"url":"http://hl7.org/fhir/us/cqfmeasures/StructureDefinition/cqfm-testCaseDescription","valueMarkdown":"Patient with bladder cancer and office visit on first day of MP.  Edge testing.  Tested elements of DENOM pass."}],"modifierExtension":[{"url":"http://hl7.org/fhir/us/cqfmeasures/StructureDefinition/cqfm-isTestCase","valueBoolean":true}],"status":"complete","type":"individual","measure":"https://madie.cms.gov/Measure/IntravesicalBacillusCalmetteGuerinForBladderCancerFHIR","period":{"start":"2025-01-01","end":"2025-12-31"},"group":[{"population":[{"code":{"coding":[{"system":"http://terminology.hl7.org/CodeSystem/measure-population","code":"initial-population","display":"Initial Population"}]},"count":1},{"code":{"coding":[{"system":"http://terminology.hl7.org/CodeSystem/measure-population","code":"denominator","display":"Denominator"}]},"count":1},{"code":{"coding":[{"system":"http://terminology.hl7.org/CodeSystem/measure-population","code":"denominator-exclusion","display":"Denominator Exclusion"}]},"count":0},{"code":{"coding":[{"system":"http://terminology.hl7.org/CodeSystem/measure-population","code":"numerator","display":"Numerator"}]},"count":0},{"code":{"coding":[{"system":"http://terminology.hl7.org/CodeSystem/measure-population","code":"denominator-exception","display":"Denominator Exception"}]},"count":0}]}]},"request":{"method":"PUT","url":"MeasureReport/68377133-6206-4b99-9bc3-24f214150694"}}]}