{"resourceType":"Bundle","id":"tests-aaf16c93-5fa4-451f-aecf-38112e202353-bundle","type":"transaction","entry":[{"fullUrl":"https://madie.cms.gov/Patient/aaf16c93-5fa4-451f-aecf-38112e202353","resource":{"resourceType":"Patient","id":"aaf16c93-5fa4-451f-aecf-38112e202353","meta":{"profile":["http://hl7.org/fhir/us/qicore/StructureDefinition/qicore-patient"]},"extension":[{"url":"http://hl7.org/fhir/us/core/StructureDefinition/us-core-race","extension":[{"url":"ombCategory","valueCoding":{"system":"urn:oid:2.16.840.1.113883.6.238","code":"2106-3","display":"White"}},{"url":"text","valueString":"White"}]},{"url":"http://hl7.org/fhir/us/core/StructureDefinition/us-core-ethnicity","extension":[{"url":"ombCategory","valueCoding":{"system":"urn:oid:2.16.840.1.113883.6.238","code":"2135-2","display":"Hispanic or Latino"}},{"url":"text","valueString":"Hispanic or Latino"}]}],"identifier":[{"type":{"coding":[{"system":"http://terminology.hl7.org/CodeSystem/v2-0203","code":"MR"}]},"system":"https://bonnie-fhir.healthit.gov/","value":"1241254783asdf13215321sd"}],"name":[{"family":"DENOMPass","given":["OV1stDayOfYearEdge"]}],"gender":"female","birthDate":"1943-03-15"},"request":{"method":"PUT","url":"Patient/aaf16c93-5fa4-451f-aecf-38112e202353"}},{"fullUrl":"https://madie.cms.gov/Condition/16656311","resource":{"resourceType":"Condition","id":"99be832e-bea6-4030-9745-fbb403483a3f","meta":{"profile":["http://hl7.org/fhir/us/qicore/StructureDefinition/qicore-condition"]},"clinicalStatus":{"coding":[{"system":"http://terminology.hl7.org/CodeSystem/condition-clinical","code":"active","display":"Active"}]},"verificationStatus":{"coding":[{"system":"http://terminology.hl7.org/CodeSystem/condition-ver-status","code":"confirmed","display":"Confirmed"}]},"category":[{"coding":[{"system":"http://terminology.hl7.org/CodeSystem/condition-category","code":"problem-list-item","display":"Problem List Item"}]}],"code":{"coding":[{"system":"http://hl7.org/fhir/sid/icd-10-cm","version":"2024","code":"C67.1","display":"Malignant neoplasm of dome of bladder"}]},"subject":{"reference":"Patient/aaf16c93-5fa4-451f-aecf-38112e202353"},"onsetPeriod":{"start":"2025-01-01T08:00:00.000+00:00"}},"request":{"method":"PUT","url":"Condition/99be832e-bea6-4030-9745-fbb403483a3f"}},{"fullUrl":"https://madie.cms.gov/Encounter/8132032421","resource":{"resourceType":"Encounter","id":"d4e9587f-3bc1-4b50-aee6-549b14bf3c2e","meta":{"profile":["http://hl7.org/fhir/us/qicore/StructureDefinition/qicore-encounter"]},"status":"finished","class":{"system":"http://terminology.hl7.org/CodeSystem/v3-ActCode","code":"AMB","display":"ambulatory"},"type":[{"coding":[{"system":"http://snomed.info/sct","version":"http://snomed.info/sct/731000124108/version/20240301","code":"185463005","display":"Visit out of hours (procedure)"}]}],"subject":{"reference":"Patient/aaf16c93-5fa4-451f-aecf-38112e202353"},"period":{"start":"2025-01-01T08:00:00.000+00:00","end":"2025-01-01T08:15:00.000+00:00"}},"request":{"method":"PUT","url":"Encounter/d4e9587f-3bc1-4b50-aee6-549b14bf3c2e"}},{"fullUrl":"https://madie.cms.gov/Procedure/73035131030","resource":{"resourceType":"Procedure","id":"b98db0c3-cb47-4ea2-a532-d62f159487be","meta":{"profile":["http://hl7.org/fhir/us/qicore/StructureDefinition/qicore-procedure"]},"extension":[{"url":"http://hl7.org/fhir/us/qicore/StructureDefinition/qicore-recorded","valueDateTime":"2025-04-06T08:00:00.000+00:00"}],"status":"completed","code":{"coding":[{"system":"http://snomed.info/sct","version":"http://snomed.info/sct/731000124108/version/20240301","code":"254292007","display":"Tumor staging"}]},"subject":{"reference":"Patient/aaf16c93-5fa4-451f-aecf-38112e202353"},"performedPeriod":{"start":"2025-01-01T08:00:00.000+00:00","end":"2025-01-01T08:15:00.000+00:00"}},"request":{"method":"PUT","url":"Procedure/b98db0c3-cb47-4ea2-a532-d62f159487be"}},{"fullUrl":"https://madie.cms.gov/Observation/4135134163132032","resource":{"resourceType":"Observation","id":"8a17e1b1-1ff7-465c-af2b-a05b4c1dd360","meta":{"profile":["http://hl7.org/fhir/us/qicore/StructureDefinition/qicore-observation"]},"partOf":[{"reference":"Procedure/73035131030"}],"status":"final","category":[{"coding":[{"system":"http://terminology.hl7.org/CodeSystem/observation-category","code":"procedure","display":"Procedure"}]}],"code":{"coding":[{"system":"http://loinc.org","version":"2.76","code":"21902-2","display":"Stage group.pathology Cancer"}]},"subject":{"reference":"Patient/aaf16c93-5fa4-451f-aecf-38112e202353"},"effectivePeriod":{"start":"2025-01-01T08:00:00.000+00:00","end":"2025-01-01T08:15:00.000+00:00"},"issued":"2025-01-01T08:10:00.000+00:00","valueCodeableConcept":{"coding":[{"system":"http://hl7.org/fhir/sid/icd-10-cm","version":"http://snomed.info/sct/731000124108/version/20240301","code":"D09.0","display":"Carcinoma in situ of bladder"}]}},"request":{"method":"PUT","url":"Observation/8a17e1b1-1ff7-465c-af2b-a05b4c1dd360"}},{"fullUrl":"https://madie.cms.gov/MeasureReport/5cf1e305-7be7-439e-b9e0-a45076f5f204","resource":{"resourceType":"MeasureReport","id":"5cf1e305-7be7-439e-b9e0-a45076f5f204","meta":{"profile":["http://hl7.org/fhir/us/cqfmeasures/StructureDefinition/test-case-cqfm"]},"contained":[{"resourceType":"Parameters","id":"0eb6486a-04cb-4c2e-abb4-5b5b6fad1d9d-parameters","parameter":[{"name":"subject","valueString":"aaf16c93-5fa4-451f-aecf-38112e202353"}]}],"extension":[{"url":"http://hl7.org/fhir/us/cqfmeasures/StructureDefinition/cqfm-inputParameters","valueReference":{"reference":"#0eb6486a-04cb-4c2e-abb4-5b5b6fad1d9d-parameters"}},{"url":"http://hl7.org/fhir/us/cqfmeasures/StructureDefinition/cqfm-testCaseDescription","valueMarkdown":"Female with OV in MP. Has Bladder Cancer and Bladder Cancer staging with first BCG in MP but with wrong code Fails as expected."}],"modifierExtension":[{"url":"http://hl7.org/fhir/us/cqfmeasures/StructureDefinition/cqfm-isTestCase","valueBoolean":true}],"status":"complete","type":"individual","measure":"https://madie.cms.gov/Measure/IntravesicalBacillusCalmetteGuerinForBladderCancerFHIR","period":{"start":"2025-01-01","end":"2025-12-31"},"group":[{"population":[{"code":{"coding":[{"system":"http://terminology.hl7.org/CodeSystem/measure-population","code":"initial-population","display":"Initial Population"}]},"count":1},{"code":{"coding":[{"system":"http://terminology.hl7.org/CodeSystem/measure-population","code":"denominator","display":"Denominator"}]},"count":1},{"code":{"coding":[{"system":"http://terminology.hl7.org/CodeSystem/measure-population","code":"denominator-exclusion","display":"Denominator Exclusion"}]},"count":0},{"code":{"coding":[{"system":"http://terminology.hl7.org/CodeSystem/measure-population","code":"numerator","display":"Numerator"}]},"count":0},{"code":{"coding":[{"system":"http://terminology.hl7.org/CodeSystem/measure-population","code":"denominator-exception","display":"Denominator Exception"}]},"count":0}]}]},"request":{"method":"PUT","url":"MeasureReport/5cf1e305-7be7-439e-b9e0-a45076f5f204"}}]}