{"resourceType":"Bundle","id":"tests-af5c9227-1845-4023-8b4f-ec4eb2fce33a-bundle","type":"transaction","entry":[{"fullUrl":"https://madie.cms.gov/Patient/af5c9227-1845-4023-8b4f-ec4eb2fce33a","resource":{"resourceType":"Patient","id":"af5c9227-1845-4023-8b4f-ec4eb2fce33a","meta":{"profile":["http://hl7.org/fhir/us/qicore/StructureDefinition/qicore-patient"]},"extension":[{"url":"http://hl7.org/fhir/us/core/StructureDefinition/us-core-race","extension":[{"url":"ombCategory","valueCoding":{"system":"urn:oid:2.16.840.1.113883.6.238","code":"1002-5","display":"American Indian or Alaska Native"}},{"url":"text","valueString":"American Indian or Alaska Native"}]},{"url":"http://hl7.org/fhir/us/core/StructureDefinition/us-core-ethnicity","extension":[{"url":"ombCategory","valueCoding":{"system":"urn:oid:2.16.840.1.113883.6.238","code":"2135-2","display":"Hispanic or Latino"}},{"url":"text","valueString":"Hispanic or Latino"}]}],"identifier":[{"type":{"coding":[{"system":"http://terminology.hl7.org/CodeSystem/v2-0203","code":"MR"}]},"system":"https://bonnie-fhir.healthit.gov/","value":"62bc69333e113102f8cedca6"}],"name":[{"family":"DENEXPass","given":["Cystectomy6MonthsPriorEdge"]}],"gender":"female","birthDate":"1946-02-01"},"request":{"method":"PUT","url":"Patient/af5c9227-1845-4023-8b4f-ec4eb2fce33a"}},{"fullUrl":"https://madie.cms.gov/Encounter/office-visit-dca7","resource":{"resourceType":"Encounter","id":"a37715e2-a7eb-4104-a051-35721b8e96b7","meta":{"profile":["http://hl7.org/fhir/us/qicore/StructureDefinition/qicore-encounter"]},"status":"finished","class":{"system":"http://terminology.hl7.org/CodeSystem/v3-ActCode","code":"AMB","display":"ambulatory"},"type":[{"coding":[{"system":"http://snomed.info/sct","version":"http://snomed.info/sct/731000124108/version/20240301","code":"185463005","display":"Visit out of hours (procedure)"}]}],"subject":{"reference":"Patient/af5c9227-1845-4023-8b4f-ec4eb2fce33a"},"period":{"start":"2025-12-30T08:00:00.000+00:00","end":"2025-12-30T09:15:00.000+00:00"}},"request":{"method":"PUT","url":"Encounter/a37715e2-a7eb-4104-a051-35721b8e96b7"}},{"fullUrl":"https://madie.cms.gov/Procedure/denex-pass-CMS646v0QICore4-3","resource":{"resourceType":"Procedure","id":"bd26d917-1c89-4b88-9d75-29fa655b0d7f","meta":{"profile":["http://hl7.org/fhir/us/qicore/StructureDefinition/qicore-procedure"]},"extension":[{"url":"http://hl7.org/fhir/us/qicore/StructureDefinition/qicore-recorded","valueDateTime":"2025-01-01T08:00:00.000+00:00"}],"status":"completed","code":{"coding":[{"system":"http://www.ama-assn.org/go/cpt","version":"2024","code":"51585","display":"Cystectomy Done","userSelected":true}]},"subject":{"reference":"Patient/af5c9227-1845-4023-8b4f-ec4eb2fce33a"},"performedPeriod":{"start":"2025-01-01T08:00:00.000+00:00","end":"2025-01-01T08:15:00.000+00:00"}},"request":{"method":"PUT","url":"Procedure/bd26d917-1c89-4b88-9d75-29fa655b0d7f"}},{"fullUrl":"https://madie.cms.gov/Condition/prostate-cancer-dca8","resource":{"resourceType":"Condition","id":"3d2fc571-b927-4474-9b88-d560f4b9cf96","meta":{"profile":["http://hl7.org/fhir/us/qicore/StructureDefinition/qicore-condition"]},"clinicalStatus":{"coding":[{"system":"http://terminology.hl7.org/CodeSystem/condition-clinical","code":"active","display":"Active"}]},"verificationStatus":{"coding":[{"system":"http://terminology.hl7.org/CodeSystem/condition-ver-status","code":"confirmed","display":"Confirmed"}]},"category":[{"coding":[{"system":"http://terminology.hl7.org/CodeSystem/condition-category","code":"problem-list-item","display":"Problem List Item"}]}],"code":{"coding":[{"system":"http://hl7.org/fhir/sid/icd-10-cm","version":"2024","code":"C67.3","display":"Malignant neoplasm of anterior wall of bladder"}]},"subject":{"reference":"Patient/af5c9227-1845-4023-8b4f-ec4eb2fce33a"},"onsetDateTime":"2025-06-30T08:00:00.000+00:00"},"request":{"method":"PUT","url":"Condition/3d2fc571-b927-4474-9b88-d560f4b9cf96"}},{"fullUrl":"https://madie.cms.gov/Observation/denex-pass-CMS646v0QICore4-4","resource":{"resourceType":"Observation","id":"e5392c20-8fe2-47bf-8c8d-75d13099e1bf","meta":{"profile":["http://hl7.org/fhir/us/qicore/StructureDefinition/qicore-observation"]},"partOf":[{"reference":"Procedure/denex-pass-CMS646v0QICore4-3"}],"status":"final","category":[{"coding":[{"system":"http://terminology.hl7.org/CodeSystem/observation-category","code":"procedure","display":"Procedure"}]}],"code":{"coding":[{"system":"http://loinc.org","version":"2.76","code":"21902-2","display":"Stage group.pathology Cancer"}]},"subject":{"reference":"Patient/af5c9227-1845-4023-8b4f-ec4eb2fce33a"},"effectivePeriod":{"start":"2025-06-30T08:00:00.000+00:00","end":"2025-06-30T08:15:00.000+00:00"},"issued":"2025-06-30T08:15:00.000+00:00","valueCodeableConcept":{"coding":[{"system":"http://snomed.info/sct","version":"http://snomed.info/sct/731000124108/version/20240301","code":"1228883000","display":"American Joint Committee on Cancer cTa (qualifier value)"}]}},"request":{"method":"PUT","url":"Observation/e5392c20-8fe2-47bf-8c8d-75d13099e1bf"}},{"fullUrl":"https://madie.cms.gov/Practitioner/13143134531634","resource":{"resourceType":"Practitioner","id":"4538e91c-7a9f-4d0a-ba9b-f16502d9d9fb","meta":{"profile":["http://hl7.org/fhir/us/qicore/StructureDefinition/qicore-practitioner"]},"identifier":[{"use":"temp","system":"urn:oid:2.16.840.1.113883.4.336","value":"Practitioner-23"}],"active":true,"name":[{"family":"Careful","given":["Adam"],"prefix":["Dr"]}],"address":[{"use":"home","line":["534 Erewhon St"],"city":"PleasantVille","state":"UT","postalCode":"84414"}],"qualification":[{"identifier":[{"system":"http://example.org/UniversityIdentifier","value":"12345"}],"code":{"coding":[{"system":"http://terminology.hl7.org/CodeSystem/v2-0360|2.7","code":"BS","display":"Bachelor of Science"}],"text":"Bachelor of Science"},"period":{"start":"1995"},"issuer":{"display":"Example University"}}]},"request":{"method":"PUT","url":"Practitioner/4538e91c-7a9f-4d0a-ba9b-f16502d9d9fb"}},{"fullUrl":"https://madie.cms.gov/Procedure/denex-pass-CMS646v0QICore4-5","resource":{"resourceType":"Procedure","id":"ae0eb9c8-f441-4c8b-80c7-5fdae921352b","meta":{"profile":["http://hl7.org/fhir/us/qicore/StructureDefinition/qicore-procedure"]},"extension":[{"url":"http://hl7.org/fhir/us/qicore/StructureDefinition/qicore-recorded","valueDateTime":"2025-06-30T08:00:00.000+00:00"}],"status":"completed","code":{"coding":[{"system":"http://snomed.info/sct","version":"http://snomed.info/sct/731000124108/version/20240301","code":"254292007","display":"Tumor staging","userSelected":true}]},"subject":{"reference":"Patient/af5c9227-1845-4023-8b4f-ec4eb2fce33a"},"performedPeriod":{"start":"2025-06-30T08:00:00.000+00:00","end":"2025-06-30T08:15:00.000+00:00"}},"request":{"method":"PUT","url":"Procedure/ae0eb9c8-f441-4c8b-80c7-5fdae921352b"}},{"fullUrl":"https://madie.cms.gov/MeasureReport/d1b80bca-16e1-4b2c-8b44-e57c8e0f5b8e","resource":{"resourceType":"MeasureReport","id":"d1b80bca-16e1-4b2c-8b44-e57c8e0f5b8e","meta":{"profile":["http://hl7.org/fhir/us/cqfmeasures/StructureDefinition/test-case-cqfm"]},"contained":[{"resourceType":"Parameters","id":"e8369006-5542-4ba0-bc51-12e5b6ddaf4d-parameters","parameter":[{"name":"subject","valueString":"af5c9227-1845-4023-8b4f-ec4eb2fce33a"}]}],"extension":[{"url":"http://hl7.org/fhir/us/cqfmeasures/StructureDefinition/cqfm-inputParameters","valueReference":{"reference":"#e8369006-5542-4ba0-bc51-12e5b6ddaf4d-parameters"}},{"url":"http://hl7.org/fhir/us/cqfmeasures/StructureDefinition/cqfm-testCaseDescription","valueMarkdown":"Patient with OV in MP. Bladder cancer diagnosis and cancer staging in MP.  Pt had a cystectomy 6 mo prior and should be excluded. "}],"modifierExtension":[{"url":"http://hl7.org/fhir/us/cqfmeasures/StructureDefinition/cqfm-isTestCase","valueBoolean":true}],"status":"complete","type":"individual","measure":"https://madie.cms.gov/Measure/IntravesicalBacillusCalmetteGuerinForBladderCancerFHIR","period":{"start":"2025-01-01","end":"2025-12-31"},"group":[{"population":[{"code":{"coding":[{"system":"http://terminology.hl7.org/CodeSystem/measure-population","code":"initial-population","display":"Initial Population"}]},"count":1},{"code":{"coding":[{"system":"http://terminology.hl7.org/CodeSystem/measure-population","code":"denominator","display":"Denominator"}]},"count":1},{"code":{"coding":[{"system":"http://terminology.hl7.org/CodeSystem/measure-population","code":"denominator-exclusion","display":"Denominator Exclusion"}]},"count":1},{"code":{"coding":[{"system":"http://terminology.hl7.org/CodeSystem/measure-population","code":"numerator","display":"Numerator"}]},"count":0},{"code":{"coding":[{"system":"http://terminology.hl7.org/CodeSystem/measure-population","code":"denominator-exception","display":"Denominator Exception"}]},"count":0}]}]},"request":{"method":"PUT","url":"MeasureReport/d1b80bca-16e1-4b2c-8b44-e57c8e0f5b8e"}}]}