{"resourceType":"Bundle","id":"tests-767d95ff-7723-4059-aed9-410c57143fa9-bundle","type":"transaction","entry":[{"fullUrl":"https://madie.cms.gov/Patient/767d95ff-7723-4059-aed9-410c57143fa9","resource":{"resourceType":"Patient","id":"767d95ff-7723-4059-aed9-410c57143fa9","meta":{"profile":["http://hl7.org/fhir/us/qicore/StructureDefinition/qicore-patient"]},"extension":[{"url":"http://hl7.org/fhir/us/core/StructureDefinition/us-core-race","extension":[{"url":"ombCategory","valueCoding":{"system":"urn:oid:2.16.840.1.113883.6.238","code":"2106-3","display":"White"}},{"url":"text","valueString":"White"}]},{"url":"http://hl7.org/fhir/us/core/StructureDefinition/us-core-ethnicity","extension":[{"url":"ombCategory","valueCoding":{"system":"urn:oid:2.16.840.1.113883.6.238","code":"2186-5","display":"Not Hispanic or Latino"}},{"url":"text","valueString":"Not Hispanic or Latino"}]}],"identifier":[{"type":{"coding":[{"system":"http://terminology.hl7.org/CodeSystem/v2-0203","code":"MR"}]},"system":"https://bonnie-fhir.healthit.gov/","value":"41835164313131"}],"name":[{"family":"IPFail","given":["OV1DayPriorToMP"]}],"gender":"male","birthDate":"1925-04-01"},"request":{"method":"PUT","url":"Patient/767d95ff-7723-4059-aed9-410c57143fa9"}},{"fullUrl":"https://madie.cms.gov/Encounter/46456131031","resource":{"resourceType":"Encounter","id":"bd725370-6552-407b-be28-336f4d34f571","meta":{"profile":["http://hl7.org/fhir/us/qicore/StructureDefinition/qicore-encounter"]},"status":"finished","class":{"system":"http://terminology.hl7.org/CodeSystem/v3-ActCode","code":"AMB","display":"ambulatory"},"type":[{"coding":[{"system":"http://www.ama-assn.org/go/cpt","version":"2024","code":"99213","display":"Established patient office or other outpatient visit, 20-29 minutes"}]}],"subject":{"reference":"Patient/767d95ff-7723-4059-aed9-410c57143fa9"},"period":{"start":"2024-12-31T08:00:00.000+00:00","end":"2024-12-31T08:15:00.000+00:00"}},"request":{"method":"PUT","url":"Encounter/bd725370-6552-407b-be28-336f4d34f571"}},{"fullUrl":"https://madie.cms.gov/Condition/6346431354","resource":{"resourceType":"Condition","id":"7f9f3f7c-1248-4855-a62f-22cb2c679c89","meta":{"profile":["http://hl7.org/fhir/us/qicore/StructureDefinition/qicore-condition"]},"clinicalStatus":{"coding":[{"system":"http://terminology.hl7.org/CodeSystem/condition-clinical","code":"active","display":"Active"}]},"verificationStatus":{"coding":[{"system":"http://terminology.hl7.org/CodeSystem/condition-ver-status","code":"confirmed","display":"Confirmed"}]},"category":[{"coding":[{"system":"http://terminology.hl7.org/CodeSystem/condition-category","code":"problem-list-item","display":"Problem List Item"}]}],"code":{"coding":[{"system":"http://hl7.org/fhir/sid/icd-10-cm","version":"2024","code":"C67.1","display":"Malignant neoplasm of dome of bladder"}]},"subject":{"reference":"Patient/767d95ff-7723-4059-aed9-410c57143fa9"},"onsetDateTime":"2024-12-20T08:00:00.000+00:00"},"request":{"method":"PUT","url":"Condition/7f9f3f7c-1248-4855-a62f-22cb2c679c89"}},{"fullUrl":"https://madie.cms.gov/Observation/7496463164","resource":{"resourceType":"Observation","id":"47175073-df8c-4e33-869e-dd460fb82194","meta":{"profile":["http://hl7.org/fhir/us/qicore/StructureDefinition/qicore-observation"]},"partOf":[{"reference":"Procedure/313135131"}],"status":"final","category":[{"coding":[{"system":"http://terminology.hl7.org/CodeSystem/observation-category","code":"procedure","display":"Procedure"}]}],"code":{"coding":[{"system":"http://loinc.org","version":"2.76","code":"21902-2","display":"Stage group.pathology Cancer"}]},"subject":{"reference":"Patient/767d95ff-7723-4059-aed9-410c57143fa9"},"effectivePeriod":{"start":"2024-12-22T08:00:00.000+00:00","end":"2024-12-22T08:15:00.000+00:00"},"issued":"2024-12-22T08:15:00.000+00:00","valueCodeableConcept":{"coding":[{"system":"http://snomed.info/sct","version":"http://snomed.info/sct/731000124108/version/20240301","code":"369935001","display":"T1: Urinary tract tumor invades subepithelial connective tissue (finding)"}]}},"request":{"method":"PUT","url":"Observation/47175073-df8c-4e33-869e-dd460fb82194"}},{"fullUrl":"https://madie.cms.gov/Procedure/313135131","resource":{"resourceType":"Procedure","id":"930d47e5-9b25-494c-a382-91505070b226","meta":{"profile":["http://hl7.org/fhir/us/qicore/StructureDefinition/qicore-procedure"]},"extension":[{"url":"http://hl7.org/fhir/us/qicore/StructureDefinition/qicore-recorded","valueDateTime":"2024-12-22T08:00:00.000+00:00"}],"status":"completed","code":{"coding":[{"system":"http://snomed.info/sct","version":"http://snomed.info/sct/731000124108/version/20240301","code":"254292007","display":"Tumor staging"}]},"subject":{"reference":"Patient/767d95ff-7723-4059-aed9-410c57143fa9"},"performedPeriod":{"start":"2024-12-22T08:00:00.000+00:00","end":"2024-12-22T08:15:00.000+00:00"}},"request":{"method":"PUT","url":"Procedure/930d47e5-9b25-494c-a382-91505070b226"}},{"fullUrl":"https://madie.cms.gov/MeasureReport/2e4d2008-3da0-4f78-a27e-528b93aef64f","resource":{"resourceType":"MeasureReport","id":"2e4d2008-3da0-4f78-a27e-528b93aef64f","meta":{"profile":["http://hl7.org/fhir/us/cqfmeasures/StructureDefinition/test-case-cqfm"]},"contained":[{"resourceType":"Parameters","id":"1c28faac-732d-49c2-9007-83f3230ad54a-parameters","parameter":[{"name":"subject","valueString":"767d95ff-7723-4059-aed9-410c57143fa9"}]}],"extension":[{"url":"http://hl7.org/fhir/us/cqfmeasures/StructureDefinition/cqfm-inputParameters","valueReference":{"reference":"#1c28faac-732d-49c2-9007-83f3230ad54a-parameters"}},{"url":"http://hl7.org/fhir/us/cqfmeasures/StructureDefinition/cqfm-testCaseDescription","valueMarkdown":"Patient has Bladder Cancer and Bladder Cancer staging ,but office visit is 1 day prior to MP"}],"modifierExtension":[{"url":"http://hl7.org/fhir/us/cqfmeasures/StructureDefinition/cqfm-isTestCase","valueBoolean":true}],"status":"complete","type":"individual","measure":"https://madie.cms.gov/Measure/IntravesicalBacillusCalmetteGuerinForBladderCancerFHIR","period":{"start":"2025-01-01","end":"2025-12-31"},"group":[{"population":[{"code":{"coding":[{"system":"http://terminology.hl7.org/CodeSystem/measure-population","code":"initial-population","display":"Initial Population"}]},"count":0},{"code":{"coding":[{"system":"http://terminology.hl7.org/CodeSystem/measure-population","code":"denominator","display":"Denominator"}]},"count":0},{"code":{"coding":[{"system":"http://terminology.hl7.org/CodeSystem/measure-population","code":"denominator-exclusion","display":"Denominator Exclusion"}]},"count":0},{"code":{"coding":[{"system":"http://terminology.hl7.org/CodeSystem/measure-population","code":"numerator","display":"Numerator"}]},"count":0},{"code":{"coding":[{"system":"http://terminology.hl7.org/CodeSystem/measure-population","code":"denominator-exception","display":"Denominator Exception"}]},"count":0}]}]},"request":{"method":"PUT","url":"MeasureReport/2e4d2008-3da0-4f78-a27e-528b93aef64f"}}]}