{"resourceType":"Bundle","id":"tests-ab48e0c0-6543-4537-8f00-bfcdcba7a81b-bundle","type":"transaction","entry":[{"fullUrl":"https://madie.cms.gov/Patient/ab48e0c0-6543-4537-8f00-bfcdcba7a81b","resource":{"resourceType":"Patient","id":"ab48e0c0-6543-4537-8f00-bfcdcba7a81b","meta":{"profile":["http://hl7.org/fhir/us/qicore/StructureDefinition/qicore-patient"]},"extension":[{"url":"http://hl7.org/fhir/us/core/StructureDefinition/us-core-race","extension":[{"url":"ombCategory","valueCoding":{"system":"urn:oid:2.16.840.1.113883.6.238","code":"2076-8","display":"Native Hawaiian or Other Pacific Islander"}},{"url":"text","valueString":"Native Hawaiian or Other Pacific Islander"}]},{"url":"http://hl7.org/fhir/us/core/StructureDefinition/us-core-ethnicity","extension":[{"url":"ombCategory","valueCoding":{"system":"urn:oid:2.16.840.1.113883.6.238","code":"2186-5","display":"Not Hispanic or Latino"}},{"url":"text","valueString":"Not Hispanic or Latino"}]}],"identifier":[{"type":{"coding":[{"system":"http://terminology.hl7.org/CodeSystem/v2-0203","code":"MR"}]},"system":"https://bonnie-fhir.healthit.gov/","value":"60d4bda907206d58cd96b128"}],"name":[{"family":"NUMERFail","given":["BCGBeforeStagingBackNotClinicallyRelevant"]}],"gender":"female","birthDate":"1950-12-25"},"request":{"method":"PUT","url":"Patient/ab48e0c0-6543-4537-8f00-bfcdcba7a81b"}},{"fullUrl":"https://madie.cms.gov/Encounter/64646103516461","resource":{"resourceType":"Encounter","id":"614c757d-fb67-4bd2-b2ff-66540f3780c7","meta":{"profile":["http://hl7.org/fhir/us/qicore/StructureDefinition/qicore-encounter"]},"status":"finished","class":{"system":"http://terminology.hl7.org/CodeSystem/v3-ActCode","code":"AMB","display":"ambulatory"},"type":[{"coding":[{"system":"http://snomed.info/sct","version":"http://snomed.info/sct/731000124108/version/20240301","code":"185463005","display":"Visit out of hours (procedure)"}]}],"subject":{"reference":"Patient/ab48e0c0-6543-4537-8f00-bfcdcba7a81b"},"period":{"start":"2025-04-02T08:00:00.000+00:00","end":"2025-04-02T09:15:00.000+00:00"}},"request":{"method":"PUT","url":"Encounter/614c757d-fb67-4bd2-b2ff-66540f3780c7"}},{"fullUrl":"https://madie.cms.gov/Condition/64646103516462","resource":{"resourceType":"Condition","id":"b575394f-6adf-4da2-9fec-9e4eab81a6ab","meta":{"profile":["http://hl7.org/fhir/us/qicore/StructureDefinition/qicore-condition"]},"clinicalStatus":{"coding":[{"system":"http://terminology.hl7.org/CodeSystem/condition-clinical","code":"active","display":"Active"}]},"verificationStatus":{"coding":[{"system":"http://terminology.hl7.org/CodeSystem/condition-ver-status","code":"confirmed","display":"Confirmed"}]},"category":[{"coding":[{"system":"http://terminology.hl7.org/CodeSystem/condition-category","code":"problem-list-item","display":"Problem List Item"}]}],"code":{"coding":[{"system":"http://hl7.org/fhir/sid/icd-10-cm","version":"2024","code":"C67.1","display":"Malignant neoplasm of dome of bladder"}]},"subject":{"reference":"Patient/ab48e0c0-6543-4537-8f00-bfcdcba7a81b"},"onsetPeriod":{"start":"2025-04-02T08:00:00.000+00:00"}},"request":{"method":"PUT","url":"Condition/b575394f-6adf-4da2-9fec-9e4eab81a6ab"}},{"fullUrl":"https://madie.cms.gov/Procedure/64646103516463","resource":{"resourceType":"Procedure","id":"5a25bc41-525a-46de-8901-31ea0fcf6f12","meta":{"profile":["http://hl7.org/fhir/us/qicore/StructureDefinition/qicore-procedure"]},"extension":[{"url":"http://hl7.org/fhir/us/qicore/StructureDefinition/qicore-recorded","valueDateTime":"2025-04-06T08:00:00.000+00:00"}],"status":"completed","code":{"coding":[{"system":"http://snomed.info/sct","version":"http://snomed.info/sct/731000124108/version/20240301","code":"254292007","display":"Tumor staging"}]},"subject":{"reference":"Patient/ab48e0c0-6543-4537-8f00-bfcdcba7a81b"},"performedPeriod":{"start":"2025-04-02T08:00:00.000+00:00","end":"2025-04-06T08:15:00.000+00:00"}},"request":{"method":"PUT","url":"Procedure/5a25bc41-525a-46de-8901-31ea0fcf6f12"}},{"fullUrl":"https://madie.cms.gov/Observation/64646103516464","resource":{"resourceType":"Observation","id":"602e0699-6586-4a13-8556-1a37c0f02101","meta":{"profile":["http://hl7.org/fhir/us/qicore/StructureDefinition/qicore-observation"]},"partOf":[{"reference":"Procedure/64646103516463"}],"status":"final","category":[{"coding":[{"system":"http://terminology.hl7.org/CodeSystem/observation-category","code":"procedure","display":"Procedure"}]}],"code":{"coding":[{"system":"http://loinc.org","version":"2.76","code":"21902-2","display":"Stage group.pathology Cancer"}]},"subject":{"reference":"Patient/ab48e0c0-6543-4537-8f00-bfcdcba7a81b"},"effectivePeriod":{"start":"2025-02-01T08:00:00.000+00:00","end":"2025-06-02T08:15:00.000+00:00"},"issued":"2025-06-02T08:15:00.000+00:00","valueCodeableConcept":{"coding":[{"system":"http://snomed.info/sct","version":"http://snomed.info/sct/731000124108/version/20240301","code":"1228883000","display":"American Joint Committee on Cancer cTa (qualifier value)"}]}},"request":{"method":"PUT","url":"Observation/602e0699-6586-4a13-8556-1a37c0f02101"}},{"fullUrl":"https://madie.cms.gov/MedicationAdministration/64646103516465","resource":{"resourceType":"MedicationAdministration","id":"ac440129-023a-4558-abe9-22a41d9e8415","meta":{"profile":["http://hl7.org/fhir/us/qicore/StructureDefinition/qicore-medicationadministration"]},"status":"completed","medicationCodeableConcept":{"coding":[{"system":"http://www.nlm.nih.gov/research/umls/rxnorm","version":"04012024","code":"1653484","display":"BCG, live, Tice strain 50 MG/ML Topical Suspension"}]},"subject":{"reference":"Patient/ab48e0c0-6543-4537-8f00-bfcdcba7a81b"},"effectivePeriod":{"start":"2025-04-02T08:00:00.000+00:00","end":"2025-04-02T08:15:00.000+00:00"}},"request":{"method":"PUT","url":"MedicationAdministration/ac440129-023a-4558-abe9-22a41d9e8415"}},{"fullUrl":"https://madie.cms.gov/MeasureReport/80e63d7b-330e-40bd-9fd6-a2e360fca253","resource":{"resourceType":"MeasureReport","id":"80e63d7b-330e-40bd-9fd6-a2e360fca253","meta":{"profile":["http://hl7.org/fhir/us/cqfmeasures/StructureDefinition/test-case-cqfm"]},"contained":[{"resourceType":"Parameters","id":"6d93b0bf-cc4c-4701-ae30-4eeea46f0f11-parameters","parameter":[{"name":"subject","valueString":"ab48e0c0-6543-4537-8f00-bfcdcba7a81b"}]}],"extension":[{"url":"http://hl7.org/fhir/us/cqfmeasures/StructureDefinition/cqfm-inputParameters","valueReference":{"reference":"#6d93b0bf-cc4c-4701-ae30-4eeea46f0f11-parameters"}},{"url":"http://hl7.org/fhir/us/cqfmeasures/StructureDefinition/cqfm-testCaseDescription","valueMarkdown":"Female patient with OV in MP and initial bladder CA dx but staging delayed.  BCG given before staging results back.  Clinically improbable. Should fail  Performed as expected."}],"modifierExtension":[{"url":"http://hl7.org/fhir/us/cqfmeasures/StructureDefinition/cqfm-isTestCase","valueBoolean":true}],"status":"complete","type":"individual","measure":"https://madie.cms.gov/Measure/IntravesicalBacillusCalmetteGuerinForBladderCancerFHIR","period":{"start":"2025-01-01","end":"2025-12-31"},"group":[{"population":[{"code":{"coding":[{"system":"http://terminology.hl7.org/CodeSystem/measure-population","code":"initial-population","display":"Initial Population"}]},"count":1},{"code":{"coding":[{"system":"http://terminology.hl7.org/CodeSystem/measure-population","code":"denominator","display":"Denominator"}]},"count":1},{"code":{"coding":[{"system":"http://terminology.hl7.org/CodeSystem/measure-population","code":"denominator-exclusion","display":"Denominator Exclusion"}]},"count":0},{"code":{"coding":[{"system":"http://terminology.hl7.org/CodeSystem/measure-population","code":"numerator","display":"Numerator"}]},"count":0},{"code":{"coding":[{"system":"http://terminology.hl7.org/CodeSystem/measure-population","code":"denominator-exception","display":"Denominator Exception"}]},"count":0}]}]},"request":{"method":"PUT","url":"MeasureReport/80e63d7b-330e-40bd-9fd6-a2e360fca253"}}]}