{"resourceType":"Bundle","id":"tests-342d2bec-0acc-43e5-aaf7-3c9a65b09f91-bundle","type":"transaction","entry":[{"fullUrl":"https://madie.cms.gov/Patient/342d2bec-0acc-43e5-aaf7-3c9a65b09f91","resource":{"resourceType":"Patient","id":"342d2bec-0acc-43e5-aaf7-3c9a65b09f91","meta":{"profile":["http://hl7.org/fhir/us/qicore/StructureDefinition/qicore-patient"]},"extension":[{"url":"http://hl7.org/fhir/us/core/StructureDefinition/us-core-race","extension":[{"url":"ombCategory","valueCoding":{"system":"urn:oid:2.16.840.1.113883.6.238","code":"2106-3","display":"White"}},{"url":"detailed","valueCoding":{"system":"urn:oid:2.16.840.1.113883.6.238","code":"2036-2","display":"Filipino"}},{"url":"text","valueString":"mixed"}]},{"url":"http://hl7.org/fhir/us/core/StructureDefinition/us-core-ethnicity","extension":[{"url":"ombCategory","valueCoding":{"system":"urn:oid:2.16.840.1.113883.6.238","code":"2135-2","display":"Hispanic or Latino"}},{"url":"detailed","valueCoding":{"system":"urn:oid:2.16.840.1.113883.6.238","code":"2148-5","display":"Mexican"}},{"url":"text","valueString":"Hispanic or Latino"}]}],"identifier":[{"type":{"coding":[{"system":"http://terminology.hl7.org/CodeSystem/v2-0203","code":"MR"}]},"system":"https://bonnie-fhir.healthit.gov/","value":"98465413516846513641"}],"name":[{"family":"DENEXPass","given":["ImmunosuppresiveMedEventB4BCS"]}],"gender":"female","birthDate":"1946-11-03"},"request":{"method":"PUT","url":"Patient/342d2bec-0acc-43e5-aaf7-3c9a65b09f91"}},{"fullUrl":"https://madie.cms.gov/Encounter/6846813166132","resource":{"resourceType":"Encounter","id":"2d423030-f8cc-444b-bf46-8d5ef639cba6","meta":{"profile":["http://hl7.org/fhir/us/qicore/StructureDefinition/qicore-encounter"]},"status":"finished","class":{"system":"http://terminology.hl7.org/CodeSystem/v3-ActCode","code":"AMB","display":"ambulatory"},"type":[{"coding":[{"system":"http://snomed.info/sct","version":"http://snomed.info/sct/731000124108/version/20240301","code":"185463005","display":"Visit out of hours (procedure)"}]}],"subject":{"reference":"Patient/342d2bec-0acc-43e5-aaf7-3c9a65b09f91"},"period":{"start":"2025-04-06T08:00:00.000+00:00","end":"2025-04-06T09:15:00.000+00:00"}},"request":{"method":"PUT","url":"Encounter/2d423030-f8cc-444b-bf46-8d5ef639cba6"}},{"fullUrl":"https://madie.cms.gov/Condition/4514651320351","resource":{"resourceType":"Condition","id":"24de9eae-8641-4b6f-800c-db8d33ddec1c","meta":{"profile":["http://hl7.org/fhir/us/qicore/StructureDefinition/qicore-condition"]},"clinicalStatus":{"coding":[{"system":"http://terminology.hl7.org/CodeSystem/condition-clinical","code":"active","display":"Active"}]},"verificationStatus":{"coding":[{"system":"http://terminology.hl7.org/CodeSystem/condition-ver-status","code":"confirmed","display":"Confirmed"}]},"category":[{"coding":[{"system":"http://terminology.hl7.org/CodeSystem/condition-category","code":"problem-list-item","display":"Problem List Item"}]}],"code":{"coding":[{"system":"http://hl7.org/fhir/sid/icd-10-cm","version":"2024","code":"C67.1","display":"Malignant neoplasm of dome of bladder"}]},"subject":{"reference":"Patient/342d2bec-0acc-43e5-aaf7-3c9a65b09f91"},"onsetPeriod":{"start":"2025-04-06T08:00:00.000+00:00"}},"request":{"method":"PUT","url":"Condition/24de9eae-8641-4b6f-800c-db8d33ddec1c"}},{"fullUrl":"https://madie.cms.gov/MedicationRequest/681asdf351635031233232","resource":{"resourceType":"MedicationRequest","id":"4a2edb08-ff85-4de8-891a-09433d5c04df","meta":{"profile":["http://hl7.org/fhir/us/qicore/StructureDefinition/qicore-medicationrequest"]},"status":"completed","intent":"order","medicationCodeableConcept":{"coding":[{"system":"http://www.nlm.nih.gov/research/umls/rxnorm","version":"08072023","code":"1303125","display":"prednisone 1 MG Delayed Release Oral Tablet"}]},"subject":{"reference":"Patient/342d2bec-0acc-43e5-aaf7-3c9a65b09f91"},"authoredOn":"2025-03-03T14:00:00.000+00:00","requester":{"reference":"Practitioner/1351644115135131"},"dosageInstruction":[{"timing":{"event":["2025-03-03T14:00:00.000+00:00","2025-06-03T14:00:00.000+00:00"]}}]},"request":{"method":"PUT","url":"MedicationRequest/4a2edb08-ff85-4de8-891a-09433d5c04df"}},{"fullUrl":"https://madie.cms.gov/Procedure/46984656161","resource":{"resourceType":"Procedure","id":"d4d2e967-ea91-4f35-a015-ac274dfa3d52","meta":{"profile":["http://hl7.org/fhir/us/qicore/StructureDefinition/qicore-procedure"]},"extension":[{"url":"http://hl7.org/fhir/us/qicore/StructureDefinition/qicore-recorded","valueDateTime":"2025-04-06T08:00:00.000+00:00"}],"status":"completed","code":{"coding":[{"system":"http://snomed.info/sct","version":"http://snomed.info/sct/731000124108/version/20240301","code":"254292007","display":"Tumor staging"}]},"subject":{"reference":"Patient/342d2bec-0acc-43e5-aaf7-3c9a65b09f91"},"performedDateTime":"2025-04-06T08:00:00.000+00:00"},"request":{"method":"PUT","url":"Procedure/d4d2e967-ea91-4f35-a015-ac274dfa3d52"}},{"fullUrl":"https://madie.cms.gov/Coverage/1","resource":{"resourceType":"Coverage","id":"5e31d556-d6cb-42a6-a0a0-f04e729ff933","meta":{"profile":["http://hl7.org/fhir/us/qicore/StructureDefinition/qicore-coverage"]},"status":"active","type":{"coding":[{"system":"https://nahdo.org/sopt","code":"59","display":"Other Private Insurance"}]},"beneficiary":{"reference":"Patient/342d2bec-0acc-43e5-aaf7-3c9a65b09f91"},"period":{"start":"2024-05-01","end":"2025-04-27"},"payor":[{"reference":"Organization/4b5a882f-1f43-485c-85c6-f5ad2337d5b1"}]},"request":{"method":"PUT","url":"Coverage/5e31d556-d6cb-42a6-a0a0-f04e729ff933"}},{"fullUrl":"https://madie.cms.gov/Organization/123456","resource":{"resourceType":"Organization","id":"4b5a882f-1f43-485c-85c6-f5ad2337d5b1","meta":{"profile":["http://hl7.org/fhir/us/qicore/StructureDefinition/qicore-organization"]},"identifier":[{"use":"temp","system":"urn:oid:2.16.840.1.113883.4.4","value":"21-3259825"}],"active":true,"type":[{"coding":[{"system":"http://terminology.hl7.org/CodeSystem/organization-type","code":"pay","display":"Payer"}]}],"name":"Blue Cross Blue Shield of Texas","telecom":[{"system":"phone","value":"(+1) 972-766-6900"}],"address":[{"use":"billing","type":"postal","line":["P.O. Box 660044"],"city":"Dallas","state":"TX","postalCode":"75266-0044","country":"USA"}]},"request":{"method":"PUT","url":"Organization/4b5a882f-1f43-485c-85c6-f5ad2337d5b1"}},{"fullUrl":"https://madie.cms.gov/Practitioner/practitioner-123456","resource":{"resourceType":"Practitioner","id":"20b80d2a-d706-4537-9c50-35372d430f12","meta":{"profile":["http://hl7.org/fhir/us/qicore/StructureDefinition/qicore-practitioner"]},"identifier":[{"system":"http://hl7.org/fhir/sid/us-npi","value":"123456"}],"name":[{"family":"Evil","prefix":["Dr"]}]},"request":{"method":"PUT","url":"Practitioner/20b80d2a-d706-4537-9c50-35372d430f12"}},{"fullUrl":"https://madie.cms.gov/Observation/879846516461","resource":{"resourceType":"Observation","id":"9bb6352d-2d30-406f-a75e-8df815d44972","meta":{"profile":["http://hl7.org/fhir/us/qicore/StructureDefinition/qicore-observation"]},"partOf":[{"reference":"Procedure/46984656161"}],"status":"final","category":[{"coding":[{"system":"http://terminology.hl7.org/CodeSystem/observation-category","code":"procedure","display":"Procedure"}]}],"code":{"coding":[{"system":"http://loinc.org","version":"2.76","code":"21902-2","display":"Stage group.pathology Cancer"}]},"subject":{"reference":"Patient/342d2bec-0acc-43e5-aaf7-3c9a65b09f91"},"effectiveDateTime":"2025-04-06T08:00:00.000+00:00","issued":"2025-04-06T08:10:00.000+00:00","valueCodeableConcept":{"coding":[{"system":"http://snomed.info/sct","version":"http://snomed.info/sct/731000124108/version/20240301","code":"1228884006","display":"American Joint Committee on Cancer cTis (qualifier value)"}]}},"request":{"method":"PUT","url":"Observation/9bb6352d-2d30-406f-a75e-8df815d44972"}},{"fullUrl":"https://madie.cms.gov/MeasureReport/e98b226a-f34e-49a4-b5a9-a20a1eeca8ab","resource":{"resourceType":"MeasureReport","id":"e98b226a-f34e-49a4-b5a9-a20a1eeca8ab","meta":{"profile":["http://hl7.org/fhir/us/cqfmeasures/StructureDefinition/test-case-cqfm"]},"contained":[{"resourceType":"Parameters","id":"3a50831f-62d1-4c82-8df0-6b4988704596-parameters","parameter":[{"name":"subject","valueString":"342d2bec-0acc-43e5-aaf7-3c9a65b09f91"}]}],"extension":[{"url":"http://hl7.org/fhir/us/cqfmeasures/StructureDefinition/cqfm-inputParameters","valueReference":{"reference":"#3a50831f-62d1-4c82-8df0-6b4988704596-parameters"}},{"url":"http://hl7.org/fhir/us/cqfmeasures/StructureDefinition/cqfm-testCaseDescription","valueMarkdown":"Patient's most recent bladder cancer tumor staging is Tis. Patient has Medication Request for prednisone before BCS which qualifies for denominator exclusion. Uses Event timing."}],"modifierExtension":[{"url":"http://hl7.org/fhir/us/cqfmeasures/StructureDefinition/cqfm-isTestCase","valueBoolean":true}],"status":"complete","type":"individual","measure":"https://madie.cms.gov/Measure/IntravesicalBacillusCalmetteGuerinForBladderCancerFHIR","period":{"start":"2025-01-01","end":"2025-12-31"},"group":[{"population":[{"code":{"coding":[{"system":"http://terminology.hl7.org/CodeSystem/measure-population","code":"initial-population","display":"Initial Population"}]},"count":1},{"code":{"coding":[{"system":"http://terminology.hl7.org/CodeSystem/measure-population","code":"denominator","display":"Denominator"}]},"count":1},{"code":{"coding":[{"system":"http://terminology.hl7.org/CodeSystem/measure-population","code":"denominator-exclusion","display":"Denominator Exclusion"}]},"count":1},{"code":{"coding":[{"system":"http://terminology.hl7.org/CodeSystem/measure-population","code":"numerator","display":"Numerator"}]},"count":0},{"code":{"coding":[{"system":"http://terminology.hl7.org/CodeSystem/measure-population","code":"denominator-exception","display":"Denominator Exception"}]},"count":0}]}]},"request":{"method":"PUT","url":"MeasureReport/e98b226a-f34e-49a4-b5a9-a20a1eeca8ab"}}]}