{"resourceType":"Bundle","id":"tests-8b5ba7de-6762-4bf2-a2b3-fba46594f026-bundle","type":"transaction","entry":[{"fullUrl":"https://madie.cms.gov/Patient/8b5ba7de-6762-4bf2-a2b3-fba46594f026","resource":{"resourceType":"Patient","id":"8b5ba7de-6762-4bf2-a2b3-fba46594f026","meta":{"profile":["http://hl7.org/fhir/us/qicore/StructureDefinition/qicore-patient"]},"extension":[{"url":"http://hl7.org/fhir/us/core/StructureDefinition/us-core-race","extension":[{"url":"ombCategory","valueCoding":{"system":"urn:oid:2.16.840.1.113883.6.238","code":"2076-8","display":"Native Hawaiian or Other Pacific Islander"}},{"url":"text","valueString":"Native Hawaiian or Other Pacific Islander"}]},{"url":"http://hl7.org/fhir/us/core/StructureDefinition/us-core-ethnicity","extension":[{"url":"ombCategory","valueCoding":{"system":"urn:oid:2.16.840.1.113883.6.238","code":"2186-5","display":"Not Hispanic or Latino"}},{"url":"text","valueString":"Not Hispanic or Latino"}]}],"identifier":[{"type":{"coding":[{"system":"http://terminology.hl7.org/CodeSystem/v2-0203","code":"MR"}]},"system":"https://bonnie-fhir.healthit.gov/","value":"6351g5asg32135135102101"}],"name":[{"family":"IPFail","given":["DiagnosisUnconfirmed"]}],"gender":"female","birthDate":"1950-12-25"},"request":{"method":"PUT","url":"Patient/8b5ba7de-6762-4bf2-a2b3-fba46594f026"}},{"fullUrl":"https://madie.cms.gov/Encounter/31313131321310","resource":{"resourceType":"Encounter","id":"d62dee22-fea5-4adb-b0d9-9d16609db47c","meta":{"profile":["http://hl7.org/fhir/us/qicore/StructureDefinition/qicore-encounter"]},"status":"finished","class":{"system":"http://terminology.hl7.org/CodeSystem/v3-ActCode","code":"VR","display":"virtual"},"type":[{"coding":[{"system":"http://snomed.info/sct","version":"http://snomed.info/sct/731000124108/version/20240301","code":"185463005","display":"Visit out of hours (procedure)"}]}],"subject":{"reference":"Patient/8b5ba7de-6762-4bf2-a2b3-fba46594f026"},"period":{"start":"2025-02-02T08:00:00.000+00:00","end":"2025-02-02T09:15:00.000+00:00"}},"request":{"method":"PUT","url":"Encounter/d62dee22-fea5-4adb-b0d9-9d16609db47c"}},{"fullUrl":"https://madie.cms.gov/Condition/3133103030","resource":{"resourceType":"Condition","id":"0e31064f-1263-41f3-a0ab-2fe856d74080","meta":{"profile":["http://hl7.org/fhir/us/qicore/StructureDefinition/qicore-condition"]},"clinicalStatus":{"coding":[{"system":"http://terminology.hl7.org/CodeSystem/condition-clinical","code":"active","display":"Active"}]},"verificationStatus":{"coding":[{"system":"http://terminology.hl7.org/CodeSystem/condition-ver-status","code":"unconfirmed","display":"Unconfirmed"}]},"category":[{"coding":[{"system":"http://terminology.hl7.org/CodeSystem/condition-category","code":"problem-list-item","display":"Problem List Item"}]}],"code":{"coding":[{"system":"http://hl7.org/fhir/sid/icd-10-cm","version":"2024","code":"C67.1","display":"Malignant neoplasm of dome of bladder"}]},"subject":{"reference":"Patient/8b5ba7de-6762-4bf2-a2b3-fba46594f026"},"onsetPeriod":{"start":"2025-02-02T08:00:00.000+00:00"}},"request":{"method":"PUT","url":"Condition/0e31064f-1263-41f3-a0ab-2fe856d74080"}},{"fullUrl":"https://madie.cms.gov/Procedure/1312343133103","resource":{"resourceType":"Procedure","id":"2b7f1f48-1baf-4933-9e68-390fe5c76207","meta":{"profile":["http://hl7.org/fhir/us/qicore/StructureDefinition/qicore-procedure"]},"extension":[{"url":"http://hl7.org/fhir/us/qicore/StructureDefinition/qicore-recorded","valueDateTime":"2024-02-01T08:00:00.000+00:00"}],"status":"completed","code":{"coding":[{"system":"http://snomed.info/sct","version":"http://snomed.info/sct/731000124108/version/20240301","code":"254292007","display":"Tumor staging"}]},"subject":{"reference":"Patient/8b5ba7de-6762-4bf2-a2b3-fba46594f026"},"performedPeriod":{"start":"2025-04-01T08:00:00.000+00:00","end":"2025-04-01T08:15:00.000+00:00"}},"request":{"method":"PUT","url":"Procedure/2b7f1f48-1baf-4933-9e68-390fe5c76207"}},{"fullUrl":"https://madie.cms.gov/Observation/4135134163132032","resource":{"resourceType":"Observation","id":"4c253337-e5b5-4806-a497-bd79162bdf24","meta":{"profile":["http://hl7.org/fhir/us/qicore/StructureDefinition/qicore-observation"]},"partOf":[{"reference":"Procedure/1312343133103"}],"status":"final","category":[{"coding":[{"system":"http://terminology.hl7.org/CodeSystem/observation-category","code":"procedure","display":"Procedure"}]}],"code":{"coding":[{"system":"http://loinc.org","version":"2.76","code":"21902-2","display":"Stage group.pathology Cancer"}]},"subject":{"reference":"Patient/8b5ba7de-6762-4bf2-a2b3-fba46594f026"},"effectivePeriod":{"start":"2025-04-01T08:00:00.000+00:00","end":"2025-04-01T08:15:00.000+00:00"},"issued":"2025-04-01T08:15:00.000+00:00","valueCodeableConcept":{"coding":[{"system":"http://snomed.info/sct","version":"http://snomed.info/sct/731000124108/version/20240301","code":"369949005","display":"Ta: Noninvasive papillary carcinoma (urinary tract) (finding)"}]}},"request":{"method":"PUT","url":"Observation/4c253337-e5b5-4806-a497-bd79162bdf24"}},{"fullUrl":"https://madie.cms.gov/MeasureReport/569da83e-0717-45f0-8056-3ba83906e269","resource":{"resourceType":"MeasureReport","id":"569da83e-0717-45f0-8056-3ba83906e269","meta":{"profile":["http://hl7.org/fhir/us/cqfmeasures/StructureDefinition/test-case-cqfm"]},"contained":[{"resourceType":"Parameters","id":"bd7cdc8d-f8ee-4e3e-8a84-35a686747d99-parameters","parameter":[{"name":"subject","valueString":"8b5ba7de-6762-4bf2-a2b3-fba46594f026"}]}],"extension":[{"url":"http://hl7.org/fhir/us/cqfmeasures/StructureDefinition/cqfm-inputParameters","valueReference":{"reference":"#bd7cdc8d-f8ee-4e3e-8a84-35a686747d99-parameters"}},{"url":"http://hl7.org/fhir/us/cqfmeasures/StructureDefinition/cqfm-testCaseDescription","valueMarkdown":"OV in MP with staging but bladder cancer dx unconfirmed. "}],"modifierExtension":[{"url":"http://hl7.org/fhir/us/cqfmeasures/StructureDefinition/cqfm-isTestCase","valueBoolean":true}],"status":"complete","type":"individual","measure":"https://madie.cms.gov/Measure/IntravesicalBacillusCalmetteGuerinForBladderCancerFHIR","period":{"start":"2025-01-01","end":"2025-12-31"},"group":[{"population":[{"code":{"coding":[{"system":"http://terminology.hl7.org/CodeSystem/measure-population","code":"initial-population","display":"Initial Population"}]},"count":0},{"code":{"coding":[{"system":"http://terminology.hl7.org/CodeSystem/measure-population","code":"denominator","display":"Denominator"}]},"count":0},{"code":{"coding":[{"system":"http://terminology.hl7.org/CodeSystem/measure-population","code":"denominator-exclusion","display":"Denominator Exclusion"}]},"count":0},{"code":{"coding":[{"system":"http://terminology.hl7.org/CodeSystem/measure-population","code":"numerator","display":"Numerator"}]},"count":0},{"code":{"coding":[{"system":"http://terminology.hl7.org/CodeSystem/measure-population","code":"denominator-exception","display":"Denominator Exception"}]},"count":0}]}]},"request":{"method":"PUT","url":"MeasureReport/569da83e-0717-45f0-8056-3ba83906e269"}}]}