{
  "resourceType": "Bundle",
  "id": "61781cfe3ce875c62010f4b6",
  "type": "transaction",
  "entry": [ {
    "fullUrl": "https://madie.cms.gov/Patient/57a93727-9cac-45c2-83e6-ddb24566bd4d",
    "resource": {
      "resourceType": "Patient",
      "id": "57a93727-9cac-45c2-83e6-ddb24566bd4d",
      "meta": {
        "profile": [ "http://hl7.org/fhir/us/qicore/StructureDefinition/qicore-patient" ]
      },
      "extension": [ {
        "url": "http://hl7.org/fhir/us/core/StructureDefinition/us-core-race",
        "extension": [ {
          "url": "ombCategory",
          "valueCoding": {
            "system": "urn:oid:2.16.840.1.113883.6.238",
            "code": "2076-8",
            "display": "Native Hawaiian or Other Pacific Islander",
            "userSelected": true
          }
        }, {
          "url": "text",
          "valueString": "Native Hawaiian or Other Pacific Islander"
        } ]
      }, {
        "url": "http://hl7.org/fhir/us/core/StructureDefinition/us-core-ethnicity",
        "extension": [ {
          "url": "ombCategory",
          "valueCoding": {
            "system": "urn:oid:2.16.840.1.113883.6.238",
            "code": "2186-5",
            "display": "Not Hispanic or Latino",
            "userSelected": true
          }
        }, {
          "url": "text",
          "valueString": "Not Hispanic or Latino"
        } ]
      } ],
      "identifier": [ {
        "type": {
          "coding": [ {
            "system": "http://terminology.hl7.org/CodeSystem/v2-0203",
            "code": "MR"
          } ]
        },
        "system": "https://bonnie-fhir.healthit.gov/",
        "value": "61781cfe3ce875c62010f4b6"
      } ],
      "name": [ {
        "family": "DenExcl1Fail",
        "given": [ "DxExclStartsAfterEndsAfterED" ]
      } ],
      "gender": "female",
      "birthDate": "1984-12-02"
    },
    "request": {
      "method": "POST",
      "url": "Patient/57a93727-9cac-45c2-83e6-ddb24566bd4d"
    }
  }, {
    "fullUrl": "https://madie.cms.gov/Encounter/emergency-department-visit-f4b7",
    "resource": {
      "resourceType": "Encounter",
      "id": "emergency-department-visit-f4b7",
      "meta": {
        "profile": [ "http://hl7.org/fhir/us/qicore/StructureDefinition/qicore-encounter" ]
      },
      "status": "finished",
      "class": {
        "system": "http://terminology.hl7.org/CodeSystem/v3-ActCode",
        "code": "EMER",
        "display": "emergency",
        "userSelected": true
      },
      "type": [ {
        "coding": [ {
          "system": "http://snomed.info/sct",
          "version": "2020-09",
          "code": "4525004",
          "display": "Emergency department patient visit (procedure)",
          "userSelected": true
        } ]
      } ],
      "subject": {
        "reference": "Patient/57a93727-9cac-45c2-83e6-ddb24566bd4d"
      },
      "period": {
        "start": "2025-10-09T08:05:00.000+00:00",
        "end": "2025-10-10T07:15:00.000+00:00"
      },
      "diagnosis": [ {
        "condition": {
          "reference": "Condition/stemi-96e8"
        }
      } ]
    },
    "request": {
      "method": "POST",
      "url": "Encounter/emergency-department-visit-f4b7"
    }
  }, {
    "fullUrl": "https://madie.cms.gov/Condition/aortic-dissection-4e0e",
    "resource": {
      "resourceType": "Condition",
      "id": "aortic-dissection-4e0e",
      "meta": {
        "profile": [ "http://hl7.org/fhir/us/qicore/StructureDefinition/qicore-condition" ]
      },
      "clinicalStatus": {
        "coding": [ {
          "system": "http://terminology.hl7.org/CodeSystem/condition-clinical",
          "code": "inactive",
          "display": "Inactive",
          "userSelected": true
        } ]
      },
      "category": [ {
        "coding": [ {
          "system": "http://terminology.hl7.org/CodeSystem/condition-category",
          "code": "encounter-diagnosis",
          "display": "Encounter Diagnosis",
          "userSelected": true
        } ]
      } ],
      "code": {
        "coding": [ {
          "system": "http://snomed.info/sct",
          "version": "2020-09",
          "code": "14336007",
          "display": "Ruptured abdominal aortic aneurysm (disorder)",
          "userSelected": true
        } ]
      },
      "subject": {
        "reference": "Patient/57a93727-9cac-45c2-83e6-ddb24566bd4d"
      },
      "onsetDateTime": "2025-10-15T13:00:00.000+00:00",
      "abatementDateTime": "2025-11-07T09:15:00.000+00:00"
    },
    "request": {
      "method": "POST",
      "url": "Condition/aortic-dissection-4e0e"
    }
  }, {
    "fullUrl": "https://madie.cms.gov/Condition/stemi-96e8",
    "resource": {
      "resourceType": "Condition",
      "id": "stemi-96e8",
      "meta": {
        "profile": [ "http://hl7.org/fhir/us/qicore/StructureDefinition/qicore-condition" ]
      },
      "clinicalStatus": {
        "coding": [ {
          "system": "http://terminology.hl7.org/CodeSystem/condition-clinical",
          "code": "active",
          "display": "Active",
          "userSelected": true
        } ]
      },
      "category": [ {
        "coding": [ {
          "system": "http://terminology.hl7.org/CodeSystem/condition-category",
          "code": "encounter-diagnosis",
          "display": "Encounter Diagnosis",
          "userSelected": true
        } ]
      } ],
      "code": {
        "coding": [ {
          "system": "http://snomed.info/sct",
          "version": "2020-09",
          "code": "401303003",
          "display": "Acute ST segment elevation myocardial infarction (disorder)",
          "userSelected": true
        } ]
      },
      "subject": {
        "reference": "Patient/57a93727-9cac-45c2-83e6-ddb24566bd4d"
      },
      "recordedDate": "2025-08-10T08:00:00.000+00:00"
    },
    "request": {
      "method": "POST",
      "url": "Condition/stemi-96e8"
    }
  }, {
    "fullUrl": "https://madie.cms.gov/MeasureReport/61c5bd59-0c0e-4a82-ae4d-183e5f1ef7f0",
    "resource": {
      "resourceType": "MeasureReport",
      "id": "61c5bd59-0c0e-4a82-ae4d-183e5f1ef7f0",
      "meta": {
        "profile": [ "http://hl7.org/fhir/us/cqfmeasures/StructureDefinition/test-case-cqfm" ]
      },
      "contained": [ {
        "resourceType": "Parameters",
        "id": "7102dc58-3f15-4428-9522-4ceb6f186d60-parameters",
        "parameter": [ {
          "name": "subject",
          "valueString": "57a93727-9cac-45c2-83e6-ddb24566bd4d"
        } ]
      } ],
      "extension": [ {
        "url": "http://hl7.org/fhir/us/cqfmeasures/StructureDefinition/cqfm-inputParameters",
        "valueReference": {
          "reference": "#7102dc58-3f15-4428-9522-4ceb6f186d60-parameters"
        }
      }, {
        "url": "http://hl7.org/fhir/us/cqfmeasures/StructureDefinition/cqfm-testCaseDescription",
        "valueMarkdown": "Patient has aortic dissection (exclusion diagnosis) that starts after and ends after the ED encounter"
      } ],
      "modifierExtension": [ {
        "url": "http://hl7.org/fhir/us/cqfmeasures/StructureDefinition/cqfm-isTestCase",
        "valueBoolean": true
      } ],
      "status": "complete",
      "type": "individual",
      "measure": "https://madie.cms.gov/Measure/AppropriateTreatmentforSTEMIFHIR",
      "period": {
        "start": "2025-01-01",
        "end": "2025-12-31"
      },
      "group": [ {
        "population": [ {
          "code": {
            "coding": [ {
              "system": "http://terminology.hl7.org/CodeSystem/measure-population",
              "code": "initial-population",
              "display": "Initial Population"
            } ]
          },
          "count": 1
        }, {
          "code": {
            "coding": [ {
              "system": "http://terminology.hl7.org/CodeSystem/measure-population",
              "code": "denominator",
              "display": "Denominator"
            } ]
          },
          "count": 1
        }, {
          "code": {
            "coding": [ {
              "system": "http://terminology.hl7.org/CodeSystem/measure-population",
              "code": "denominator-exclusion",
              "display": "Denominator Exclusion"
            } ]
          },
          "count": 0
        }, {
          "code": {
            "coding": [ {
              "system": "http://terminology.hl7.org/CodeSystem/measure-population",
              "code": "numerator",
              "display": "Numerator"
            } ]
          },
          "count": 0
        }, {
          "code": {
            "coding": [ {
              "system": "http://terminology.hl7.org/CodeSystem/measure-population",
              "code": "denominator-exception",
              "display": "Denominator Exception"
            } ]
          },
          "count": 0
        } ]
      } ],
      "evaluatedResource": [ {
        "reference": "Patient/57a93727-9cac-45c2-83e6-ddb24566bd4d"
      }, {
        "reference": "Encounter/emergency-department-visit-f4b7"
      }, {
        "reference": "Condition/aortic-dissection-4e0e"
      }, {
        "reference": "Condition/stemi-96e8"
      } ]
    },
    "request": {
      "method": "POST",
      "url": "MeasureReport/61c5bd59-0c0e-4a82-ae4d-183e5f1ef7f0"
    }
  } ]
}