{"resourceType":"Bundle","id":"tests-46954fc1-3432-4e5d-b920-a2087f01abba-bundle","type":"transaction","entry":[{"fullUrl":"https://madie.cms.gov/Patient/46954fc1-3432-4e5d-b920-a2087f01abba","resource":{"resourceType":"Patient","id":"46954fc1-3432-4e5d-b920-a2087f01abba","meta":{"profile":["http://hl7.org/fhir/us/qicore/StructureDefinition/qicore-patient"]},"extension":[{"url":"http://hl7.org/fhir/us/core/StructureDefinition/us-core-race","extension":[{"url":"ombCategory","valueCoding":{"system":"urn:oid:2.16.840.1.113883.6.238","code":"2028-9","display":"Asian","userSelected":true}},{"url":"text","valueString":"Asian"}]},{"url":"http://hl7.org/fhir/us/core/StructureDefinition/us-core-ethnicity","extension":[{"url":"ombCategory","valueCoding":{"system":"urn:oid:2.16.840.1.113883.6.238","code":"2135-2","display":"Hispanic or Latino","userSelected":true}},{"url":"text","valueString":"Hispanic or Latino"}]}],"identifier":[{"type":{"coding":[{"system":"http://terminology.hl7.org/CodeSystem/v2-0203","code":"MR"}]},"system":"http://hospital.smarthealthit.org","value":"999999995"}],"name":[{"family":"Bertha","given":["Betty"]}],"gender":"female","birthDate":"2012-01-01"},"request":{"method":"PUT","url":"Patient/46954fc1-3432-4e5d-b920-a2087f01abba"}},{"fullUrl":"https://madie.cms.gov/Condition/Condition-1","resource":{"resourceType":"Condition","id":"553a798c-d243-425d-b6bc-24020e423521","meta":{"profile":["http://hl7.org/fhir/us/qicore/StructureDefinition/qicore-condition"]},"clinicalStatus":{"coding":[{"system":"http://terminology.hl7.org/CodeSystem/condition-clinical","code":"active"}]},"category":[{"coding":[{"system":"http://terminology.hl7.org/CodeSystem/condition-category","code":"problem-list-item","display":"Problem List Item"}]}],"code":{"coding":[{"system":"http://hl7.org/fhir/sid/icd-10-cm","code":"F10.10","display":"Alcohol abuse, uncomplicated"}]},"subject":{"reference":"Patient/46954fc1-3432-4e5d-b920-a2087f01abba"},"onsetDateTime":"2025-01-01T01:00:00.000Z"},"request":{"method":"PUT","url":"Condition/553a798c-d243-425d-b6bc-24020e423521"}},{"fullUrl":"https://madie.cms.gov/Encounter/Encounter-1","resource":{"resourceType":"Encounter","id":"ab9cca47-5a1c-47e0-bb1b-4131e539ad62","meta":{"profile":["http://hl7.org/fhir/us/qicore/StructureDefinition/qicore-encounter"]},"status":"finished","class":{"system":"http://terminology.hl7.org/CodeSystem/v3-ActCode","code":"AMB","display":"ambulatory"},"type":[{"coding":[{"system":"http://www.ama-assn.org/go/cpt","code":"99202","display":"Office or other outpatient visit for the evaluation and management of a new patient, which requires a medically appropriate history and/or examination and straightforward medical decision making. When using total time on the date of the encounter for code selection, 15 minutes must be met or exceeded."}]}],"subject":{"reference":"Patient/46954fc1-3432-4e5d-b920-a2087f01abba"},"period":{"start":"2025-01-01T00:00:00.000Z","end":"2025-01-01T01:15:00.000Z"}},"request":{"method":"PUT","url":"Encounter/ab9cca47-5a1c-47e0-bb1b-4131e539ad62"}},{"fullUrl":"https://madie.cms.gov/Encounter/Encounter-2","resource":{"resourceType":"Encounter","id":"45e7e498-4c2e-4eb3-a277-f263dde3d9bd","meta":{"profile":["http://hl7.org/fhir/us/qicore/StructureDefinition/qicore-encounter"]},"status":"finished","class":{"system":"http://terminology.hl7.org/CodeSystem/v3-ActCode","code":"AMB","display":"ambulatory"},"type":[{"coding":[{"system":"http://snomed.info/sct","code":"183921001","display":"Admission to hospice for respite (procedure)"}]}],"subject":{"reference":"Patient/46954fc1-3432-4e5d-b920-a2087f01abba"},"period":{"start":"2024-12-31T23:59:59.000Z","end":"2025-01-01T01:00:00.000Z"}},"request":{"method":"PUT","url":"Encounter/45e7e498-4c2e-4eb3-a277-f263dde3d9bd"}},{"fullUrl":"https://madie.cms.gov/MeasureReport/53b6def3-c532-4f43-a4fb-f32dd36d3706","resource":{"resourceType":"MeasureReport","id":"53b6def3-c532-4f43-a4fb-f32dd36d3706","meta":{"profile":["http://hl7.org/fhir/us/cqfmeasures/StructureDefinition/test-case-cqfm"]},"contained":[{"resourceType":"Parameters","id":"108f3df9-0bd1-4bee-9ce5-9ecfa72f6770-parameters","parameter":[{"name":"subject","valueString":"46954fc1-3432-4e5d-b920-a2087f01abba"}]}],"extension":[{"url":"http://hl7.org/fhir/us/cqfmeasures/StructureDefinition/cqfm-inputParameters","valueReference":{"reference":"#108f3df9-0bd1-4bee-9ce5-9ecfa72f6770-parameters"}},{"url":"http://hl7.org/fhir/us/cqfmeasures/StructureDefinition/cqfm-testCaseDescription","valueMarkdown":"Hospice encounter overlaps the MP"}],"modifierExtension":[{"url":"http://hl7.org/fhir/us/cqfmeasures/StructureDefinition/cqfm-isTestCase","valueBoolean":true}],"status":"complete","type":"individual","measure":"https://madie.cms.gov/Measure/InitiationandEngagementofSubstanceUseDisorderTreatmentFHIR","period":{"start":"2025-01-01","end":"2025-12-31"},"group":[{"population":[{"code":{"coding":[{"system":"http://terminology.hl7.org/CodeSystem/measure-population","code":"initial-population","display":"Initial Population"}]},"count":1},{"code":{"coding":[{"system":"http://terminology.hl7.org/CodeSystem/measure-population","code":"denominator","display":"Denominator"}]},"count":1},{"code":{"coding":[{"system":"http://terminology.hl7.org/CodeSystem/measure-population","code":"denominator-exclusion","display":"Denominator Exclusion"}]},"count":1},{"code":{"coding":[{"system":"http://terminology.hl7.org/CodeSystem/measure-population","code":"numerator","display":"Numerator"}]},"count":0}]},{"population":[{"code":{"coding":[{"system":"http://terminology.hl7.org/CodeSystem/measure-population","code":"initial-population","display":"Initial Population"}]},"count":1},{"code":{"coding":[{"system":"http://terminology.hl7.org/CodeSystem/measure-population","code":"denominator","display":"Denominator"}]},"count":1},{"code":{"coding":[{"system":"http://terminology.hl7.org/CodeSystem/measure-population","code":"denominator-exclusion","display":"Denominator Exclusion"}]},"count":1},{"code":{"coding":[{"system":"http://terminology.hl7.org/CodeSystem/measure-population","code":"numerator","display":"Numerator"}]},"count":0}]}]},"request":{"method":"PUT","url":"MeasureReport/53b6def3-c532-4f43-a4fb-f32dd36d3706"}}]}