{"resourceType":"Bundle","id":"tests-a5ca4525-88bc-4b67-b880-ca1cf54daa88-bundle","type":"transaction","entry":[{"fullUrl":"https://madie.cms.gov/Patient/a5ca4525-88bc-4b67-b880-ca1cf54daa88","resource":{"resourceType":"Patient","id":"a5ca4525-88bc-4b67-b880-ca1cf54daa88","meta":{"profile":["http://hl7.org/fhir/us/qicore/StructureDefinition/qicore-patient"]},"extension":[{"url":"http://hl7.org/fhir/us/core/StructureDefinition/us-core-race","extension":[{"url":"ombCategory","valueCoding":{"system":"urn:oid:2.16.840.1.113883.6.238","code":"2028-9","display":"Asian","userSelected":true}},{"url":"text","valueString":"Asian"}]},{"url":"http://hl7.org/fhir/us/core/StructureDefinition/us-core-ethnicity","extension":[{"url":"ombCategory","valueCoding":{"system":"urn:oid:2.16.840.1.113883.6.238","code":"2135-2","display":"Hispanic or Latino","userSelected":true}},{"url":"text","valueString":"Hispanic or Latino"}]}],"identifier":[{"type":{"coding":[{"system":"http://terminology.hl7.org/CodeSystem/v2-0203","code":"MR"}]},"system":"http://hospital.smarthealthit.org","value":"999999995"}],"name":[{"family":"Bertha","given":["Betty"]}],"gender":"female","birthDate":"2023-01-01"},"request":{"method":"PUT","url":"Patient/a5ca4525-88bc-4b67-b880-ca1cf54daa88"}},{"fullUrl":"https://madie.cms.gov/Encounter/Encounter-1","resource":{"resourceType":"Encounter","id":"ac839b8a-1694-4131-ade8-92d01cc421cf","meta":{"profile":["http://hl7.org/fhir/us/qicore/StructureDefinition/qicore-encounter"]},"status":"finished","class":{"system":"http://terminology.hl7.org/CodeSystem/v3-ActCode","code":"AMB","display":"ambulatory"},"type":[{"coding":[{"system":"http://snomed.info/sct","code":"185317003","display":"Telephone encounter (procedure)"}]}],"subject":{"reference":"Patient/a5ca4525-88bc-4b67-b880-ca1cf54daa88"},"period":{"start":"2025-01-01T01:00:00.000Z","end":"2025-01-01T01:15:00.000Z"}},"request":{"method":"PUT","url":"Encounter/ac839b8a-1694-4131-ade8-92d01cc421cf"}},{"fullUrl":"https://madie.cms.gov/Condition/Condition-1","resource":{"resourceType":"Condition","id":"65863e41-dce0-4ef3-a510-4e5dbc11d4b1","meta":{"profile":["http://hl7.org/fhir/us/qicore/StructureDefinition/qicore-condition"]},"clinicalStatus":{"coding":[{"system":"http://terminology.hl7.org/CodeSystem/condition-clinical","code":"active"}]},"category":[{"coding":[{"system":"http://terminology.hl7.org/CodeSystem/condition-category","code":"problem-list-item","display":"Problem List Item"}]}],"code":{"coding":[{"system":"http://snomed.info/sct","code":"192711008","display":"Post diphtheria vaccination encephalitis (disorder)"}]},"subject":{"reference":"Patient/a5ca4525-88bc-4b67-b880-ca1cf54daa88"},"onsetDateTime":"2024-01-02T00:00:00.000Z"},"request":{"method":"PUT","url":"Condition/65863e41-dce0-4ef3-a510-4e5dbc11d4b1"}},{"fullUrl":"https://madie.cms.gov/Condition/Condition-2","resource":{"resourceType":"Condition","id":"965901a4-e8b8-4d63-89d9-ac72c606310b","meta":{"profile":["http://hl7.org/fhir/us/qicore/StructureDefinition/qicore-condition"]},"clinicalStatus":{"coding":[{"system":"http://terminology.hl7.org/CodeSystem/condition-clinical","code":"active"}]},"category":[{"coding":[{"system":"http://terminology.hl7.org/CodeSystem/condition-category","code":"problem-list-item","display":"Problem List Item"}]}],"code":{"coding":[{"system":"http://snomed.info/sct","code":"471321000124106","display":"Anaphylaxis caused by vaccine product containing human poliovirus antigen (disorder)"}]},"subject":{"reference":"Patient/a5ca4525-88bc-4b67-b880-ca1cf54daa88"},"onsetDateTime":"2024-01-02T00:00:00.000Z"},"request":{"method":"PUT","url":"Condition/965901a4-e8b8-4d63-89d9-ac72c606310b"}},{"fullUrl":"https://madie.cms.gov/Condition/Condition-3","resource":{"resourceType":"Condition","id":"3b653308-0ee9-4437-929e-3885bb99bc18","meta":{"profile":["http://hl7.org/fhir/us/qicore/StructureDefinition/qicore-condition"]},"clinicalStatus":{"coding":[{"system":"http://terminology.hl7.org/CodeSystem/condition-clinical","code":"active"}]},"category":[{"coding":[{"system":"http://terminology.hl7.org/CodeSystem/condition-category","code":"problem-list-item","display":"Problem List Item"}]}],"code":{"coding":[{"system":"http://snomed.info/sct","code":"471331000124109","display":"Anaphylaxis caused by vaccine product containing Measles morbillivirus and Mumps orthorubulavirus and Rubella virus antigens (disorder)"}]},"subject":{"reference":"Patient/a5ca4525-88bc-4b67-b880-ca1cf54daa88"},"onsetDateTime":"2024-01-02T00:00:00.000Z"},"request":{"method":"PUT","url":"Condition/3b653308-0ee9-4437-929e-3885bb99bc18"}},{"fullUrl":"https://madie.cms.gov/Condition/Condition-4","resource":{"resourceType":"Condition","id":"d10832f1-bccd-4ed9-ba18-4799c205b594","meta":{"profile":["http://hl7.org/fhir/us/qicore/StructureDefinition/qicore-condition"]},"clinicalStatus":{"coding":[{"system":"http://terminology.hl7.org/CodeSystem/condition-clinical","code":"active"}]},"category":[{"coding":[{"system":"http://terminology.hl7.org/CodeSystem/condition-category","code":"problem-list-item","display":"Problem List Item"}]}],"code":{"coding":[{"system":"http://snomed.info/sct","code":"433621000124101","display":"Anaphylaxis due to Haemophilus influenzae type b vaccine (disorder)"}]},"subject":{"reference":"Patient/a5ca4525-88bc-4b67-b880-ca1cf54daa88"},"onsetDateTime":"2024-01-02T00:00:00.000Z"},"request":{"method":"PUT","url":"Condition/d10832f1-bccd-4ed9-ba18-4799c205b594"}},{"fullUrl":"https://madie.cms.gov/Condition/Condition-5","resource":{"resourceType":"Condition","id":"636c749d-f047-4f04-880b-5218a4d8de95","meta":{"profile":["http://hl7.org/fhir/us/qicore/StructureDefinition/qicore-condition"]},"clinicalStatus":{"coding":[{"system":"http://terminology.hl7.org/CodeSystem/condition-clinical","code":"active"}]},"category":[{"coding":[{"system":"http://terminology.hl7.org/CodeSystem/condition-category","code":"problem-list-item","display":"Problem List Item"}]}],"code":{"coding":[{"system":"http://snomed.info/sct","code":"235864009","display":"Acute hepatitis B with hepatitis D (disorder)"}]},"subject":{"reference":"Patient/a5ca4525-88bc-4b67-b880-ca1cf54daa88"},"onsetDateTime":"2024-01-02T00:00:00.000Z"},"request":{"method":"PUT","url":"Condition/636c749d-f047-4f04-880b-5218a4d8de95"}},{"fullUrl":"https://madie.cms.gov/Condition/Condition-6","resource":{"resourceType":"Condition","id":"dc83bf7a-86fb-4460-9ef7-cc429c22cbde","meta":{"profile":["http://hl7.org/fhir/us/qicore/StructureDefinition/qicore-condition"]},"clinicalStatus":{"coding":[{"system":"http://terminology.hl7.org/CodeSystem/condition-clinical","code":"active"}]},"category":[{"coding":[{"system":"http://terminology.hl7.org/CodeSystem/condition-category","code":"problem-list-item","display":"Problem List Item"}]}],"code":{"coding":[{"system":"http://snomed.info/sct","code":"426570007","display":"Herpes zoster interstitial keratitis (disorder)"}]},"subject":{"reference":"Patient/a5ca4525-88bc-4b67-b880-ca1cf54daa88"},"onsetDateTime":"2024-01-02T00:00:00.000Z"},"request":{"method":"PUT","url":"Condition/dc83bf7a-86fb-4460-9ef7-cc429c22cbde"}},{"fullUrl":"https://madie.cms.gov/Condition/Condition-7","resource":{"resourceType":"Condition","id":"91f84e13-ac2c-43d1-ba91-784ccba30bac","meta":{"profile":["http://hl7.org/fhir/us/qicore/StructureDefinition/qicore-condition"]},"clinicalStatus":{"coding":[{"system":"http://terminology.hl7.org/CodeSystem/condition-clinical","code":"active"}]},"category":[{"coding":[{"system":"http://terminology.hl7.org/CodeSystem/condition-category","code":"problem-list-item","display":"Problem List Item"}]}],"code":{"coding":[{"system":"http://snomed.info/sct","code":"471141000124102","display":"Anaphylaxis caused by vaccine product containing Streptococcus pneumoniae antigen (disorder)"}]},"subject":{"reference":"Patient/a5ca4525-88bc-4b67-b880-ca1cf54daa88"},"onsetDateTime":"2024-01-12T00:00:00.000Z"},"request":{"method":"PUT","url":"Condition/91f84e13-ac2c-43d1-ba91-784ccba30bac"}},{"fullUrl":"https://madie.cms.gov/Condition/Condition-8","resource":{"resourceType":"Condition","id":"6bd4cbe0-cffa-4c21-9324-52f501effad2","meta":{"profile":["http://hl7.org/fhir/us/qicore/StructureDefinition/qicore-condition"]},"clinicalStatus":{"coding":[{"system":"http://terminology.hl7.org/CodeSystem/condition-clinical","code":"active"}]},"category":[{"coding":[{"system":"http://terminology.hl7.org/CodeSystem/condition-category","code":"problem-list-item","display":"Problem List Item"}]}],"code":{"coding":[{"system":"http://snomed.info/sct","code":"40468003","display":"Viral hepatitis, type A (disorder)"}]},"subject":{"reference":"Patient/a5ca4525-88bc-4b67-b880-ca1cf54daa88"},"onsetDateTime":"2024-01-02T00:00:00.000Z"},"request":{"method":"PUT","url":"Condition/6bd4cbe0-cffa-4c21-9324-52f501effad2"}},{"fullUrl":"https://madie.cms.gov/Condition/Condition-9","resource":{"resourceType":"Condition","id":"8267a718-2891-42cf-bca7-efdf59879a08","meta":{"profile":["http://hl7.org/fhir/us/qicore/StructureDefinition/qicore-condition"]},"clinicalStatus":{"coding":[{"system":"http://terminology.hl7.org/CodeSystem/condition-clinical","code":"active"}]},"category":[{"coding":[{"system":"http://terminology.hl7.org/CodeSystem/condition-category","code":"problem-list-item","display":"Problem List Item"}]}],"code":{"coding":[{"system":"http://snomed.info/sct","code":"428331000124103","display":"Anaphylaxis caused by rotavirus vaccine (disorder)"}]},"subject":{"reference":"Patient/a5ca4525-88bc-4b67-b880-ca1cf54daa88"},"onsetDateTime":"2024-01-02T00:00:00.000Z"},"request":{"method":"PUT","url":"Condition/8267a718-2891-42cf-bca7-efdf59879a08"}},{"fullUrl":"https://madie.cms.gov/Condition/Condition-10","resource":{"resourceType":"Condition","id":"e4fe4beb-9876-48b2-ae49-eb8b400b379d","meta":{"profile":["http://hl7.org/fhir/us/qicore/StructureDefinition/qicore-condition"]},"clinicalStatus":{"coding":[{"system":"http://terminology.hl7.org/CodeSystem/condition-clinical","code":"active"}]},"category":[{"coding":[{"system":"http://terminology.hl7.org/CodeSystem/condition-category","code":"problem-list-item","display":"Problem List Item"}]}],"code":{"coding":[{"system":"http://snomed.info/sct","code":"471361000124100","display":"Anaphylaxis caused by vaccine product containing Influenza virus antigen (disorder)"}]},"subject":{"reference":"Patient/a5ca4525-88bc-4b67-b880-ca1cf54daa88"},"onsetDateTime":"2024-01-02T00:00:00.000Z"},"request":{"method":"PUT","url":"Condition/e4fe4beb-9876-48b2-ae49-eb8b400b379d"}},{"fullUrl":"https://madie.cms.gov/MeasureReport/d87038d0-ca89-44e2-8ef1-4fd3e7fe2a70","resource":{"resourceType":"MeasureReport","id":"d87038d0-ca89-44e2-8ef1-4fd3e7fe2a70","meta":{"profile":["http://hl7.org/fhir/us/cqfmeasures/StructureDefinition/test-case-cqfm"]},"contained":[{"resourceType":"Parameters","id":"e4f388f1-d5a4-4f4a-ae02-d04d7f2d552d-parameters","parameter":[{"name":"subject","valueString":"a5ca4525-88bc-4b67-b880-ca1cf54daa88"}]}],"extension":[{"url":"http://hl7.org/fhir/us/cqfmeasures/StructureDefinition/cqfm-inputParameters","valueReference":{"reference":"#e4f388f1-d5a4-4f4a-ae02-d04d7f2d552d-parameters"}},{"url":"http://hl7.org/fhir/us/cqfmeasures/StructureDefinition/cqfm-testCaseDescription","valueMarkdown":"All anaphylaxis or conditions in lieu"}],"modifierExtension":[{"url":"http://hl7.org/fhir/us/cqfmeasures/StructureDefinition/cqfm-isTestCase","valueBoolean":true}],"status":"complete","type":"individual","measure":"https://madie.cms.gov/Measure/ChildhoodImmunizationStatusFHIR","period":{"start":"2025-01-01","end":"2025-12-31"},"group":[{"population":[{"code":{"coding":[{"system":"http://terminology.hl7.org/CodeSystem/measure-population","code":"initial-population","display":"Initial Population"}]},"count":1},{"code":{"coding":[{"system":"http://terminology.hl7.org/CodeSystem/measure-population","code":"denominator","display":"Denominator"}]},"count":1},{"code":{"coding":[{"system":"http://terminology.hl7.org/CodeSystem/measure-population","code":"denominator-exclusion","display":"Denominator Exclusion"}]},"count":0},{"code":{"coding":[{"system":"http://terminology.hl7.org/CodeSystem/measure-population","code":"numerator","display":"Numerator"}]},"count":1}]}]},"request":{"method":"PUT","url":"MeasureReport/d87038d0-ca89-44e2-8ef1-4fd3e7fe2a70"}}]}