{"resourceType":"Bundle","id":"tests-6a884f9c-67ce-4d35-9385-ab3b46dac3f2-bundle","type":"transaction","entry":[{"fullUrl":"https://madie.cms.gov/Patient/6a884f9c-67ce-4d35-9385-ab3b46dac3f2","resource":{"resourceType":"Patient","id":"6a884f9c-67ce-4d35-9385-ab3b46dac3f2","meta":{"profile":["http://hl7.org/fhir/us/qicore/StructureDefinition/qicore-patient"]},"extension":[{"url":"http://hl7.org/fhir/us/core/StructureDefinition/us-core-race","extension":[{"url":"ombCategory","valueCoding":{"system":"urn:oid:2.16.840.1.113883.6.238","code":"2028-9","display":"Asian"}},{"url":"text","valueString":"Asian"}]},{"url":"http://hl7.org/fhir/us/core/StructureDefinition/us-core-ethnicity","extension":[{"url":"ombCategory","valueCoding":{"system":"urn:oid:2.16.840.1.113883.6.238","code":"2135-2","display":"Hispanic or Latino"}},{"url":"text","valueString":"Hispanic or Latino"}]}],"identifier":[{"system":"http://hospital.smarthealthit.org","value":"999999995"}],"name":[{"family":"Bertha","given":["Betty"]}],"gender":"female","birthDate":"2023-01-01"},"request":{"method":"PUT","url":"Patient/6a884f9c-67ce-4d35-9385-ab3b46dac3f2"}},{"fullUrl":"https://madie.cms.gov/Encounter/Encounter-1","resource":{"resourceType":"Encounter","id":"dd032cf5-8173-4b7f-9fae-a758ec470b34","meta":{"profile":["http://hl7.org/fhir/us/qicore/StructureDefinition/qicore-encounter"]},"status":"finished","class":{"system":"http://terminology.hl7.org/CodeSystem/v3-ActCode","code":"AMB","display":"ambulatory"},"type":[{"coding":[{"system":"http://snomed.info/sct","code":"185317003","display":"Telephone encounter (procedure)"}]}],"subject":{"reference":"Patient/6a884f9c-67ce-4d35-9385-ab3b46dac3f2"},"period":{"start":"2025-01-01T01:00:00.000Z","end":"2025-01-01T01:15:00.000Z"}},"request":{"method":"PUT","url":"Encounter/dd032cf5-8173-4b7f-9fae-a758ec470b34"}},{"fullUrl":"https://madie.cms.gov/Condition/Condition-1","resource":{"resourceType":"Condition","id":"7f973e5a-cff9-4995-a8a0-9f74ce0b20cb","meta":{"profile":["http://hl7.org/fhir/us/qicore/StructureDefinition/qicore-condition"]},"clinicalStatus":{"coding":[{"system":"http://terminology.hl7.org/CodeSystem/condition-clinical","code":"active"}]},"category":[{"coding":[{"system":"http://terminology.hl7.org/CodeSystem/condition-category","code":"problem-list-item","display":"Problem List Item"}]}],"code":{"coding":[{"system":"http://snomed.info/sct","code":"428291000124105","display":"\tAnaphylaxis caused by tetanus, diphtheria and acellular pertussis vaccine (disorder)"}]},"subject":{"reference":"Patient/6a884f9c-67ce-4d35-9385-ab3b46dac3f2"},"onsetDateTime":"2024-01-02T00:00:00.000Z"},"request":{"method":"PUT","url":"Condition/7f973e5a-cff9-4995-a8a0-9f74ce0b20cb"}},{"fullUrl":"https://madie.cms.gov/Condition/Condition-2","resource":{"resourceType":"Condition","id":"eefd1d43-820e-4a6f-a0cd-d9d0e8df3548","meta":{"profile":["http://hl7.org/fhir/us/qicore/StructureDefinition/qicore-condition"]},"clinicalStatus":{"coding":[{"system":"http://terminology.hl7.org/CodeSystem/condition-clinical","code":"active"}]},"category":[{"coding":[{"system":"http://terminology.hl7.org/CodeSystem/condition-category","code":"problem-list-item","display":"Problem List Item"}]}],"code":{"coding":[{"system":"http://snomed.info/sct","code":"471321000124106","display":"Anaphylaxis caused by vaccine product containing human poliovirus antigen (disorder)"}]},"subject":{"reference":"Patient/6a884f9c-67ce-4d35-9385-ab3b46dac3f2"},"onsetDateTime":"2024-01-02T00:00:00.000Z"},"request":{"method":"PUT","url":"Condition/eefd1d43-820e-4a6f-a0cd-d9d0e8df3548"}},{"fullUrl":"https://madie.cms.gov/Condition/Condition-3","resource":{"resourceType":"Condition","id":"0431581b-16b8-4ad6-93d7-f6e2ee26c524","meta":{"profile":["http://hl7.org/fhir/us/qicore/StructureDefinition/qicore-condition"]},"clinicalStatus":{"coding":[{"system":"http://terminology.hl7.org/CodeSystem/condition-clinical","code":"active"}]},"category":[{"coding":[{"system":"http://terminology.hl7.org/CodeSystem/condition-category","code":"problem-list-item","display":"Problem List Item"}]}],"code":{"coding":[{"system":"http://snomed.info/sct","code":"471331000124109","display":"Anaphylaxis caused by vaccine product containing Measles morbillivirus and Mumps orthorubulavirus and Rubella virus antigens (disorder)"}]},"subject":{"reference":"Patient/6a884f9c-67ce-4d35-9385-ab3b46dac3f2"},"onsetDateTime":"2024-01-02T00:00:00.000Z"},"request":{"method":"PUT","url":"Condition/0431581b-16b8-4ad6-93d7-f6e2ee26c524"}},{"fullUrl":"https://madie.cms.gov/Condition/Condition-4","resource":{"resourceType":"Condition","id":"3386b5f0-4fb2-43b8-8a43-01bf528a28cc","meta":{"profile":["http://hl7.org/fhir/us/qicore/StructureDefinition/qicore-condition"]},"clinicalStatus":{"coding":[{"system":"http://terminology.hl7.org/CodeSystem/condition-clinical","code":"active"}]},"category":[{"coding":[{"system":"http://terminology.hl7.org/CodeSystem/condition-category","code":"problem-list-item","display":"Problem List Item"}]}],"code":{"coding":[{"system":"http://snomed.info/sct","code":"433621000124101","display":"Anaphylaxis due to Haemophilus influenzae type b vaccine (disorder)"}]},"subject":{"reference":"Patient/6a884f9c-67ce-4d35-9385-ab3b46dac3f2"},"onsetDateTime":"2024-01-02T00:00:00.000Z"},"request":{"method":"PUT","url":"Condition/3386b5f0-4fb2-43b8-8a43-01bf528a28cc"}},{"fullUrl":"https://madie.cms.gov/Condition/Condition-5","resource":{"resourceType":"Condition","id":"b3701ac0-a89e-40b5-b06f-c60d0d268981","meta":{"profile":["http://hl7.org/fhir/us/qicore/StructureDefinition/qicore-condition"]},"clinicalStatus":{"coding":[{"system":"http://terminology.hl7.org/CodeSystem/condition-clinical","code":"active"}]},"category":[{"coding":[{"system":"http://terminology.hl7.org/CodeSystem/condition-category","code":"problem-list-item","display":"Problem List Item"}]}],"code":{"coding":[{"system":"http://snomed.info/sct","code":"428321000124101","display":"Anaphylaxis due to Hepatitis B vaccine (disorder)"}]},"subject":{"reference":"Patient/6a884f9c-67ce-4d35-9385-ab3b46dac3f2"},"onsetDateTime":"2024-01-02T00:00:00.000Z"},"request":{"method":"PUT","url":"Condition/b3701ac0-a89e-40b5-b06f-c60d0d268981"}},{"fullUrl":"https://madie.cms.gov/Condition/Condition-6","resource":{"resourceType":"Condition","id":"829f727b-6204-475d-9ff0-df721b78fc99","meta":{"profile":["http://hl7.org/fhir/us/qicore/StructureDefinition/qicore-condition"]},"clinicalStatus":{"coding":[{"system":"http://terminology.hl7.org/CodeSystem/condition-clinical","code":"active"}]},"category":[{"coding":[{"system":"http://terminology.hl7.org/CodeSystem/condition-category","code":"problem-list-item","display":"Problem List Item"}]}],"code":{"coding":[{"system":"http://snomed.info/sct","code":"471341000124104","display":"Anaphylaxis caused by vaccine containing Human alphaherpesvirus 3 antigen (disorder)"}]},"subject":{"reference":"Patient/6a884f9c-67ce-4d35-9385-ab3b46dac3f2"},"onsetDateTime":"2024-01-02T00:00:00.000Z"},"request":{"method":"PUT","url":"Condition/829f727b-6204-475d-9ff0-df721b78fc99"}},{"fullUrl":"https://madie.cms.gov/Condition/Condition-7","resource":{"resourceType":"Condition","id":"39aaeac1-033d-421d-a510-7894521e8395","meta":{"profile":["http://hl7.org/fhir/us/qicore/StructureDefinition/qicore-condition"]},"clinicalStatus":{"coding":[{"system":"http://terminology.hl7.org/CodeSystem/condition-clinical","code":"active"}]},"category":[{"coding":[{"system":"http://terminology.hl7.org/CodeSystem/condition-category","code":"problem-list-item","display":"Problem List Item"}]}],"code":{"coding":[{"system":"http://snomed.info/sct","code":"471141000124102","display":"Anaphylaxis caused by vaccine product containing Streptococcus pneumoniae antigen (disorder)"}]},"subject":{"reference":"Patient/6a884f9c-67ce-4d35-9385-ab3b46dac3f2"},"onsetDateTime":"2024-01-12T00:00:00.000Z"},"request":{"method":"PUT","url":"Condition/39aaeac1-033d-421d-a510-7894521e8395"}},{"fullUrl":"https://madie.cms.gov/Condition/Condition-8","resource":{"resourceType":"Condition","id":"da9471de-4347-4f86-801d-b7cdf896366b","meta":{"profile":["http://hl7.org/fhir/us/qicore/StructureDefinition/qicore-condition"]},"clinicalStatus":{"coding":[{"system":"http://terminology.hl7.org/CodeSystem/condition-clinical","code":"active"}]},"category":[{"coding":[{"system":"http://terminology.hl7.org/CodeSystem/condition-category","code":"problem-list-item","display":"Problem List Item"}]}],"code":{"coding":[{"system":"http://snomed.info/sct","code":"471311000124103","display":"Anaphylaxis caused by vaccine product containing Hepatitis A virus antigen (disorder)"}]},"subject":{"reference":"Patient/6a884f9c-67ce-4d35-9385-ab3b46dac3f2"},"onsetDateTime":"2024-01-02T00:00:00.000Z"},"request":{"method":"PUT","url":"Condition/da9471de-4347-4f86-801d-b7cdf896366b"}},{"fullUrl":"https://madie.cms.gov/Condition/Condition-9","resource":{"resourceType":"Condition","id":"7415a002-a531-488b-badc-7a6240b68ecc","meta":{"profile":["http://hl7.org/fhir/us/qicore/StructureDefinition/qicore-condition"]},"clinicalStatus":{"coding":[{"system":"http://terminology.hl7.org/CodeSystem/condition-clinical","code":"active"}]},"category":[{"coding":[{"system":"http://terminology.hl7.org/CodeSystem/condition-category","code":"problem-list-item","display":"Problem List Item"}]}],"code":{"coding":[{"system":"http://snomed.info/sct","code":"428331000124103","display":"Anaphylaxis caused by rotavirus vaccine (disorder)"}]},"subject":{"reference":"Patient/6a884f9c-67ce-4d35-9385-ab3b46dac3f2"},"onsetDateTime":"2024-01-02T00:00:00.000Z"},"request":{"method":"PUT","url":"Condition/7415a002-a531-488b-badc-7a6240b68ecc"}},{"fullUrl":"https://madie.cms.gov/Condition/Condition-10","resource":{"resourceType":"Condition","id":"d2fc41d3-bfb2-48db-ba5a-2c14670d50fd","meta":{"profile":["http://hl7.org/fhir/us/qicore/StructureDefinition/qicore-condition"]},"clinicalStatus":{"coding":[{"system":"http://terminology.hl7.org/CodeSystem/condition-clinical","code":"active"}]},"category":[{"coding":[{"system":"http://terminology.hl7.org/CodeSystem/condition-category","code":"problem-list-item","display":"Problem List Item"}]}],"code":{"coding":[{"system":"http://snomed.info/sct","code":"471361000124100","display":"Anaphylaxis caused by vaccine product containing Influenza virus antigen (disorder)"}]},"subject":{"reference":"Patient/6a884f9c-67ce-4d35-9385-ab3b46dac3f2"},"onsetDateTime":"2024-01-02T00:00:00.000Z"},"request":{"method":"PUT","url":"Condition/d2fc41d3-bfb2-48db-ba5a-2c14670d50fd"}},{"fullUrl":"https://madie.cms.gov/MeasureReport/0ce50e15-c2d9-4fe3-8906-a512deaf0b43","resource":{"resourceType":"MeasureReport","id":"0ce50e15-c2d9-4fe3-8906-a512deaf0b43","meta":{"profile":["http://hl7.org/fhir/us/cqfmeasures/StructureDefinition/test-case-cqfm"]},"contained":[{"resourceType":"Parameters","id":"0e6c8e67-ac1a-47f7-b3ea-2c5d6ad69f9f-parameters","parameter":[{"name":"subject","valueString":"6a884f9c-67ce-4d35-9385-ab3b46dac3f2"}]}],"extension":[{"url":"http://hl7.org/fhir/us/cqfmeasures/StructureDefinition/cqfm-inputParameters","valueReference":{"reference":"#0e6c8e67-ac1a-47f7-b3ea-2c5d6ad69f9f-parameters"}},{"url":"http://hl7.org/fhir/us/cqfmeasures/StructureDefinition/cqfm-testCaseDescription","valueMarkdown":"All anaphylaxis"}],"modifierExtension":[{"url":"http://hl7.org/fhir/us/cqfmeasures/StructureDefinition/cqfm-isTestCase","valueBoolean":true}],"status":"complete","type":"individual","measure":"https://madie.cms.gov/Measure/ChildhoodImmunizationStatusFHIR","period":{"start":"2025-01-01","end":"2025-12-31"},"group":[{"population":[{"code":{"coding":[{"system":"http://terminology.hl7.org/CodeSystem/measure-population","code":"initial-population","display":"Initial Population"}]},"count":1},{"code":{"coding":[{"system":"http://terminology.hl7.org/CodeSystem/measure-population","code":"denominator","display":"Denominator"}]},"count":1},{"code":{"coding":[{"system":"http://terminology.hl7.org/CodeSystem/measure-population","code":"denominator-exclusion","display":"Denominator Exclusion"}]},"count":0},{"code":{"coding":[{"system":"http://terminology.hl7.org/CodeSystem/measure-population","code":"numerator","display":"Numerator"}]},"count":1}]}]},"request":{"method":"PUT","url":"MeasureReport/0ce50e15-c2d9-4fe3-8906-a512deaf0b43"}}]}