{
  "resourceType": "Bundle",
  "id": "Patient-16-Strat3Pass-PatientIs18YrsOld",
  "type": "transaction",
  "entry": [ {
    "fullUrl": "https://madie.cms.gov/Patient/2a659917-083a-4b06-b5dd-a7b089e1345f",
    "resource": {
      "resourceType": "Patient",
      "id": "2a659917-083a-4b06-b5dd-a7b089e1345f",
      "meta": {
        "profile": [ "http://hl7.org/fhir/us/qicore/StructureDefinition/qicore-patient" ]
      },
      "extension": [ {
        "url": "http://hl7.org/fhir/us/core/StructureDefinition/us-core-race",
        "extension": [ {
          "url": "ombCategory",
          "valueCoding": {
            "system": "urn:oid:2.16.840.1.113883.6.238",
            "code": "2028-9",
            "display": "Asian"
          }
        }, {
          "url": "text",
          "valueString": "Asian"
        } ]
      }, {
        "url": "http://hl7.org/fhir/us/core/StructureDefinition/us-core-ethnicity",
        "extension": [ {
          "url": "ombCategory",
          "valueCoding": {
            "system": "urn:oid:2.16.840.1.113883.6.238",
            "code": "2135-2",
            "display": "Hispanic or Latino"
          }
        }, {
          "url": "text",
          "valueString": "Hispanic or Latino"
        } ]
      } ],
      "identifier": [ {
        "system": "http://hospital.smarthealthit.org",
        "value": "999999995"
      } ],
      "name": [ {
        "family": "Bertha",
        "given": [ "Betty" ]
      } ],
      "gender": "female",
      "birthDate": "1960-01-01"
    },
    "request": {
      "method": "POST",
      "url": "Patient/2a659917-083a-4b06-b5dd-a7b089e1345f"
    }
  }, {
    "fullUrl": "https://madie.cms.gov/Encounter/Encounter-24",
    "resource": {
      "resourceType": "Encounter",
      "id": "Encounter-24",
      "meta": {
        "profile": [ "http://hl7.org/fhir/us/qicore/StructureDefinition/qicore-encounter" ]
      },
      "status": "finished",
      "class": {
        "system": "http://terminology.hl7.org/CodeSystem/v3-ActCode",
        "code": "AMB",
        "display": "ambulatory"
      },
      "type": [ {
        "coding": [ {
          "system": "http://www.ama-assn.org/go/cpt",
          "version": "2023",
          "code": "99401",
          "display": "Preventive medicine counseling and/or risk factor reduction intervention(s) provided to an individual (separate procedure); approximately 15 minutes"
        } ]
      } ],
      "subject": {
        "reference": "Patient/2a659917-083a-4b06-b5dd-a7b089e1345f"
      },
      "period": {
        "start": "2025-01-01T01:00:00.000Z",
        "end": "2025-01-01T01:15:00.000Z"
      }
    },
    "request": {
      "method": "POST",
      "url": "Encounter/Encounter-24"
    }
  }, {
    "fullUrl": "https://madie.cms.gov/Condition/Condition-21",
    "resource": {
      "resourceType": "Condition",
      "id": "Condition-21",
      "meta": {
        "profile": [ "http://hl7.org/fhir/us/qicore/StructureDefinition/qicore-condition" ]
      },
      "clinicalStatus": {
        "coding": [ {
          "system": "http://terminology.hl7.org/CodeSystem/condition-clinical",
          "code": "active"
        } ]
      },
      "category": [ {
        "coding": [ {
          "system": "http://terminology.hl7.org/CodeSystem/condition-category",
          "code": "problem-list-item",
          "display": "Problem List Item"
        } ]
      } ],
      "code": {
        "coding": [ {
          "system": "http://snomed.info/sct",
          "code": "54398005",
          "display": "Acute upper respiratory infection (disorder)"
        } ]
      },
      "subject": {
        "reference": "Patient/2a659917-083a-4b06-b5dd-a7b089e1345f"
      },
      "onsetDateTime": "2025-01-01T01:00:00.000Z"
    },
    "request": {
      "method": "POST",
      "url": "Condition/Condition-21"
    }
  }, {
    "fullUrl": "https://madie.cms.gov/Encounter/Encounter-25",
    "resource": {
      "resourceType": "Encounter",
      "id": "Encounter-25",
      "meta": {
        "profile": [ "http://hl7.org/fhir/us/qicore/StructureDefinition/qicore-encounter" ]
      },
      "status": "finished",
      "class": {
        "system": "http://terminology.hl7.org/CodeSystem/v3-ActCode",
        "code": "AMB",
        "display": "ambulatory"
      },
      "type": [ {
        "coding": [ {
          "system": "http://snomed.info/sct",
          "code": "305336008",
          "display": "Admission to hospice (procedure)"
        } ]
      } ],
      "subject": {
        "reference": "Patient/2a659917-083a-4b06-b5dd-a7b089e1345f"
      },
      "period": {
        "start": "2024-01-01T00:00:00.000Z",
        "end": "2024-01-01T01:15:00.000Z"
      }
    },
    "request": {
      "method": "POST",
      "url": "Encounter/Encounter-25"
    }
  }, {
    "fullUrl": "https://madie.cms.gov/MeasureReport/7a73c5a6-85c5-435c-858a-ff16972c7d03",
    "resource": {
      "resourceType": "MeasureReport",
      "id": "7a73c5a6-85c5-435c-858a-ff16972c7d03",
      "meta": {
        "profile": [ "http://hl7.org/fhir/us/cqfmeasures/StructureDefinition/test-case-cqfm" ]
      },
      "contained": [ {
        "resourceType": "Parameters",
        "id": "d3211bc4-ce81-4963-8b37-7eaf10d69be7-parameters",
        "parameter": [ {
          "name": "subject",
          "valueString": "2a659917-083a-4b06-b5dd-a7b089e1345f"
        } ]
      } ],
      "extension": [ {
        "url": "http://hl7.org/fhir/us/cqfmeasures/StructureDefinition/cqfm-inputParameters",
        "valueReference": {
          "reference": "#d3211bc4-ce81-4963-8b37-7eaf10d69be7-parameters"
        }
      }, {
        "url": "http://hl7.org/fhir/us/cqfmeasures/StructureDefinition/cqfm-testCaseDescription",
        "valueMarkdown": "Patient is 65 year old by MP"
      } ],
      "modifierExtension": [ {
        "url": "http://hl7.org/fhir/us/cqfmeasures/StructureDefinition/cqfm-isTestCase",
        "valueBoolean": true
      } ],
      "status": "complete",
      "type": "individual",
      "measure": "https://madie.cms.gov/Measure/AppropriateTreatmentforUpperRespiratoryInfectionURIFHIR",
      "period": {
        "start": "2025-01-01",
        "end": "2025-12-31"
      },
      "group": [ {
        "population": [ {
          "code": {
            "coding": [ {
              "system": "http://terminology.hl7.org/CodeSystem/measure-population",
              "code": "initial-population",
              "display": "Initial Population"
            } ]
          },
          "count": 1
        }, {
          "code": {
            "coding": [ {
              "system": "http://terminology.hl7.org/CodeSystem/measure-population",
              "code": "denominator",
              "display": "Denominator"
            } ]
          },
          "count": 1
        }, {
          "code": {
            "coding": [ {
              "system": "http://terminology.hl7.org/CodeSystem/measure-population",
              "code": "denominator-exclusion",
              "display": "Denominator Exclusion"
            } ]
          },
          "count": 0
        }, {
          "code": {
            "coding": [ {
              "system": "http://terminology.hl7.org/CodeSystem/measure-population",
              "code": "numerator",
              "display": "Numerator"
            } ]
          },
          "count": 1
        } ]
      } ],
      "evaluatedResource": [ {
        "reference": "https://madie.cms.gov/Patient/2a659917-083a-4b06-b5dd-a7b089e1345f"
      }, {
        "reference": "https://madie.cms.gov/Encounter/Encounter-24"
      }, {
        "reference": "https://madie.cms.gov/Condition/Condition-21"
      }, {
        "reference": "https://madie.cms.gov/Encounter/Encounter-25"
      } ]
    },
    "request": {
      "method": "POST",
      "url": "MeasureReport/7a73c5a6-85c5-435c-858a-ff16972c7d03"
    }
  } ]
}