{"resourceType":"Bundle","id":"tests-3803ca64-74ee-442c-ac0d-75a925a2bf30-bundle","type":"transaction","entry":[{"fullUrl":"https://madie.cms.gov/Patient/3803ca64-74ee-442c-ac0d-75a925a2bf30","resource":{"resourceType":"Patient","id":"3803ca64-74ee-442c-ac0d-75a925a2bf30","meta":{"profile":["http://hl7.org/fhir/us/qicore/StructureDefinition/qicore-patient"]},"extension":[{"url":"http://hl7.org/fhir/us/core/StructureDefinition/us-core-race","extension":[{"url":"ombCategory","valueCoding":{"system":"urn:oid:2.16.840.1.113883.6.238","code":"2076-8","display":"Native Hawaiian or Other Pacific Islander","userSelected":true}},{"url":"text","valueString":"Native Hawaiian or Other Pacific Islander"}]},{"url":"http://hl7.org/fhir/us/core/StructureDefinition/us-core-ethnicity","extension":[{"url":"ombCategory","valueCoding":{"system":"urn:oid:2.16.840.1.113883.6.238","code":"2186-5","display":"Not Hispanic or Latino","userSelected":true}},{"url":"text","valueString":"Not Hispanic or Latino"}]}],"identifier":[{"type":{"coding":[{"system":"http://terminology.hl7.org/CodeSystem/v2-0203","code":"MR"}]},"system":"https://bonnie-fhir.healthit.gov/","value":"617be1241619a529957d62a9"}],"name":[{"family":"DenExcl4Pass","given":["DxStartsBeforeEndsDuringED"]}],"gender":"female","birthDate":"1984-12-02"},"request":{"method":"PUT","url":"Patient/3803ca64-74ee-442c-ac0d-75a925a2bf30"}},{"fullUrl":"https://madie.cms.gov/Encounter/emergency-department-visit-62aa","resource":{"resourceType":"Encounter","id":"8aa13dea-05d6-46e3-ae2f-2c15edf763ab","meta":{"profile":["http://hl7.org/fhir/us/qicore/StructureDefinition/qicore-encounter"]},"status":"finished","class":{"system":"http://terminology.hl7.org/CodeSystem/v3-ActCode","code":"EMER","display":"emergency"},"type":[{"coding":[{"system":"http://snomed.info/sct","version":"2020-09","code":"4525004","display":"Emergency department patient visit (procedure)","userSelected":true}]}],"subject":{"reference":"Patient/3803ca64-74ee-442c-ac0d-75a925a2bf30"},"period":{"start":"2025-10-09T08:05:00.000+00:00","end":"2025-10-10T07:15:00.000+00:00"}},"request":{"method":"PUT","url":"Encounter/8aa13dea-05d6-46e3-ae2f-2c15edf763ab"}},{"fullUrl":"https://madie.cms.gov/Condition/stemi-62ab","resource":{"resourceType":"Condition","id":"0b9eeb39-b7c9-49a4-bf7a-9d794186212f","meta":{"profile":["http://hl7.org/fhir/us/qicore/StructureDefinition/qicore-condition"]},"clinicalStatus":{"coding":[{"system":"http://terminology.hl7.org/CodeSystem/condition-clinical","code":"active","display":"active","userSelected":true}]},"category":[{"coding":[{"system":"http://terminology.hl7.org/CodeSystem/condition-category","code":"problem-list-item","display":"Problem List Item"}]}],"code":{"coding":[{"system":"http://snomed.info/sct","version":"2020-09","code":"401303003","display":"Acute ST segment elevation myocardial infarction (disorder)","userSelected":true}]},"subject":{"reference":"Patient/3803ca64-74ee-442c-ac0d-75a925a2bf30"},"onsetDateTime":"2025-10-09T09:36:00.000+00:00"},"request":{"method":"PUT","url":"Condition/0b9eeb39-b7c9-49a4-bf7a-9d794186212f"}},{"fullUrl":"https://madie.cms.gov/Condition/malignant-intracranial-neoplasm-group-9b79","resource":{"resourceType":"Condition","id":"6749a116-2eca-492e-8831-c286a569872e","meta":{"profile":["http://hl7.org/fhir/us/qicore/StructureDefinition/qicore-condition"]},"clinicalStatus":{"coding":[{"system":"http://terminology.hl7.org/CodeSystem/condition-clinical","code":"inactive","display":"Inactive","userSelected":true}]},"category":[{"coding":[{"system":"http://terminology.hl7.org/CodeSystem/condition-category","code":"problem-list-item","display":"Problem List Item"}]}],"code":{"coding":[{"system":"http://snomed.info/sct","version":"2020-09","code":"109911004","display":"Overlapping malignant neoplasm of brain and other parts of the central nervous system (disorder)","userSelected":true}]},"subject":{"reference":"Patient/3803ca64-74ee-442c-ac0d-75a925a2bf30"},"onsetDateTime":"2025-05-31T08:00:00.000+00:00","abatementDateTime":"2025-10-09T08:06:00.000+00:00"},"request":{"method":"PUT","url":"Condition/6749a116-2eca-492e-8831-c286a569872e"}},{"fullUrl":"https://madie.cms.gov/Coverage/1","resource":{"resourceType":"Coverage","id":"3abb2a92-d340-4b95-822d-af505ec54b60","meta":{"profile":["http://hl7.org/fhir/us/qicore/StructureDefinition/qicore-coverage"]},"status":"active","beneficiary":{"reference":"Patient/3803ca64-74ee-442c-ac0d-75a925a2bf30"},"payor":[{"reference":"Organization/26111c91-b0e2-476c-a20b-e3f39799f8f5"}]},"request":{"method":"PUT","url":"Coverage/3abb2a92-d340-4b95-822d-af505ec54b60"}},{"fullUrl":"https://madie.cms.gov/Organization/123456","resource":{"resourceType":"Organization","id":"26111c91-b0e2-476c-a20b-e3f39799f8f5","meta":{"profile":["http://hl7.org/fhir/us/qicore/StructureDefinition/qicore-organization"]},"identifier":[{"use":"temp","system":"urn:oid:2.16.840.1.113883.4.4","value":"21-3259825"}],"active":true,"type":[{"coding":[{"system":"http://terminology.hl7.org/CodeSystem/organization-type","code":"pay","display":"Payer"}]}],"name":"Blue Cross Blue Shield of Texas","telecom":[{"system":"phone","value":"(+1) 972-766-6900"}],"address":[{"use":"billing","type":"postal","line":["P.O. Box 660044"],"city":"Dallas","state":"TX","postalCode":"75266-0044","country":"USA"}]},"request":{"method":"PUT","url":"Organization/26111c91-b0e2-476c-a20b-e3f39799f8f5"}},{"fullUrl":"https://madie.cms.gov/Practitioner/practitioner-123456","resource":{"resourceType":"Practitioner","id":"940be137-bd15-46b0-957c-3c89f4685518","meta":{"profile":["http://hl7.org/fhir/us/qicore/StructureDefinition/qicore-practitioner"]},"identifier":[{"system":"http://hl7.org/fhir/sid/us-npi","value":"123456"}],"name":[{"family":"Evil","prefix":["Dr"]}]},"request":{"method":"PUT","url":"Practitioner/940be137-bd15-46b0-957c-3c89f4685518"}},{"fullUrl":"https://madie.cms.gov/MeasureReport/56423aa3-5d7d-41ca-8cc3-c7877758c703","resource":{"resourceType":"MeasureReport","id":"56423aa3-5d7d-41ca-8cc3-c7877758c703","meta":{"profile":["http://hl7.org/fhir/us/cqfmeasures/StructureDefinition/test-case-cqfm"]},"contained":[{"resourceType":"Parameters","id":"9b627bbe-5286-4f03-a33a-ac7bd300c34d-parameters","parameter":[{"name":"subject","valueString":"3803ca64-74ee-442c-ac0d-75a925a2bf30"}]}],"extension":[{"url":"http://hl7.org/fhir/us/cqfmeasures/StructureDefinition/cqfm-inputParameters","valueReference":{"reference":"#9b627bbe-5286-4f03-a33a-ac7bd300c34d-parameters"}},{"url":"http://hl7.org/fhir/us/cqfmeasures/StructureDefinition/cqfm-testCaseDescription","valueMarkdown":"Patient has Malignant Intracranial Neoplasm (exclusion dx) starts before ends during ED"}],"modifierExtension":[{"url":"http://hl7.org/fhir/us/cqfmeasures/StructureDefinition/cqfm-isTestCase","valueBoolean":true}],"status":"complete","type":"individual","measure":"https://madie.cms.gov/Measure/AppropriateTreatmentforSTEMIFHIR","period":{"start":"2025-01-01","end":"2025-12-31"},"group":[{"population":[{"code":{"coding":[{"system":"http://terminology.hl7.org/CodeSystem/measure-population","code":"initial-population","display":"Initial Population"}]},"count":1},{"code":{"coding":[{"system":"http://terminology.hl7.org/CodeSystem/measure-population","code":"denominator","display":"Denominator"}]},"count":1},{"code":{"coding":[{"system":"http://terminology.hl7.org/CodeSystem/measure-population","code":"denominator-exclusion","display":"Denominator Exclusion"}]},"count":1},{"code":{"coding":[{"system":"http://terminology.hl7.org/CodeSystem/measure-population","code":"numerator","display":"Numerator"}]},"count":0},{"code":{"coding":[{"system":"http://terminology.hl7.org/CodeSystem/measure-population","code":"denominator-exception","display":"Denominator Exception"}]},"count":0}]}]},"request":{"method":"PUT","url":"MeasureReport/56423aa3-5d7d-41ca-8cc3-c7877758c703"}}]}