{"resourceType":"Bundle","id":"tests-1a75e113-5ea8-4341-b940-deb8b5a152e6-bundle","type":"transaction","entry":[{"fullUrl":"https://madie.cms.gov/Patient/1a75e113-5ea8-4341-b940-deb8b5a152e6","resource":{"resourceType":"Patient","id":"1a75e113-5ea8-4341-b940-deb8b5a152e6","meta":{"profile":["http://hl7.org/fhir/us/qicore/StructureDefinition/qicore-patient"]},"extension":[{"url":"http://hl7.org/fhir/us/core/StructureDefinition/us-core-race","extension":[{"url":"ombCategory","valueCoding":{"system":"urn:oid:2.16.840.1.113883.6.238","code":"2054-5","display":"Black or African American","userSelected":true}},{"url":"text","valueString":"Black or African American"}]},{"url":"http://hl7.org/fhir/us/core/StructureDefinition/us-core-ethnicity","extension":[{"url":"ombCategory","valueCoding":{"system":"urn:oid:2.16.840.1.113883.6.238","code":"2186-5","display":"Not Hispanic or Latino","userSelected":true}},{"url":"text","valueString":"Not Hispanic or Latino"}]}],"identifier":[{"type":{"coding":[{"system":"http://terminology.hl7.org/CodeSystem/v2-0203","code":"MR"}]},"system":"https://bonnie-fhir.healthit.gov/","value":"617bf16e1619a529957d62c5"}],"name":[{"family":"DenExcl7Pass","given":["DxStartsandEndsDuring90dayPeriod"]}],"gender":"female","birthDate":"1984-12-02"},"request":{"method":"PUT","url":"Patient/1a75e113-5ea8-4341-b940-deb8b5a152e6"}},{"fullUrl":"https://madie.cms.gov/Encounter/emergency-department-visit-330a","resource":{"resourceType":"Encounter","id":"93d0de42-a9b3-4f4c-ba61-ee8ee3b0f07b","meta":{"profile":["http://hl7.org/fhir/us/qicore/StructureDefinition/qicore-encounter"]},"status":"finished","class":{"system":"http://terminology.hl7.org/CodeSystem/v3-ActCode","code":"EMER","display":"emergency","userSelected":true},"type":[{"coding":[{"system":"http://snomed.info/sct","version":"2020-09","code":"4525004","display":"Emergency department patient visit (procedure)","userSelected":true}]}],"subject":{"reference":"Patient/1a75e113-5ea8-4341-b940-deb8b5a152e6"},"period":{"start":"2025-10-09T08:05:00.000+00:00","end":"2025-10-10T07:15:00.000+00:00"}},"request":{"method":"PUT","url":"Encounter/93d0de42-a9b3-4f4c-ba61-ee8ee3b0f07b"}},{"fullUrl":"https://madie.cms.gov/Condition/stemi-330b","resource":{"resourceType":"Condition","id":"0baab1ce-09ab-44ae-a4ba-9e16f9187c52","meta":{"profile":["http://hl7.org/fhir/us/qicore/StructureDefinition/qicore-condition"]},"clinicalStatus":{"coding":[{"system":"http://terminology.hl7.org/CodeSystem/condition-clinical","code":"active","display":"active","userSelected":true}]},"category":[{"coding":[{"system":"http://terminology.hl7.org/CodeSystem/condition-category","code":"encounter-diagnosis","display":"Encounter Diagnosis","userSelected":true}]}],"code":{"coding":[{"system":"http://snomed.info/sct","version":"2020-09","code":"401303003","display":"Acute ST segment elevation myocardial infarction (disorder)","userSelected":true}]},"subject":{"reference":"Patient/1a75e113-5ea8-4341-b940-deb8b5a152e6"},"onsetDateTime":"2025-10-09T08:30:00.000+00:00"},"request":{"method":"PUT","url":"Condition/0baab1ce-09ab-44ae-a4ba-9e16f9187c52"}},{"fullUrl":"https://madie.cms.gov/Condition/ischemic-stroke-62c6","resource":{"resourceType":"Condition","id":"b4121e16-4121-485c-a69c-a7991e8f4f20","meta":{"profile":["http://hl7.org/fhir/us/qicore/StructureDefinition/qicore-condition"]},"clinicalStatus":{"coding":[{"system":"http://terminology.hl7.org/CodeSystem/condition-clinical","version":"4.0.1","code":"inactive","display":"Inactive","userSelected":true}]},"category":[{"coding":[{"system":"http://terminology.hl7.org/CodeSystem/condition-category","code":"encounter-diagnosis","display":"Encounter Diagnosis","userSelected":true}]}],"code":{"coding":[{"system":"http://snomed.info/sct","version":"2020-09","code":"195186005","display":"Cerebral infarction due to embolism of precerebral arteries (disorder)","userSelected":true}]},"subject":{"reference":"Patient/1a75e113-5ea8-4341-b940-deb8b5a152e6"},"onsetDateTime":"2025-08-20T08:00:00.000+00:00","abatementDateTime":"2025-10-01T09:15:00.000+00:00"},"request":{"method":"PUT","url":"Condition/b4121e16-4121-485c-a69c-a7991e8f4f20"}},{"fullUrl":"https://madie.cms.gov/MeasureReport/ca300c31-dfb4-4049-9ec1-7925616fb5c9","resource":{"resourceType":"MeasureReport","id":"ca300c31-dfb4-4049-9ec1-7925616fb5c9","meta":{"profile":["http://hl7.org/fhir/us/cqfmeasures/StructureDefinition/test-case-cqfm"]},"contained":[{"resourceType":"Parameters","id":"c06a2f86-1aa1-459a-9d1d-d1f411aa5051-parameters","parameter":[{"name":"subject","valueString":"1a75e113-5ea8-4341-b940-deb8b5a152e6"}]}],"extension":[{"url":"http://hl7.org/fhir/us/cqfmeasures/StructureDefinition/cqfm-inputParameters","valueReference":{"reference":"#c06a2f86-1aa1-459a-9d1d-d1f411aa5051-parameters"}},{"url":"http://hl7.org/fhir/us/cqfmeasures/StructureDefinition/cqfm-testCaseDescription","valueMarkdown":"Patient has Ischemic Stroke (exclusion diagnosis) starts during and ends during 90 day period"}],"modifierExtension":[{"url":"http://hl7.org/fhir/us/cqfmeasures/StructureDefinition/cqfm-isTestCase","valueBoolean":true}],"status":"complete","type":"individual","measure":"https://madie.cms.gov/Measure/AppropriateTreatmentforSTEMIFHIR","period":{"start":"2025-01-01","end":"2025-12-31"},"group":[{"population":[{"code":{"coding":[{"system":"http://terminology.hl7.org/CodeSystem/measure-population","code":"initial-population","display":"Initial Population"}]},"count":1},{"code":{"coding":[{"system":"http://terminology.hl7.org/CodeSystem/measure-population","code":"denominator","display":"Denominator"}]},"count":1},{"code":{"coding":[{"system":"http://terminology.hl7.org/CodeSystem/measure-population","code":"denominator-exclusion","display":"Denominator Exclusion"}]},"count":1},{"code":{"coding":[{"system":"http://terminology.hl7.org/CodeSystem/measure-population","code":"numerator","display":"Numerator"}]},"count":0},{"code":{"coding":[{"system":"http://terminology.hl7.org/CodeSystem/measure-population","code":"denominator-exception","display":"Denominator Exception"}]},"count":0}]}]},"request":{"method":"PUT","url":"MeasureReport/ca300c31-dfb4-4049-9ec1-7925616fb5c9"}}]}