{"resourceType":"Bundle","id":"tests-d767d545-4fa1-499f-98ef-099563ffc20a-bundle","type":"transaction","entry":[{"fullUrl":"https://madie.cms.gov/Patient/d767d545-4fa1-499f-98ef-099563ffc20a","resource":{"resourceType":"Patient","id":"d767d545-4fa1-499f-98ef-099563ffc20a","meta":{"profile":["http://hl7.org/fhir/us/qicore/StructureDefinition/qicore-patient"]},"extension":[{"url":"http://hl7.org/fhir/us/core/StructureDefinition/us-core-race","extension":[{"url":"ombCategory","valueCoding":{"system":"urn:oid:2.16.840.1.113883.6.238","code":"1002-5","display":"American Indian or Alaska Native","userSelected":true}},{"url":"text","valueString":"American Indian or Alaska Native"}]},{"url":"http://hl7.org/fhir/us/core/StructureDefinition/us-core-ethnicity","extension":[{"url":"ombCategory","valueCoding":{"system":"urn:oid:2.16.840.1.113883.6.238","code":"2186-5","display":"Not Hispanic or Latino","userSelected":true}},{"url":"text","valueString":"Not Hispanic or Latino"}]}],"identifier":[{"type":{"coding":[{"system":"http://terminology.hl7.org/CodeSystem/v2-0203","code":"MR"}]},"system":"https://bonnie-fhir.healthit.gov/","value":"6419dda89c0269a68225bb44"}],"name":[{"family":"4NumFail","given":["PCI91minEDstartrelevantPeriod"]}],"gender":"female","birthDate":"1984-12-02"},"request":{"method":"PUT","url":"Patient/d767d545-4fa1-499f-98ef-099563ffc20a"}},{"fullUrl":"https://madie.cms.gov/Encounter/emergency-department-visit-4e24","resource":{"resourceType":"Encounter","id":"c99a3750-f6d4-4bb5-bd09-2b84c018e2c9","meta":{"profile":["http://hl7.org/fhir/us/qicore/StructureDefinition/qicore-encounter"]},"extension":[{"url":"http://hl7.org/fhir/us/core/ValueSet/us-core-condition-code","valueCodeableConcept":{"coding":[{"system":"http://hl7.org/fhir/sid/icd-10-cm","version":"2021","code":"I22.9","display":"Subsequent ST elevation (STEMI) myocardial infarction of unspecified site","userSelected":true}]}}],"status":"finished","class":{"system":"http://terminology.hl7.org/CodeSystem/v3-ActCode","code":"EMER","display":"emergency","userSelected":true},"type":[{"coding":[{"system":"http://snomed.info/sct","version":"2020-09","code":"4525004","display":"Emergency department patient visit (procedure)","userSelected":true}]}],"subject":{"reference":"Patient/d767d545-4fa1-499f-98ef-099563ffc20a"},"period":{"start":"2025-10-09T08:05:00.000+00:00","end":"2025-10-10T07:15:00.000+00:00"},"diagnosis":[{"condition":{"reference":"Condition/stemi-4e25"}}]},"request":{"method":"PUT","url":"Encounter/c99a3750-f6d4-4bb5-bd09-2b84c018e2c9"}},{"fullUrl":"https://madie.cms.gov/Condition/stemi-4e25","resource":{"resourceType":"Condition","id":"0485e417-b66a-41ac-a8f1-2bea770cf713","meta":{"profile":["http://hl7.org/fhir/us/qicore/StructureDefinition/qicore-condition"]},"clinicalStatus":{"coding":[{"system":"http://terminology.hl7.org/CodeSystem/condition-clinical","code":"active","display":"active","userSelected":true}]},"verificationStatus":{"coding":[{"system":"http://terminology.hl7.org/CodeSystem/condition-ver-status","code":"confirmed","display":"Confirmed","userSelected":true}]},"category":[{"coding":[{"system":"http://terminology.hl7.org/CodeSystem/condition-category","code":"encounter-diagnosis","display":"Encounter Diagnosis","userSelected":true}]}],"code":{"coding":[{"system":"http://snomed.info/sct","version":"2020-09","code":"401303003","display":"Acute ST segment elevation myocardial infarction (disorder)","userSelected":true}]},"subject":{"reference":"Patient/d767d545-4fa1-499f-98ef-099563ffc20a"},"onsetDateTime":"2025-10-09T08:15:00.000+00:00"},"request":{"method":"PUT","url":"Condition/0485e417-b66a-41ac-a8f1-2bea770cf713"}},{"fullUrl":"https://madie.cms.gov/Procedure/percutaneous-coronary-intervention-4e26","resource":{"resourceType":"Procedure","id":"7edad125-0bb9-4771-a0aa-0c782b140aca","meta":{"profile":["http://hl7.org/fhir/us/qicore/StructureDefinition/qicore-procedure"]},"extension":[{"url":"http://hl7.org/fhir/us/qicore/StructureDefinition/qicore-recorded","valueDateTime":"2025-10-09T12:15:00.000+00:00"}],"status":"completed","category":{"coding":[{"system":"http://snomed.info/sct","code":"387713003","display":"Surgical procedure","userSelected":true}]},"code":{"coding":[{"system":"http://www.icd10data.com/icd10pcs","version":"2021","code":"0270346","display":"Dilation of Coronary Artery, One Artery, Bifurcation, with Drug-eluting Intraluminal Device, Percutaneous Approach","userSelected":true}]},"subject":{"reference":"Patient/d767d545-4fa1-499f-98ef-099563ffc20a"},"performedPeriod":{"start":"2025-10-09T09:36:00.000+00:00","end":"2025-10-09T12:15:00.000+00:00"}},"request":{"method":"PUT","url":"Procedure/7edad125-0bb9-4771-a0aa-0c782b140aca"}},{"fullUrl":"https://madie.cms.gov/Coverage/1","resource":{"resourceType":"Coverage","id":"d3a4dfee-5121-4afa-843d-b0f8d2db6070","meta":{"profile":["http://hl7.org/fhir/us/qicore/StructureDefinition/qicore-coverage"]},"status":"active","beneficiary":{"reference":"Patient/d767d545-4fa1-499f-98ef-099563ffc20a"},"payor":[{"reference":"Organization/26111c91-b0e2-476c-a20b-e3f39799f8f5"}]},"request":{"method":"PUT","url":"Coverage/d3a4dfee-5121-4afa-843d-b0f8d2db6070"}},{"fullUrl":"https://madie.cms.gov/Organization/123456","resource":{"resourceType":"Organization","id":"26111c91-b0e2-476c-a20b-e3f39799f8f5","meta":{"profile":["http://hl7.org/fhir/us/qicore/StructureDefinition/qicore-organization"]},"identifier":[{"use":"temp","system":"urn:oid:2.16.840.1.113883.4.4","value":"21-3259825"}],"active":true,"type":[{"coding":[{"system":"http://terminology.hl7.org/CodeSystem/organization-type","code":"pay","display":"Payer"}]}],"name":"Blue Cross Blue Shield of Texas","telecom":[{"system":"phone","value":"(+1) 972-766-6900"}],"address":[{"use":"billing","type":"postal","line":["P.O. Box 660044"],"city":"Dallas","state":"TX","postalCode":"75266-0044","country":"USA"}]},"request":{"method":"PUT","url":"Organization/26111c91-b0e2-476c-a20b-e3f39799f8f5"}},{"fullUrl":"https://madie.cms.gov/Practitioner/practitioner-123456","resource":{"resourceType":"Practitioner","id":"f5ad68d1-46f2-4102-bfd4-b7812cdaa143","meta":{"profile":["http://hl7.org/fhir/us/qicore/StructureDefinition/qicore-practitioner"]},"identifier":[{"system":"http://hl7.org/fhir/sid/us-npi","value":"123456"}],"name":[{"family":"Evil","prefix":["Dr"]}]},"request":{"method":"PUT","url":"Practitioner/f5ad68d1-46f2-4102-bfd4-b7812cdaa143"}},{"fullUrl":"https://madie.cms.gov/MeasureReport/29160ebc-38f8-47af-9fac-e6fe80d16a6e","resource":{"resourceType":"MeasureReport","id":"29160ebc-38f8-47af-9fac-e6fe80d16a6e","meta":{"profile":["http://hl7.org/fhir/us/cqfmeasures/StructureDefinition/test-case-cqfm"]},"contained":[{"resourceType":"Parameters","id":"5b6f9dbe-065a-431e-a91a-a7fb0dab0192-parameters","parameter":[{"name":"subject","valueString":"d767d545-4fa1-499f-98ef-099563ffc20a"}]}],"extension":[{"url":"http://hl7.org/fhir/us/cqfmeasures/StructureDefinition/cqfm-inputParameters","valueReference":{"reference":"#5b6f9dbe-065a-431e-a91a-a7fb0dab0192-parameters"}},{"url":"http://hl7.org/fhir/us/cqfmeasures/StructureDefinition/cqfm-testCaseDescription","valueMarkdown":"PCI 91 minutes of ED start"}],"modifierExtension":[{"url":"http://hl7.org/fhir/us/cqfmeasures/StructureDefinition/cqfm-isTestCase","valueBoolean":true}],"status":"complete","type":"individual","measure":"https://madie.cms.gov/Measure/AppropriateTreatmentforSTEMIFHIR","period":{"start":"2025-01-01","end":"2025-12-31"},"group":[{"population":[{"code":{"coding":[{"system":"http://terminology.hl7.org/CodeSystem/measure-population","code":"initial-population","display":"Initial Population"}]},"count":1},{"code":{"coding":[{"system":"http://terminology.hl7.org/CodeSystem/measure-population","code":"denominator","display":"Denominator"}]},"count":1},{"code":{"coding":[{"system":"http://terminology.hl7.org/CodeSystem/measure-population","code":"denominator-exclusion","display":"Denominator Exclusion"}]},"count":0},{"code":{"coding":[{"system":"http://terminology.hl7.org/CodeSystem/measure-population","code":"numerator","display":"Numerator"}]},"count":0},{"code":{"coding":[{"system":"http://terminology.hl7.org/CodeSystem/measure-population","code":"denominator-exception","display":"Denominator Exception"}]},"count":0}]}]},"request":{"method":"PUT","url":"MeasureReport/29160ebc-38f8-47af-9fac-e6fe80d16a6e"}}]}