{
  "resourceType": "Bundle",
  "id": "64137a4e4b11b147841ab8f1",
  "type": "transaction",
  "entry": [ {
    "fullUrl": "https://madie.cms.gov/Patient/ed17f9e5-1200-49e3-a4fc-1c188d8932dc",
    "resource": {
      "resourceType": "Patient",
      "id": "ed17f9e5-1200-49e3-a4fc-1c188d8932dc",
      "meta": {
        "profile": [ "http://hl7.org/fhir/us/qicore/StructureDefinition/qicore-patient" ]
      },
      "extension": [ {
        "url": "http://hl7.org/fhir/us/core/StructureDefinition/us-core-race",
        "extension": [ {
          "url": "ombCategory",
          "valueCoding": {
            "system": "urn:oid:2.16.840.1.113883.6.238",
            "code": "2076-8",
            "display": "Native Hawaiian or Other Pacific Islander",
            "userSelected": true
          }
        }, {
          "url": "text",
          "valueString": "Native Hawaiian or Other Pacific Islander"
        } ]
      }, {
        "url": "http://hl7.org/fhir/us/core/StructureDefinition/us-core-ethnicity",
        "extension": [ {
          "url": "ombCategory",
          "valueCoding": {
            "system": "urn:oid:2.16.840.1.113883.6.238",
            "code": "2186-5",
            "display": "Not Hispanic or Latino",
            "userSelected": true
          }
        }, {
          "url": "text",
          "valueString": "Not Hispanic or Latino"
        } ]
      } ],
      "identifier": [ {
        "type": {
          "coding": [ {
            "system": "http://terminology.hl7.org/CodeSystem/v2-0203",
            "code": "MR"
          } ]
        },
        "system": "https://bonnie-fhir.healthit.gov/",
        "value": "64137a4e4b11b147841ab8f1"
      } ],
      "name": [ {
        "family": "DENOMPass",
        "given": [ "AnnualWellnessVisitDuringMP" ]
      } ],
      "gender": "female",
      "birthDate": "1997-01-01"
    },
    "request": {
      "method": "POST",
      "url": "Patient/ed17f9e5-1200-49e3-a4fc-1c188d8932dc"
    }
  }, {
    "fullUrl": "https://madie.cms.gov/Condition/diabetes-b8f2",
    "resource": {
      "resourceType": "Condition",
      "id": "diabetes-b8f2",
      "meta": {
        "profile": [ "http://hl7.org/fhir/us/qicore/StructureDefinition/qicore-condition" ]
      },
      "clinicalStatus": {
        "coding": [ {
          "system": "http://terminology.hl7.org/CodeSystem/condition-clinical",
          "code": "active",
          "display": "active",
          "userSelected": true
        } ]
      },
      "category": [ {
        "coding": [ {
          "system": "http://terminology.hl7.org/CodeSystem/condition-category",
          "code": "problem-list-item",
          "display": "problem-list-item",
          "userSelected": true
        } ]
      } ],
      "code": {
        "coding": [ {
          "system": "http://snomed.info/sct",
          "version": "2021-09",
          "code": "102781000119107",
          "display": "Sensory neuropathy due to type 1 diabetes mellitus (disorder)",
          "userSelected": true
        } ]
      },
      "subject": {
        "reference": "Patient/ed17f9e5-1200-49e3-a4fc-1c188d8932dc"
      },
      "onsetDateTime": "2023-07-14T08:00:00.000+00:00"
    },
    "request": {
      "method": "POST",
      "url": "Condition/diabetes-b8f2"
    }
  }, {
    "fullUrl": "https://madie.cms.gov/Encounter/annual-wellness-visit-b8f3",
    "resource": {
      "resourceType": "Encounter",
      "id": "annual-wellness-visit-b8f3",
      "meta": {
        "profile": [ "http://hl7.org/fhir/us/qicore/StructureDefinition/qicore-encounter" ]
      },
      "status": "finished",
      "class": {
        "system": "http://terminology.hl7.org/CodeSystem/v3-ActCode",
        "code": "AMB",
        "display": "ambulatory",
        "userSelected": true
      },
      "type": [ {
        "coding": [ {
          "system": "http://snomed.info/sct",
          "version": "2021-09",
          "code": "444971000124105",
          "display": "Annual wellness visit (procedure)",
          "userSelected": true
        } ]
      } ],
      "subject": {
        "reference": "Patient/ed17f9e5-1200-49e3-a4fc-1c188d8932dc"
      },
      "period": {
        "start": "2025-03-16T08:00:00.000+00:00",
        "end": "2025-03-16T08:15:00.000+00:00"
      }
    },
    "request": {
      "method": "POST",
      "url": "Encounter/annual-wellness-visit-b8f3"
    }
  }, {
    "fullUrl": "https://madie.cms.gov/MeasureReport/8adad4b0-c684-47c8-b9bd-c32d31205bc4",
    "resource": {
      "resourceType": "MeasureReport",
      "id": "8adad4b0-c684-47c8-b9bd-c32d31205bc4",
      "meta": {
        "profile": [ "http://hl7.org/fhir/us/cqfmeasures/StructureDefinition/test-case-cqfm" ]
      },
      "contained": [ {
        "resourceType": "Parameters",
        "id": "0f6529a5-4153-481b-a3ca-bd5141d9131d-parameters",
        "parameter": [ {
          "name": "subject",
          "valueString": "ed17f9e5-1200-49e3-a4fc-1c188d8932dc"
        } ]
      } ],
      "extension": [ {
        "url": "http://hl7.org/fhir/us/cqfmeasures/StructureDefinition/cqfm-inputParameters",
        "valueReference": {
          "reference": "#0f6529a5-4153-481b-a3ca-bd5141d9131d-parameters"
        }
      }, {
        "url": "http://hl7.org/fhir/us/cqfmeasures/StructureDefinition/cqfm-testCaseDescription",
        "valueMarkdown": "This patient is 27 and has an active diabetes diagnosis and an annual wellness visit performed during the measurement period. This tests the denominator criteria.\n"
      } ],
      "modifierExtension": [ {
        "url": "http://hl7.org/fhir/us/cqfmeasures/StructureDefinition/cqfm-isTestCase",
        "valueBoolean": true
      } ],
      "status": "complete",
      "type": "individual",
      "measure": "https://madie.cms.gov/Measure/KidneyHealthEvaluationFHIR",
      "period": {
        "start": "2025-01-01",
        "end": "2025-12-31"
      },
      "group": [ {
        "population": [ {
          "code": {
            "coding": [ {
              "system": "http://terminology.hl7.org/CodeSystem/measure-population",
              "code": "initial-population",
              "display": "Initial Population"
            } ]
          },
          "count": 1
        }, {
          "code": {
            "coding": [ {
              "system": "http://terminology.hl7.org/CodeSystem/measure-population",
              "code": "denominator",
              "display": "Denominator"
            } ]
          },
          "count": 1
        }, {
          "code": {
            "coding": [ {
              "system": "http://terminology.hl7.org/CodeSystem/measure-population",
              "code": "denominator-exclusion",
              "display": "Denominator Exclusion"
            } ]
          },
          "count": 0
        }, {
          "code": {
            "coding": [ {
              "system": "http://terminology.hl7.org/CodeSystem/measure-population",
              "code": "numerator",
              "display": "Numerator"
            } ]
          },
          "count": 0
        } ]
      } ],
      "evaluatedResource": [ {
        "reference": "Patient/ed17f9e5-1200-49e3-a4fc-1c188d8932dc"
      }, {
        "reference": "Condition/diabetes-b8f2"
      }, {
        "reference": "Encounter/annual-wellness-visit-b8f3"
      } ]
    },
    "request": {
      "method": "POST",
      "url": "MeasureReport/8adad4b0-c684-47c8-b9bd-c32d31205bc4"
    }
  } ]
}