{
  "resourceType": "Bundle",
  "id": "62c880ec0111a60120dc2200",
  "type": "transaction",
  "entry": [ {
    "fullUrl": "https://madie.cms.gov/Patient/166cfb40-26ae-4f7a-b878-4c17075f32bc",
    "resource": {
      "resourceType": "Patient",
      "id": "166cfb40-26ae-4f7a-b878-4c17075f32bc",
      "meta": {
        "profile": [ "http://hl7.org/fhir/us/qicore/StructureDefinition/qicore-patient" ]
      },
      "text": {
        "status": "generated",
        "div": "<div xmlns=\"http://www.w3.org/1999/xhtml\"><div class=\"hapiHeaderText\">EncStarts1DayPriorMP<b>IPPFailPop1</b></div><table class=\"hapiPropertyTable\"><tbody><tr><td>Identifier</td><td>cc3aeb8d038c49994510871812f95c4f</td></tr><tr><td>Date of birth</td><td><span>19 October 1961</span></td></tr></tbody></table></div>"
      },
      "extension": [ {
        "url": "http://hl7.org/fhir/us/core/StructureDefinition/us-core-race",
        "extension": [ {
          "url": "ombCategory",
          "valueCoding": {
            "system": "urn:oid:2.16.840.1.113883.6.238",
            "code": "1002-5",
            "display": "American Indian or Alaska Native",
            "userSelected": true
          }
        }, {
          "url": "text",
          "valueString": "American Indian or Alaska Native"
        } ]
      }, {
        "url": "http://hl7.org/fhir/us/core/StructureDefinition/us-core-ethnicity",
        "extension": [ {
          "url": "ombCategory",
          "valueCoding": {
            "system": "urn:oid:2.16.840.1.113883.6.238",
            "code": "2135-2",
            "display": "Hispanic or Latino",
            "userSelected": true
          }
        }, {
          "url": "text",
          "valueString": "Hispanic or Latino"
        } ]
      } ],
      "identifier": [ {
        "type": {
          "coding": [ {
            "system": "http://terminology.hl7.org/CodeSystem/v2-0203",
            "code": "MR"
          } ]
        },
        "system": "https://bonnie-fhir.healthit.gov/",
        "value": "62c880ec0111a60120dc2200"
      } ],
      "active": true,
      "name": [ {
        "use": "usual",
        "family": "IPPFailPop1",
        "given": [ "EncStarts1DayPriorMP" ]
      } ],
      "gender": "male",
      "birthDate": "1961-10-19"
    },
    "request": {
      "method": "POST",
      "url": "Patient/166cfb40-26ae-4f7a-b878-4c17075f32bc"
    }
  }, {
    "fullUrl": "https://madie.cms.gov/Condition/5ca52607b8484613a555a92a",
    "resource": {
      "resourceType": "Condition",
      "id": "5ca52607b8484613a555a92a",
      "meta": {
        "profile": [ "http://hl7.org/fhir/us/qicore/StructureDefinition/qicore-condition" ]
      },
      "clinicalStatus": {
        "coding": [ {
          "system": "http://terminology.hl7.org/CodeSystem/condition-clinical",
          "code": "active",
          "display": "active"
        } ]
      },
      "verificationStatus": {
        "coding": [ {
          "system": "http://terminology.hl7.org/CodeSystem/condition-ver-status",
          "code": "confirmed",
          "display": "Confirmed"
        } ]
      },
      "category": [ {
        "coding": [ {
          "system": "http://terminology.hl7.org/CodeSystem/condition-category",
          "code": "problem-list-item",
          "display": "Problem List Item"
        } ]
      } ],
      "code": {
        "coding": [ {
          "system": "http://hl7.org/fhir/sid/icd-10-cm",
          "code": "D49.1"
        } ]
      },
      "subject": {
        "reference": "Patient/166cfb40-26ae-4f7a-b878-4c17075f32bc"
      },
      "onsetDateTime": "2021-01-01T10:00:00.000Z"
    },
    "request": {
      "method": "POST",
      "url": "Condition/5ca52607b8484613a555a92a"
    }
  }, {
    "fullUrl": "https://madie.cms.gov/Encounter/5ca52607b8484613a555a92b",
    "resource": {
      "resourceType": "Encounter",
      "id": "5ca52607b8484613a555a92b",
      "meta": {
        "profile": [ "http://hl7.org/fhir/us/qicore/StructureDefinition/qicore-encounter" ]
      },
      "status": "finished",
      "class": {
        "system": "http://terminology.hl7.org/CodeSystem/v3-ActCode",
        "code": "AMB",
        "display": "ambulatory",
        "userSelected": true
      },
      "type": [ {
        "coding": [ {
          "system": "http://www.ama-assn.org/go/cpt",
          "code": "99205"
        } ]
      } ],
      "subject": {
        "reference": "Patient/166cfb40-26ae-4f7a-b878-4c17075f32bc"
      },
      "period": {
        "start": "2023-12-31T13:00:00.000Z",
        "end": "2023-12-31T14:00:00.000Z"
      }
    },
    "request": {
      "method": "POST",
      "url": "Encounter/5ca52607b8484613a555a92b"
    }
  }, {
    "fullUrl": "https://madie.cms.gov/Coverage/60099ac51c76ba64612b0622",
    "resource": {
      "resourceType": "Coverage",
      "id": "60099ac51c76ba64612b0622",
      "meta": {
        "profile": [ "http://hl7.org/fhir/us/qicore/StructureDefinition/qicore-coverage" ]
      },
      "status": "active",
      "beneficiary": {
        "reference": "Patient/166cfb40-26ae-4f7a-b878-4c17075f32bc"
      },
      "period": {
        "start": "1986-02-11T08:00:00.000Z"
      },
      "payor": [ {
        "reference": "Organization/123456"
      } ]
    },
    "request": {
      "method": "POST",
      "url": "Coverage/60099ac51c76ba64612b0622"
    }
  }, {
    "fullUrl": "https://madie.cms.gov/Procedure/5ca52607b8484613a555a92c",
    "resource": {
      "resourceType": "Procedure",
      "id": "5ca52607b8484613a555a92c",
      "meta": {
        "profile": [ "http://hl7.org/fhir/us/qicore/StructureDefinition/qicore-procedure" ]
      },
      "extension": [ {
        "url": "http://hl7.org/fhir/us/qicore/StructureDefinition/qicore-recorded",
        "valueDateTime": "2025-01-17T11:35:00.000Z"
      } ],
      "status": "completed",
      "code": {
        "coding": [ {
          "system": "http://www.ama-assn.org/go/cpt",
          "code": "96405"
        } ]
      },
      "subject": {
        "reference": "Patient/166cfb40-26ae-4f7a-b878-4c17075f32bc"
      },
      "performedPeriod": {
        "start": "2025-01-17T11:00:00.000Z",
        "end": "2025-01-17T11:00:00.000Z"
      }
    },
    "request": {
      "method": "POST",
      "url": "Procedure/5ca52607b8484613a555a92c"
    }
  }, {
    "fullUrl": "https://madie.cms.gov/Procedure/5ca52607b8484613a555a92e",
    "resource": {
      "resourceType": "Procedure",
      "id": "5ca52607b8484613a555a92e",
      "meta": {
        "profile": [ "http://hl7.org/fhir/us/qicore/StructureDefinition/qicore-procedure" ]
      },
      "extension": [ {
        "url": "http://hl7.org/fhir/us/qicore/StructureDefinition/qicore-recorded",
        "valueDateTime": "2025-03-14T14:50:00.000Z"
      } ],
      "status": "completed",
      "code": {
        "coding": [ {
          "system": "http://www.ama-assn.org/go/cpt",
          "code": "96405"
        } ]
      },
      "subject": {
        "reference": "Patient/166cfb40-26ae-4f7a-b878-4c17075f32bc"
      },
      "performedPeriod": {
        "start": "2025-03-14T14:40:00.000Z",
        "end": "2025-03-14T14:40:00.000Z"
      }
    },
    "request": {
      "method": "POST",
      "url": "Procedure/5ca52607b8484613a555a92e"
    }
  }, {
    "fullUrl": "https://madie.cms.gov/Organization/123456",
    "resource": {
      "resourceType": "Organization",
      "id": "123456",
      "meta": {
        "profile": [ "http://hl7.org/fhir/us/qicore/StructureDefinition/qicore-organization" ]
      },
      "identifier": [ {
        "use": "temp",
        "system": "urn:oid:2.16.840.1.113883.4.4",
        "value": "21-3259825"
      } ],
      "active": true,
      "type": [ {
        "coding": [ {
          "system": "http://terminology.hl7.org/CodeSystem/organization-type",
          "code": "pay",
          "display": "Payer"
        } ]
      } ],
      "name": "Blue Cross Blue Shield of Texas",
      "telecom": [ {
        "system": "phone",
        "value": "(+1) 972-766-6900"
      } ],
      "address": [ {
        "use": "billing",
        "type": "postal",
        "line": [ "P.O. Box 660044" ],
        "city": "Dallas",
        "state": "TX",
        "postalCode": "75266-0044",
        "country": "USA"
      } ]
    },
    "request": {
      "method": "POST",
      "url": "Organization/123456"
    }
  }, {
    "fullUrl": "https://madie.cms.gov/Practitioner/practitioner-123456",
    "resource": {
      "resourceType": "Practitioner",
      "id": "practitioner-123456",
      "meta": {
        "profile": [ "http://hl7.org/fhir/us/qicore/StructureDefinition/qicore-practitioner" ]
      },
      "identifier": [ {
        "system": "http://hl7.org/fhir/sid/us-npi",
        "value": "123456"
      } ],
      "name": [ {
        "family": "Evil",
        "prefix": [ "Dr" ]
      } ]
    },
    "request": {
      "method": "POST",
      "url": "Practitioner/practitioner-123456"
    }
  }, {
    "fullUrl": "https://madie.cms.gov/MeasureReport/48ecd534-9e4a-4f3d-a653-0dddf6c23c89",
    "resource": {
      "resourceType": "MeasureReport",
      "id": "48ecd534-9e4a-4f3d-a653-0dddf6c23c89",
      "meta": {
        "profile": [ "http://hl7.org/fhir/us/cqfmeasures/StructureDefinition/test-case-cqfm" ]
      },
      "contained": [ {
        "resourceType": "Parameters",
        "id": "ccb282e4-8b70-432f-ac7c-ca344f43cbb5-parameters",
        "parameter": [ {
          "name": "subject",
          "valueString": "166cfb40-26ae-4f7a-b878-4c17075f32bc"
        } ]
      } ],
      "extension": [ {
        "url": "http://hl7.org/fhir/us/cqfmeasures/StructureDefinition/cqfm-inputParameters",
        "valueReference": {
          "reference": "#ccb282e4-8b70-432f-ac7c-ca344f43cbb5-parameters"
        }
      }, {
        "url": "http://hl7.org/fhir/us/cqfmeasures/StructureDefinition/cqfm-testCaseDescription",
        "valueMarkdown": "Patient with cancer diagnosis that overlaps the office visit, but office visit occurs a day prior to the measurement period. \n"
      } ],
      "modifierExtension": [ {
        "url": "http://hl7.org/fhir/us/cqfmeasures/StructureDefinition/cqfm-isTestCase",
        "valueBoolean": true
      } ],
      "status": "complete",
      "type": "individual",
      "measure": "https://madie.cms.gov/Measure/OncologyPainIntensityQuantifiedFHIR",
      "period": {
        "start": "2025-01-01",
        "end": "2025-12-31"
      },
      "group": [ {
        "population": [ {
          "code": {
            "coding": [ {
              "system": "http://terminology.hl7.org/CodeSystem/measure-population",
              "code": "initial-population",
              "display": "Initial Population"
            } ]
          },
          "count": 0
        }, {
          "code": {
            "coding": [ {
              "system": "http://terminology.hl7.org/CodeSystem/measure-population",
              "code": "denominator",
              "display": "Denominator"
            } ]
          },
          "count": 0
        }, {
          "code": {
            "coding": [ {
              "system": "http://terminology.hl7.org/CodeSystem/measure-population",
              "code": "numerator",
              "display": "Numerator"
            } ]
          },
          "count": 0
        } ]
      }, {
        "population": [ {
          "code": {
            "coding": [ {
              "system": "http://terminology.hl7.org/CodeSystem/measure-population",
              "code": "initial-population",
              "display": "Initial Population"
            } ]
          },
          "count": 0
        }, {
          "code": {
            "coding": [ {
              "system": "http://terminology.hl7.org/CodeSystem/measure-population",
              "code": "denominator",
              "display": "Denominator"
            } ]
          },
          "count": 0
        }, {
          "code": {
            "coding": [ {
              "system": "http://terminology.hl7.org/CodeSystem/measure-population",
              "code": "numerator",
              "display": "Numerator"
            } ]
          },
          "count": 0
        } ]
      } ],
      "evaluatedResource": [ {
        "reference": "https://madie.cms.gov/Patient/166cfb40-26ae-4f7a-b878-4c17075f32bc"
      }, {
        "reference": "https://madie.cms.gov/Condition/5ca52607b8484613a555a92a"
      }, {
        "reference": "https://madie.cms.gov/Encounter/5ca52607b8484613a555a92b"
      }, {
        "reference": "https://madie.cms.gov/Coverage/60099ac51c76ba64612b0622"
      }, {
        "reference": "https://madie.cms.gov/Procedure/5ca52607b8484613a555a92c"
      }, {
        "reference": "https://madie.cms.gov/Procedure/5ca52607b8484613a555a92e"
      }, {
        "reference": "https://madie.cms.gov/Organization/123456"
      }, {
        "reference": "https://madie.cms.gov/Practitioner/practitioner-123456"
      } ]
    },
    "request": {
      "method": "POST",
      "url": "MeasureReport/48ecd534-9e4a-4f3d-a653-0dddf6c23c89"
    }
  } ]
}