{"resourceType":"Bundle","id":"tests-b142f5b4-0f0e-4a68-9943-d2a1a9359639-bundle","type":"transaction","entry":[{"fullUrl":"https://madie.cms.gov/Patient/b142f5b4-0f0e-4a68-9943-d2a1a9359639","resource":{"resourceType":"Patient","id":"b142f5b4-0f0e-4a68-9943-d2a1a9359639","meta":{"profile":["http://hl7.org/fhir/us/qicore/StructureDefinition/qicore-patient"]},"extension":[{"url":"http://hl7.org/fhir/us/core/StructureDefinition/us-core-race","extension":[{"url":"ombCategory","valueCoding":{"system":"urn:oid:2.16.840.1.113883.6.238","code":"2028-9","display":"Asian","userSelected":true}},{"url":"text","valueString":"Asian"}]},{"url":"http://hl7.org/fhir/us/core/StructureDefinition/us-core-ethnicity","extension":[{"url":"ombCategory","valueCoding":{"system":"urn:oid:2.16.840.1.113883.6.238","code":"2186-5","display":"Not Hispanic or Latino","userSelected":true}},{"url":"text","valueString":"Not Hispanic or Latino"}]}],"identifier":[{"type":{"coding":[{"system":"http://terminology.hl7.org/CodeSystem/v2-0203","code":"MR"}]},"system":"https://bonnie-fhir.healthit.gov/","value":"6494686fd09ece2c2e9bf937"}],"name":[{"family":"13NumPass","given":["EncInMPVLafterEncDuringMPOver90Days"]}],"gender":"female","birthDate":"1990-05-08"},"request":{"method":"PUT","url":"Patient/b142f5b4-0f0e-4a68-9943-d2a1a9359639"}},{"fullUrl":"https://madie.cms.gov/Condition/hiv-f938","resource":{"resourceType":"Condition","id":"98397ff0-a710-408f-b7aa-d13604ff9c34","meta":{"profile":["http://hl7.org/fhir/us/qicore/StructureDefinition/qicore-condition"]},"clinicalStatus":{"coding":[{"system":"http://terminology.hl7.org/CodeSystem/condition-clinical","code":"active","display":"active","userSelected":true}]},"category":[{"coding":[{"system":"http://terminology.hl7.org/CodeSystem/condition-category","code":"problem-list-item","display":"Problem List Item"}]}],"code":{"coding":[{"system":"http://hl7.org/fhir/sid/icd-9-cm","version":"2013","code":"042","display":"Human immunodeficiency virus [HIV] disease","userSelected":true},{"system":"http://snomed.info/sct","code":"165816005","userSelected":true}]},"subject":{"reference":"Patient/b142f5b4-0f0e-4a68-9943-d2a1a9359639"},"onsetDateTime":"2001-11-19T08:00:00.000+00:00","recordedDate":"2001-11-19T08:00:00.000+00:00"},"request":{"method":"PUT","url":"Condition/98397ff0-a710-408f-b7aa-d13604ff9c34"}},{"fullUrl":"https://madie.cms.gov/Observation/hiv-viral-load-f939","resource":{"resourceType":"Observation","id":"6da411de-ac69-4288-a222-3bae57120c02","meta":{"profile":["http://hl7.org/fhir/us/qicore/StructureDefinition/qicore-observation"]},"status":"final","category":[{"coding":[{"system":"http://terminology.hl7.org/CodeSystem/observation-category"}]}],"code":{"coding":[{"system":"http://loinc.org","version":"2.73","code":"10351-5","display":"HIV 1 RNA [Units/volume] (viral load) in Serum or Plasma by Probe with amplification","userSelected":true}]},"subject":{"reference":"Patient/b142f5b4-0f0e-4a68-9943-d2a1a9359639"},"effectiveDateTime":"2025-05-01T08:00:00.000+00:00"},"request":{"method":"PUT","url":"Observation/6da411de-ac69-4288-a222-3bae57120c02"}},{"fullUrl":"https://madie.cms.gov/Encounter/preventive-care-services-initial-office-visit-18-and-up-f93a","resource":{"resourceType":"Encounter","id":"71ff2747-e8df-4ea6-9f47-28c2acf107d5","meta":{"profile":["http://hl7.org/fhir/us/qicore/StructureDefinition/qicore-encounter"]},"status":"finished","class":{"system":"http://terminology.hl7.org/CodeSystem/v3-ActCode","code":"AMB","display":"ambulatory"},"type":[{"coding":[{"system":"http://www.ama-assn.org/go/cpt","version":"2023","code":"99385","display":"Initial comprehensive preventive medicine evaluation and management of an individual including an age and gender appropriate history, examination, counseling/anticipatory guidance/risk factor reduction interventions, and the ordering of laboratory/diagnostic procedures, new patient; 18-39 years","userSelected":true}]}],"subject":{"reference":"Patient/b142f5b4-0f0e-4a68-9943-d2a1a9359639"},"period":{"start":"2025-01-30T08:00:00.000+00:00","end":"2025-01-30T08:15:00.000+00:00"}},"request":{"method":"PUT","url":"Encounter/71ff2747-e8df-4ea6-9f47-28c2acf107d5"}},{"fullUrl":"https://madie.cms.gov/Coverage/1","resource":{"resourceType":"Coverage","id":"256da454-8efb-42c1-a241-7178a016af45","meta":{"profile":["http://hl7.org/fhir/us/qicore/StructureDefinition/qicore-coverage"]},"status":"active","beneficiary":{"reference":"Patient/b142f5b4-0f0e-4a68-9943-d2a1a9359639"},"payor":[{"reference":"Organization/4b5a882f-1f43-485c-85c6-f5ad2337d5b1"}]},"request":{"method":"PUT","url":"Coverage/256da454-8efb-42c1-a241-7178a016af45"}},{"fullUrl":"https://madie.cms.gov/Organization/123456","resource":{"resourceType":"Organization","id":"4b5a882f-1f43-485c-85c6-f5ad2337d5b1","meta":{"profile":["http://hl7.org/fhir/us/qicore/StructureDefinition/qicore-organization"]},"identifier":[{"use":"temp","system":"urn:oid:2.16.840.1.113883.4.4","value":"21-3259825"}],"active":true,"type":[{"coding":[{"system":"http://terminology.hl7.org/CodeSystem/organization-type","code":"pay","display":"Payer"}]}],"name":"Blue Cross Blue Shield of Texas","telecom":[{"system":"phone","value":"(+1) 972-766-6900"}],"address":[{"use":"billing","type":"postal","line":["P.O. Box 660044"],"city":"Dallas","state":"TX","postalCode":"75266-0044","country":"USA"}]},"request":{"method":"PUT","url":"Organization/4b5a882f-1f43-485c-85c6-f5ad2337d5b1"}},{"fullUrl":"https://madie.cms.gov/Practitioner/practitioner-123456","resource":{"resourceType":"Practitioner","id":"518f1543-9f7b-40bb-be9a-a307a63ad3f4","meta":{"profile":["http://hl7.org/fhir/us/qicore/StructureDefinition/qicore-practitioner"]},"identifier":[{"system":"http://hl7.org/fhir/sid/us-npi","value":"123456"}],"name":[{"family":"Evil","prefix":["Dr"]}]},"request":{"method":"PUT","url":"Practitioner/518f1543-9f7b-40bb-be9a-a307a63ad3f4"}},{"fullUrl":"https://madie.cms.gov/MeasureReport/c1a53383-6c2a-446a-a538-29755c216521","resource":{"resourceType":"MeasureReport","id":"c1a53383-6c2a-446a-a538-29755c216521","meta":{"profile":["http://hl7.org/fhir/us/cqfmeasures/StructureDefinition/test-case-cqfm"]},"contained":[{"resourceType":"Parameters","id":"ace10d9e-9d00-4528-b4c5-a6bac6bdfbb8-parameters","parameter":[{"name":"subject","valueString":"b142f5b4-0f0e-4a68-9943-d2a1a9359639"}]}],"extension":[{"url":"http://hl7.org/fhir/us/cqfmeasures/StructureDefinition/cqfm-inputParameters","valueReference":{"reference":"#ace10d9e-9d00-4528-b4c5-a6bac6bdfbb8-parameters"}},{"url":"http://hl7.org/fhir/us/cqfmeasures/StructureDefinition/cqfm-testCaseDescription","valueMarkdown":"Patient has an encounter during the first 240 days of the MP and a VL test on 5/1 (over 90 days after Enc)"}],"modifierExtension":[{"url":"http://hl7.org/fhir/us/cqfmeasures/StructureDefinition/cqfm-isTestCase","valueBoolean":true}],"status":"complete","type":"individual","measure":"https://madie.cms.gov/Measure/HIVRetentionFHIR","period":{"start":"2025-01-01","end":"2025-12-31"},"group":[{"population":[{"code":{"coding":[{"system":"http://terminology.hl7.org/CodeSystem/measure-population","code":"initial-population","display":"Initial Population"}]},"count":1},{"code":{"coding":[{"system":"http://terminology.hl7.org/CodeSystem/measure-population","code":"denominator","display":"Denominator"}]},"count":1},{"code":{"coding":[{"system":"http://terminology.hl7.org/CodeSystem/measure-population","code":"numerator","display":"Numerator"}]},"count":1}]}]},"request":{"method":"PUT","url":"MeasureReport/c1a53383-6c2a-446a-a538-29755c216521"}}]}