{"resourceType":"Bundle","id":"tests-1f17a806-3a0c-43b9-9105-e0e6a97de64e-bundle","type":"transaction","entry":[{"fullUrl":"https://madie.cms.gov/Patient/1f17a806-3a0c-43b9-9105-e0e6a97de64e","resource":{"resourceType":"Patient","id":"1f17a806-3a0c-43b9-9105-e0e6a97de64e","meta":{"profile":["http://hl7.org/fhir/us/qicore/StructureDefinition/qicore-patient"]},"extension":[{"url":"http://hl7.org/fhir/us/core/StructureDefinition/us-core-race","extension":[{"url":"ombCategory","valueCoding":{"system":"urn:oid:2.16.840.1.113883.6.238","code":"2106-3","display":"White","userSelected":true}},{"url":"text","valueString":"White"}]},{"url":"http://hl7.org/fhir/us/core/StructureDefinition/us-core-ethnicity","extension":[{"url":"ombCategory","valueCoding":{"system":"urn:oid:2.16.840.1.113883.6.238","code":"2186-5","display":"Not Hispanic or Latino","userSelected":true}},{"url":"text","valueString":"Not Hispanic or Latino"}]}],"identifier":[{"type":{"coding":[{"system":"http://terminology.hl7.org/CodeSystem/v2-0203","code":"MR"}]},"system":"https://bonnie-fhir.healthit.gov/","value":"6494622ed09ece2c2e9bf910"}],"name":[{"family":"9NumFail","given":["VLduringMPwithEncAfter90Days"]}],"gender":"female","birthDate":"2017-05-12"},"request":{"method":"PUT","url":"Patient/1f17a806-3a0c-43b9-9105-e0e6a97de64e"}},{"fullUrl":"https://madie.cms.gov/Condition/hiv-f911","resource":{"resourceType":"Condition","id":"0e0535b6-4ecf-42d3-88d1-a953c9a00608","meta":{"profile":["http://hl7.org/fhir/us/qicore/StructureDefinition/qicore-condition"]},"clinicalStatus":{"coding":[{"system":"http://terminology.hl7.org/CodeSystem/condition-clinical","code":"active","display":"active","userSelected":true}]},"category":[{"coding":[{"system":"http://terminology.hl7.org/CodeSystem/condition-category","code":"problem-list-item","display":"Problem List Item"}]}],"code":{"coding":[{"system":"http://hl7.org/fhir/sid/icd-9-cm","version":"2013","code":"042","display":"Human immunodeficiency virus [HIV] disease","userSelected":true},{"system":"http://snomed.info/sct","code":"165816005","userSelected":true}]},"subject":{"reference":"Patient/1f17a806-3a0c-43b9-9105-e0e6a97de64e"},"onsetDateTime":"2020-05-12T08:00:00.000+00:00","recordedDate":"2020-05-13T09:00:00.000+00:00"},"request":{"method":"PUT","url":"Condition/0e0535b6-4ecf-42d3-88d1-a953c9a00608"}},{"fullUrl":"https://madie.cms.gov/Observation/hiv-viral-load-f913","resource":{"resourceType":"Observation","id":"8fc37a0b-34e8-4ebd-846a-5eb5e82c2e22","meta":{"profile":["http://hl7.org/fhir/us/qicore/StructureDefinition/qicore-observation"]},"status":"final","category":[{"coding":[{"system":"http://terminology.hl7.org/CodeSystem/observation-category"}]}],"code":{"coding":[{"system":"http://loinc.org","version":"2.73","code":"10351-5","display":"HIV 1 RNA [Units/volume] (viral load) in Serum or Plasma by Probe with amplification","userSelected":true}]},"subject":{"reference":"Patient/1f17a806-3a0c-43b9-9105-e0e6a97de64e"},"effectivePeriod":{"start":"2025-06-02T10:30:10+01:00","end":"2025-06-05T10:30:10+01:00"},"issued":"2025-06-03T15:30:10+01:00"},"request":{"method":"PUT","url":"Observation/8fc37a0b-34e8-4ebd-846a-5eb5e82c2e22"}},{"fullUrl":"https://madie.cms.gov/Encounter/office-visit-f914","resource":{"resourceType":"Encounter","id":"6c781502-f869-4e9d-905f-ec3df815bad5","meta":{"profile":["http://hl7.org/fhir/us/qicore/StructureDefinition/qicore-encounter"]},"status":"finished","class":{"system":"http://terminology.hl7.org/CodeSystem/v3-ActCode","code":"AMB","display":"ambulatory"},"type":[{"coding":[{"system":"http://snomed.info/sct","version":"2022-09","code":"185463005","display":"Visit out of hours (procedure)","userSelected":true}]}],"subject":{"reference":"Patient/1f17a806-3a0c-43b9-9105-e0e6a97de64e"},"period":{"start":"2025-06-22T08:00:00.000+00:00","end":"2025-06-22T08:15:00.000+00:00"}},"request":{"method":"PUT","url":"Encounter/6c781502-f869-4e9d-905f-ec3df815bad5"}},{"fullUrl":"https://madie.cms.gov/Coverage/1","resource":{"resourceType":"Coverage","id":"53df28f4-26e3-4a9b-969f-f86e041d664f","meta":{"profile":["http://hl7.org/fhir/us/qicore/StructureDefinition/qicore-coverage"]},"status":"active","beneficiary":{"reference":"Patient/1f17a806-3a0c-43b9-9105-e0e6a97de64e"},"payor":[{"reference":"Organization/4b5a882f-1f43-485c-85c6-f5ad2337d5b1"}]},"request":{"method":"PUT","url":"Coverage/53df28f4-26e3-4a9b-969f-f86e041d664f"}},{"fullUrl":"https://madie.cms.gov/Organization/123456","resource":{"resourceType":"Organization","id":"4b5a882f-1f43-485c-85c6-f5ad2337d5b1","meta":{"profile":["http://hl7.org/fhir/us/qicore/StructureDefinition/qicore-organization"]},"identifier":[{"use":"temp","system":"urn:oid:2.16.840.1.113883.4.4","value":"21-3259825"}],"active":true,"type":[{"coding":[{"system":"http://terminology.hl7.org/CodeSystem/organization-type","code":"pay","display":"Payer"}]}],"name":"Blue Cross Blue Shield of Texas","telecom":[{"system":"phone","value":"(+1) 972-766-6900"}],"address":[{"use":"billing","type":"postal","line":["P.O. Box 660044"],"city":"Dallas","state":"TX","postalCode":"75266-0044","country":"USA"}]},"request":{"method":"PUT","url":"Organization/4b5a882f-1f43-485c-85c6-f5ad2337d5b1"}},{"fullUrl":"https://madie.cms.gov/Practitioner/practitioner-123456","resource":{"resourceType":"Practitioner","id":"2d91684a-2418-4fb0-ab26-4a4e10ab2448","meta":{"profile":["http://hl7.org/fhir/us/qicore/StructureDefinition/qicore-practitioner"]},"identifier":[{"system":"http://hl7.org/fhir/sid/us-npi","value":"123456"}],"name":[{"family":"Evil","prefix":["Dr"]}]},"request":{"method":"PUT","url":"Practitioner/2d91684a-2418-4fb0-ab26-4a4e10ab2448"}},{"fullUrl":"https://madie.cms.gov/MeasureReport/4779e4fa-7ffb-4d5b-883b-637a61a98f07","resource":{"resourceType":"MeasureReport","id":"4779e4fa-7ffb-4d5b-883b-637a61a98f07","meta":{"profile":["http://hl7.org/fhir/us/cqfmeasures/StructureDefinition/test-case-cqfm"]},"contained":[{"resourceType":"Parameters","id":"5b282192-f5bc-4f48-b49e-7d18d89733b8-parameters","parameter":[{"name":"subject","valueString":"1f17a806-3a0c-43b9-9105-e0e6a97de64e"}]}],"extension":[{"url":"http://hl7.org/fhir/us/cqfmeasures/StructureDefinition/cqfm-inputParameters","valueReference":{"reference":"#5b282192-f5bc-4f48-b49e-7d18d89733b8-parameters"}},{"url":"http://hl7.org/fhir/us/cqfmeasures/StructureDefinition/cqfm-testCaseDescription","valueMarkdown":"Encounter occurs 17 days after VL test."}],"modifierExtension":[{"url":"http://hl7.org/fhir/us/cqfmeasures/StructureDefinition/cqfm-isTestCase","valueBoolean":true}],"status":"complete","type":"individual","measure":"https://madie.cms.gov/Measure/HIVRetentionFHIR","period":{"start":"2025-01-01","end":"2025-12-31"},"group":[{"population":[{"code":{"coding":[{"system":"http://terminology.hl7.org/CodeSystem/measure-population","code":"initial-population","display":"Initial Population"}]},"count":1},{"code":{"coding":[{"system":"http://terminology.hl7.org/CodeSystem/measure-population","code":"denominator","display":"Denominator"}]},"count":1},{"code":{"coding":[{"system":"http://terminology.hl7.org/CodeSystem/measure-population","code":"numerator","display":"Numerator"}]},"count":0}]}]},"request":{"method":"PUT","url":"MeasureReport/4779e4fa-7ffb-4d5b-883b-637a61a98f07"}}]}