{
  "resourceType": "Bundle",
  "id": "ScreAtriNorefAsseModDxCp2",
  "type": "transaction",
  "entry": [ {
    "fullUrl": "https://madie.cms.gov/Patient/e2664b2b-8c66-4621-a0c1-a95862fba95a",
    "resource": {
      "resourceType": "Patient",
      "id": "e2664b2b-8c66-4621-a0c1-a95862fba95a",
      "meta": {
        "profile": [ "http://hl7.org/fhir/us/qicore/StructureDefinition/qicore-patient" ]
      },
      "text": {
        "status": "generated",
        "div": "<div xmlns=\"http://www.w3.org/1999/xhtml\"><div class=\"hapiHeaderText\">ScreAtriNorefAsseModDxCp2, , <b> </b></div><table class=\"hapiPropertyTable\"><tbody><tr><td>Identifier</td><td>ScreAtriNorefAsseModDxCp2</td></tr><tr><td>Date of birth</td><td><span>14 May 1950</span></td></tr></tbody></table></div>"
      },
      "extension": [ {
        "url": "http://hl7.org/fhir/us/core/StructureDefinition/us-core-race",
        "extension": [ {
          "url": "ombCategory",
          "valueCoding": {
            "system": "urn:oid:2.16.840.1.113883.6.238",
            "code": "2106-3",
            "display": "White",
            "userSelected": true
          }
        }, {
          "url": "text",
          "valueString": "White"
        } ]
      }, {
        "url": "http://hl7.org/fhir/us/core/StructureDefinition/us-core-ethnicity",
        "extension": [ {
          "url": "ombCategory",
          "valueCoding": {
            "system": "urn:oid:2.16.840.1.113883.6.238",
            "code": "2186-5",
            "display": "Not Hispanic or Latino",
            "userSelected": true
          }
        }, {
          "url": "text",
          "valueString": "Not Hispanic or Latino"
        } ]
      } ],
      "identifier": [ {
        "type": {
          "coding": [ {
            "system": "http://terminology.hl7.org/CodeSystem/v2-0203",
            "code": "MR"
          } ]
        },
        "system": "https://madie.cms.gov/",
        "value": "ScreAtriNorefAsseModDxCp2"
      } ],
      "active": true,
      "name": [ {
        "use": "usual",
        "text": "ScreAtriNorefAsseModDxCp2",
        "family": "DENOMPass4",
        "given": [ "ScreAtriNorefAsseModDxCp2DENOMPass4" ]
      } ],
      "gender": "male",
      "birthDate": "1950-05-14",
      "address": [ {
        "text": "ScreAtriNorefAsseModDxCp2, Screened Not at risk Assessed Severely Malnourished Diagnosed Care Plan, ID=ScreAtriNorefAsseModDxCp2, DOB: 14 May 1950"
      } ]
    },
    "request": {
      "method": "POST",
      "url": "Patient/e2664b2b-8c66-4621-a0c1-a95862fba95a"
    }
  }, {
    "fullUrl": "https://madie.cms.gov/Encounter/ScreAtriNorefAsseModDxCp2-01",
    "resource": {
      "resourceType": "Encounter",
      "id": "ScreAtriNorefAsseModDxCp2-01",
      "meta": {
        "profile": [ "http://hl7.org/fhir/us/qicore/StructureDefinition/qicore-encounter" ]
      },
      "status": "finished",
      "class": {
        "system": "http://terminology.hl7.org/CodeSystem/v3-ActCode",
        "code": "IMP",
        "display": "inpatient encounter"
      },
      "type": [ {
        "coding": [ {
          "system": "http://snomed.info/sct",
          "code": "183452005"
        } ]
      } ],
      "subject": {
        "reference": "Patient/e2664b2b-8c66-4621-a0c1-a95862fba95a"
      },
      "period": {
        "start": "2026-02-01T08:00:00.000Z",
        "end": "2026-02-07T08:15:00.000Z"
      }
    },
    "request": {
      "method": "POST",
      "url": "Encounter/ScreAtriNorefAsseModDxCp2-01"
    }
  }, {
    "fullUrl": "https://madie.cms.gov/Condition/ScreAtriNorefAsseModDxCp2-06",
    "resource": {
      "resourceType": "Condition",
      "id": "ScreAtriNorefAsseModDxCp2-06",
      "meta": {
        "profile": [ "http://hl7.org/fhir/us/qicore/StructureDefinition/qicore-condition" ]
      },
      "clinicalStatus": {
        "coding": [ {
          "system": "http://terminology.hl7.org/CodeSystem/condition-clinical",
          "code": "active",
          "display": "Active",
          "userSelected": true
        } ]
      },
      "verificationStatus": {
        "coding": [ {
          "system": "http://terminology.hl7.org/CodeSystem/condition-ver-status",
          "code": "confirmed",
          "display": "Confirmed",
          "userSelected": true
        } ]
      },
      "category": [ {
        "coding": [ {
          "system": "http://terminology.hl7.org/CodeSystem/condition-category",
          "code": "encounter-diagnosis",
          "display": "Encounter Diagnosis",
          "userSelected": true
        } ]
      } ],
      "code": {
        "coding": [ {
          "system": "http://hl7.org/fhir/sid/icd-10-cm",
          "code": "E44.0",
          "display": "Moderate protein-calorie malnutrition",
          "userSelected": true
        } ]
      },
      "subject": {
        "reference": "Patient/e2664b2b-8c66-4621-a0c1-a95862fba95a"
      },
      "onsetPeriod": {
        "start": "2026-02-01T08:00:00.000+00:00"
      },
      "recordedDate": "2026-02-01T11:00:00.000+00:00"
    },
    "request": {
      "method": "POST",
      "url": "Condition/ScreAtriNorefAsseModDxCp2-06"
    }
  }, {
    "fullUrl": "https://madie.cms.gov/Observation/ScreAtriNorefAsseModDxCp2-18",
    "resource": {
      "resourceType": "Observation",
      "id": "ScreAtriNorefAsseModDxCp2-18",
      "meta": {
        "profile": [ "http://hl7.org/fhir/us/qicore/StructureDefinition/qicore-observation" ]
      },
      "status": "final",
      "category": [ {
        "coding": [ {
          "system": "http://terminology.hl7.org/CodeSystem/observation-category",
          "code": "survey",
          "display": "Survey"
        } ]
      } ],
      "code": {
        "coding": [ {
          "system": "http://loinc.org",
          "code": "98972-3",
          "display": "Final screening NRS_2002",
          "userSelected": true
        } ]
      },
      "subject": {
        "reference": "Patient/e2664b2b-8c66-4621-a0c1-a95862fba95a"
      },
      "effectiveDateTime": "2026-02-01T09:00:00.000+00:00",
      "valueCodeableConcept": {
        "coding": [ {
          "system": "http://snomed.info/sct",
          "code": "704361005",
          "display": "At risk of deficient food intake (finding)",
          "userSelected": true
        } ]
      }
    },
    "request": {
      "method": "POST",
      "url": "Observation/ScreAtriNorefAsseModDxCp2-18"
    }
  }, {
    "fullUrl": "https://madie.cms.gov/Observation/ScreAtriNorefAsseModDxCp2-19",
    "resource": {
      "resourceType": "Observation",
      "id": "ScreAtriNorefAsseModDxCp2-19",
      "meta": {
        "profile": [ "http://hl7.org/fhir/us/qicore/StructureDefinition/qicore-observation" ]
      },
      "status": "final",
      "category": [ {
        "coding": [ {
          "system": "http://terminology.hl7.org/CodeSystem/observation-category",
          "code": "survey",
          "display": "Survey"
        } ]
      } ],
      "code": {
        "coding": [ {
          "system": "http://loinc.org",
          "code": "75303-8",
          "display": "Nutrition assessment narrative",
          "userSelected": true
        } ]
      },
      "subject": {
        "reference": "Patient/e2664b2b-8c66-4621-a0c1-a95862fba95a"
      },
      "effectiveDateTime": "2026-02-01T10:00:00.000+00:00",
      "valueCodeableConcept": {
        "coding": [ {
          "system": "http://snomed.info/sct",
          "code": "190606006",
          "display": "Moderate protein energy malnutrition (finding)",
          "userSelected": true
        } ]
      }
    },
    "request": {
      "method": "POST",
      "url": "Observation/ScreAtriNorefAsseModDxCp2-19"
    }
  }, {
    "fullUrl": "https://madie.cms.gov/Procedure/ScreAtriNorefAsseModDxCp2-08",
    "resource": {
      "resourceType": "Procedure",
      "id": "ScreAtriNorefAsseModDxCp2-08",
      "meta": {
        "profile": [ "http://hl7.org/fhir/us/qicore/StructureDefinition/qicore-procedure" ]
      },
      "extension": [ {
        "url": "http://hl7.org/fhir/us/qicore/StructureDefinition/qicore-recorded",
        "valueDateTime": "2025-02-02T11:30:00.000Z"
      } ],
      "status": "completed",
      "code": {
        "coding": [ {
          "system": "http://snomed.info/sct",
          "code": "386372009",
          "display": "Development of a nutrition care plan (procedure)"
        } ],
        "text": "Development of a nutrition care plan (procedure)"
      },
      "subject": {
        "reference": "Patient/e2664b2b-8c66-4621-a0c1-a95862fba95a"
      },
      "encounter": {
        "reference": "Encounter/ScreAtriNorefAsseModDxCp2DENOMPass4"
      },
      "performedPeriod": {
        "start": "2026-02-01T11:30:00.000Z",
        "end": "2026-02-07T08:15:00.000Z"
      }
    },
    "request": {
      "method": "POST",
      "url": "Procedure/ScreAtriNorefAsseModDxCp2-08"
    }
  }, {
    "fullUrl": "https://madie.cms.gov/Coverage/ScreAtriNorefAsseModDxCp2-61",
    "resource": {
      "resourceType": "Coverage",
      "id": "ScreAtriNorefAsseModDxCp2-61",
      "meta": {
        "profile": [ "http://hl7.org/fhir/us/qicore/StructureDefinition/qicore-coverage" ]
      },
      "status": "active",
      "type": {
        "coding": [ {
          "system": "https://nahdo.org/sopt",
          "version": "9.2",
          "code": "11",
          "display": "Medicare Managed Care (Includes Medicare Advantage Plans)"
        } ]
      },
      "beneficiary": {
        "reference": "Patient/e2664b2b-8c66-4621-a0c1-a95862fba95a"
      },
      "period": {
        "start": "2024-10-01T00:00:00+00:00"
      },
      "payor": [ {
        "reference": "Organization/ScreAtriNorefAsseModDxCp2-98"
      } ]
    },
    "request": {
      "method": "POST",
      "url": "Coverage/ScreAtriNorefAsseModDxCp2-61"
    }
  }, {
    "fullUrl": "https://madie.cms.gov/Organization/ScreAtriNorefAsseModDxCp2-98",
    "resource": {
      "resourceType": "Organization",
      "id": "ScreAtriNorefAsseModDxCp2-98",
      "meta": {
        "profile": [ "http://hl7.org/fhir/us/qicore/StructureDefinition/qicore-organization" ]
      },
      "identifier": [ {
        "use": "temp",
        "system": "urn:oid:2.16.840.1.113883.4.4",
        "value": "21-3259825"
      } ],
      "active": true,
      "type": [ {
        "coding": [ {
          "system": "http://terminology.hl7.org/CodeSystem/organization-type",
          "code": "pay",
          "display": "Payer"
        } ]
      } ],
      "name": "Blue Cross Blue Shield of Texas",
      "telecom": [ {
        "system": "phone",
        "value": "(+1) 972-766-6900"
      } ],
      "address": [ {
        "use": "billing",
        "type": "postal",
        "line": [ "P.O. Box 660044" ],
        "city": "Dallas",
        "state": "TX",
        "postalCode": "75266-0044",
        "country": "USA"
      } ]
    },
    "request": {
      "method": "POST",
      "url": "Organization/ScreAtriNorefAsseModDxCp2-98"
    }
  }, {
    "fullUrl": "https://madie.cms.gov/MeasureReport/e6b0fd30-5a04-45ac-99b1-a0ef5a329429",
    "resource": {
      "resourceType": "MeasureReport",
      "id": "e6b0fd30-5a04-45ac-99b1-a0ef5a329429",
      "meta": {
        "profile": [ "http://hl7.org/fhir/us/cqfmeasures/StructureDefinition/test-case-cqfm" ]
      },
      "contained": [ {
        "resourceType": "Parameters",
        "id": "24db854d-650f-40c1-9d01-9f8c9434a9b7-parameters",
        "parameter": [ {
          "name": "subject",
          "valueString": "e2664b2b-8c66-4621-a0c1-a95862fba95a"
        } ]
      } ],
      "extension": [ {
        "url": "http://hl7.org/fhir/us/cqfmeasures/StructureDefinition/cqfm-inputParameters",
        "valueReference": {
          "reference": "#24db854d-650f-40c1-9d01-9f8c9434a9b7-parameters"
        }
      }, {
        "url": "http://hl7.org/fhir/us/cqfmeasures/StructureDefinition/cqfm-testCaseDescription",
        "valueMarkdown": "Screened, At Risk, No Referral, Assessed, Moderate Malnutrition, Diagnosis, Nutrition Care Plan"
      } ],
      "modifierExtension": [ {
        "url": "http://hl7.org/fhir/us/cqfmeasures/StructureDefinition/cqfm-isTestCase",
        "valueBoolean": true
      } ],
      "status": "complete",
      "type": "individual",
      "measure": "https://madie.cms.gov/Measure/GlobalMalnutritionCompositeFHIR",
      "period": {
        "start": "2026-01-01",
        "end": "2026-12-31"
      },
      "group": [ {
        "population": [ {
          "code": {
            "coding": [ {
              "system": "http://terminology.hl7.org/CodeSystem/measure-population",
              "code": "initial-population",
              "display": "Initial Population"
            } ]
          },
          "count": 1
        }, {
          "code": {
            "coding": [ {
              "system": "http://terminology.hl7.org/CodeSystem/measure-population",
              "code": "measure-population",
              "display": "Measure Population"
            } ]
          },
          "count": 1
        }, {
          "code": {
            "coding": [ {
              "system": "http://terminology.hl7.org/CodeSystem/measure-population",
              "code": "measure-population-observation",
              "display": "Measure Population Observation"
            } ]
          },
          "count": 1
        } ]
      }, {
        "population": [ {
          "code": {
            "coding": [ {
              "system": "http://terminology.hl7.org/CodeSystem/measure-population",
              "code": "initial-population",
              "display": "Initial Population"
            } ]
          },
          "count": 1
        }, {
          "code": {
            "coding": [ {
              "system": "http://terminology.hl7.org/CodeSystem/measure-population",
              "code": "measure-population",
              "display": "Measure Population"
            } ]
          },
          "count": 1
        }, {
          "code": {
            "coding": [ {
              "system": "http://terminology.hl7.org/CodeSystem/measure-population",
              "code": "measure-population-observation",
              "display": "Measure Population Observation"
            } ]
          },
          "count": 1
        } ]
      }, {
        "population": [ {
          "code": {
            "coding": [ {
              "system": "http://terminology.hl7.org/CodeSystem/measure-population",
              "code": "initial-population",
              "display": "Initial Population"
            } ]
          },
          "count": 1
        }, {
          "code": {
            "coding": [ {
              "system": "http://terminology.hl7.org/CodeSystem/measure-population",
              "code": "measure-population",
              "display": "Measure Population"
            } ]
          },
          "count": 1
        }, {
          "code": {
            "coding": [ {
              "system": "http://terminology.hl7.org/CodeSystem/measure-population",
              "code": "measure-population-observation",
              "display": "Measure Population Observation"
            } ]
          },
          "count": 1
        } ]
      }, {
        "population": [ {
          "code": {
            "coding": [ {
              "system": "http://terminology.hl7.org/CodeSystem/measure-population",
              "code": "initial-population",
              "display": "Initial Population"
            } ]
          },
          "count": 1
        }, {
          "code": {
            "coding": [ {
              "system": "http://terminology.hl7.org/CodeSystem/measure-population",
              "code": "measure-population",
              "display": "Measure Population"
            } ]
          },
          "count": 1
        }, {
          "code": {
            "coding": [ {
              "system": "http://terminology.hl7.org/CodeSystem/measure-population",
              "code": "measure-population-observation",
              "display": "Measure Population Observation"
            } ]
          },
          "count": 1
        } ]
      }, {
        "population": [ {
          "code": {
            "coding": [ {
              "system": "http://terminology.hl7.org/CodeSystem/measure-population",
              "code": "initial-population",
              "display": "Initial Population"
            } ]
          },
          "count": 1
        }, {
          "code": {
            "coding": [ {
              "system": "http://terminology.hl7.org/CodeSystem/measure-population",
              "code": "measure-population",
              "display": "Measure Population"
            } ]
          },
          "count": 1
        }, {
          "code": {
            "coding": [ {
              "system": "http://terminology.hl7.org/CodeSystem/measure-population",
              "code": "measure-population-observation",
              "display": "Measure Population Observation"
            } ]
          },
          "count": 4
        } ]
      }, {
        "population": [ {
          "code": {
            "coding": [ {
              "system": "http://terminology.hl7.org/CodeSystem/measure-population",
              "code": "initial-population",
              "display": "Initial Population"
            } ]
          },
          "count": 1
        }, {
          "code": {
            "coding": [ {
              "system": "http://terminology.hl7.org/CodeSystem/measure-population",
              "code": "measure-population",
              "display": "Measure Population"
            } ]
          },
          "count": 1
        }, {
          "code": {
            "coding": [ {
              "system": "http://terminology.hl7.org/CodeSystem/measure-population",
              "code": "measure-population-observation",
              "display": "Measure Population Observation"
            } ]
          },
          "count": 100
        } ]
      } ],
      "evaluatedResource": [ {
        "reference": "https://madie.cms.gov/Patient/e2664b2b-8c66-4621-a0c1-a95862fba95a"
      }, {
        "reference": "https://madie.cms.gov/Encounter/ScreAtriNorefAsseModDxCp2-01"
      }, {
        "reference": "https://madie.cms.gov/Condition/ScreAtriNorefAsseModDxCp2-06"
      }, {
        "reference": "https://madie.cms.gov/Observation/ScreAtriNorefAsseModDxCp2-18"
      }, {
        "reference": "https://madie.cms.gov/Observation/ScreAtriNorefAsseModDxCp2-19"
      }, {
        "reference": "https://madie.cms.gov/Procedure/ScreAtriNorefAsseModDxCp2-08"
      }, {
        "reference": "https://madie.cms.gov/Coverage/ScreAtriNorefAsseModDxCp2-61"
      }, {
        "reference": "https://madie.cms.gov/Organization/ScreAtriNorefAsseModDxCp2-98"
      } ]
    },
    "request": {
      "method": "POST",
      "url": "MeasureReport/e6b0fd30-5a04-45ac-99b1-a0ef5a329429"
    }
  } ]
}