{
  "resourceType": "Bundle",
  "id": "62c880ed0111a60120dc2224",
  "type": "transaction",
  "entry": [ {
    "fullUrl": "https://madie.cms.gov/Patient/757c5855-602e-4c25-8783-c22afccc1618",
    "resource": {
      "resourceType": "Patient",
      "id": "757c5855-602e-4c25-8783-c22afccc1618",
      "meta": {
        "profile": [ "http://hl7.org/fhir/us/qicore/StructureDefinition/qicore-patient" ]
      },
      "text": {
        "status": "generated",
        "div": "<div xmlns=\"http://www.w3.org/1999/xhtml\"><div class=\"hapiHeaderText\">PainAssessResultMissing<b>NUMERFailPop1</b></div><table class=\"hapiPropertyTable\"><tbody><tr><td>Identifier</td><td>ae3ffc5de11381ce5eaa97b40d3e1dc455d1361130f7b719fe01594aa809ff1e</td></tr><tr><td>Date of birth</td><td><span>13 May 1937</span></td></tr></tbody></table></div>"
      },
      "extension": [ {
        "url": "http://hl7.org/fhir/us/core/StructureDefinition/us-core-race",
        "extension": [ {
          "url": "ombCategory",
          "valueCoding": {
            "system": "urn:oid:2.16.840.1.113883.6.238",
            "code": "1002-5",
            "display": "American Indian or Alaska Native",
            "userSelected": true
          }
        }, {
          "url": "text",
          "valueString": "American Indian or Alaska Native"
        } ]
      }, {
        "url": "http://hl7.org/fhir/us/core/StructureDefinition/us-core-ethnicity",
        "extension": [ {
          "url": "ombCategory",
          "valueCoding": {
            "system": "urn:oid:2.16.840.1.113883.6.238",
            "code": "2135-2",
            "display": "Hispanic or Latino",
            "userSelected": true
          }
        }, {
          "url": "text",
          "valueString": "Hispanic or Latino"
        } ]
      } ],
      "identifier": [ {
        "type": {
          "coding": [ {
            "system": "http://terminology.hl7.org/CodeSystem/v2-0203",
            "code": "MR"
          } ]
        },
        "system": "https://bonnie-fhir.healthit.gov/",
        "value": "62c880ed0111a60120dc2224"
      } ],
      "active": true,
      "name": [ {
        "use": "usual",
        "family": "NUMERFailPop1",
        "given": [ "PainAssessResultMissing" ]
      } ],
      "gender": "female",
      "birthDate": "1937-05-13"
    },
    "request": {
      "method": "POST",
      "url": "Patient/757c5855-602e-4c25-8783-c22afccc1618"
    }
  }, {
    "fullUrl": "https://madie.cms.gov/Observation/5ca5260bb8484613a555a970",
    "resource": {
      "resourceType": "Observation",
      "id": "5ca5260bb8484613a555a970",
      "meta": {
        "profile": [ "http://hl7.org/fhir/us/qicore/StructureDefinition/qicore-observation" ]
      },
      "status": "final",
      "category": [ {
        "coding": [ {
          "system": "http://terminology.hl7.org/CodeSystem/observation-category",
          "code": "survey",
          "display": "Survey"
        } ],
        "text": "Survey"
      } ],
      "code": {
        "coding": [ {
          "system": "http://loinc.org",
          "code": "38208-5",
          "display": "Pain severity - Reported"
        } ],
        "text": "Pain severity - Reported"
      },
      "subject": {
        "reference": "Patient/757c5855-602e-4c25-8783-c22afccc1618"
      },
      "effectiveDateTime": "2025-03-03T14:00:00.000+00:00"
    },
    "request": {
      "method": "POST",
      "url": "Observation/5ca5260bb8484613a555a970"
    }
  }, {
    "fullUrl": "https://madie.cms.gov/Observation/5ca5260bb8484613a555a971",
    "resource": {
      "resourceType": "Observation",
      "id": "5ca5260bb8484613a555a971",
      "meta": {
        "profile": [ "http://hl7.org/fhir/us/qicore/StructureDefinition/qicore-observation" ]
      },
      "status": "final",
      "category": [ {
        "coding": [ {
          "system": "http://terminology.hl7.org/CodeSystem/observation-category",
          "code": "survey",
          "display": "Survey"
        } ],
        "text": "Survey"
      } ],
      "code": {
        "coding": [ {
          "system": "http://loinc.org",
          "code": "38208-5",
          "display": "Pain severity - Reported"
        } ],
        "text": "Pain severity - Reported"
      },
      "subject": {
        "reference": "Patient/757c5855-602e-4c25-8783-c22afccc1618"
      },
      "effectiveDateTime": "2025-05-22T08:00:00.000+00:00"
    },
    "request": {
      "method": "POST",
      "url": "Observation/5ca5260bb8484613a555a971"
    }
  }, {
    "fullUrl": "https://madie.cms.gov/Observation/5ca5260bb8484613a555a972",
    "resource": {
      "resourceType": "Observation",
      "id": "5ca5260bb8484613a555a972",
      "meta": {
        "profile": [ "http://hl7.org/fhir/us/qicore/StructureDefinition/qicore-observation" ]
      },
      "status": "final",
      "category": [ {
        "coding": [ {
          "system": "http://terminology.hl7.org/CodeSystem/observation-category",
          "code": "survey",
          "display": "Survey"
        } ],
        "text": "Survey"
      } ],
      "code": {
        "coding": [ {
          "system": "http://loinc.org",
          "code": "38208-5",
          "display": "Pain severity - Reported"
        } ],
        "text": "Pain severity - Reported"
      },
      "subject": {
        "reference": "Patient/757c5855-602e-4c25-8783-c22afccc1618"
      },
      "effectiveDateTime": "2025-06-01T11:30:00.000+00:00"
    },
    "request": {
      "method": "POST",
      "url": "Observation/5ca5260bb8484613a555a972"
    }
  }, {
    "fullUrl": "https://madie.cms.gov/Condition/5ca5260bb8484613a555a968",
    "resource": {
      "resourceType": "Condition",
      "id": "5ca5260bb8484613a555a968",
      "meta": {
        "profile": [ "http://hl7.org/fhir/us/qicore/StructureDefinition/qicore-condition" ]
      },
      "clinicalStatus": {
        "coding": [ {
          "system": "http://terminology.hl7.org/CodeSystem/condition-clinical",
          "code": "active",
          "display": "active",
          "userSelected": true
        } ]
      },
      "verificationStatus": {
        "coding": [ {
          "system": "http://terminology.hl7.org/CodeSystem/condition-ver-status",
          "code": "confirmed",
          "display": "Confirmed"
        } ]
      },
      "category": [ {
        "coding": [ {
          "system": "http://terminology.hl7.org/CodeSystem/condition-category",
          "code": "problem-list-item",
          "display": "Problem List Item"
        } ]
      } ],
      "code": {
        "coding": [ {
          "system": "http://hl7.org/fhir/sid/icd-10-cm",
          "code": "C00.0"
        } ]
      },
      "subject": {
        "reference": "Patient/757c5855-602e-4c25-8783-c22afccc1618"
      },
      "onsetDateTime": "2023-11-01T13:30:00.000Z"
    },
    "request": {
      "method": "POST",
      "url": "Condition/5ca5260bb8484613a555a968"
    }
  }, {
    "fullUrl": "https://madie.cms.gov/Encounter/5ca5260bb8484613a555a969",
    "resource": {
      "resourceType": "Encounter",
      "id": "5ca5260bb8484613a555a969",
      "meta": {
        "profile": [ "http://hl7.org/fhir/us/qicore/StructureDefinition/qicore-encounter" ]
      },
      "status": "finished",
      "class": {
        "system": "http://terminology.hl7.org/CodeSystem/v3-ActCode",
        "code": "AMB",
        "display": "ambulatory",
        "userSelected": true
      },
      "type": [ {
        "coding": [ {
          "system": "http://www.ama-assn.org/go/cpt",
          "code": "99202"
        } ]
      } ],
      "subject": {
        "reference": "Patient/757c5855-602e-4c25-8783-c22afccc1618"
      },
      "period": {
        "start": "2025-01-30T14:00:00.000Z",
        "end": "2025-01-30T15:00:00.000Z"
      }
    },
    "request": {
      "method": "POST",
      "url": "Encounter/5ca5260bb8484613a555a969"
    }
  }, {
    "fullUrl": "https://madie.cms.gov/Encounter/5ca5260bb8484613a555a96a",
    "resource": {
      "resourceType": "Encounter",
      "id": "5ca5260bb8484613a555a96a",
      "meta": {
        "profile": [ "http://hl7.org/fhir/us/qicore/StructureDefinition/qicore-encounter" ]
      },
      "status": "finished",
      "class": {
        "system": "http://terminology.hl7.org/CodeSystem/v3-ActCode",
        "code": "AMB",
        "display": "ambulatory",
        "userSelected": true
      },
      "type": [ {
        "coding": [ {
          "system": "http://www.ama-assn.org/go/cpt",
          "code": "99202"
        } ]
      } ],
      "subject": {
        "reference": "Patient/757c5855-602e-4c25-8783-c22afccc1618"
      },
      "period": {
        "start": "2025-03-03T13:30:00.000Z",
        "end": "2025-03-03T14:30:00.000Z"
      }
    },
    "request": {
      "method": "POST",
      "url": "Encounter/5ca5260bb8484613a555a96a"
    }
  }, {
    "fullUrl": "https://madie.cms.gov/Encounter/5ca5260bb8484613a555a96b",
    "resource": {
      "resourceType": "Encounter",
      "id": "5ca5260bb8484613a555a96b",
      "meta": {
        "profile": [ "http://hl7.org/fhir/us/qicore/StructureDefinition/qicore-encounter" ]
      },
      "status": "finished",
      "class": {
        "system": "http://terminology.hl7.org/CodeSystem/v3-ActCode",
        "code": "AMB",
        "display": "ambulatory",
        "userSelected": true
      },
      "type": [ {
        "coding": [ {
          "system": "http://www.ama-assn.org/go/cpt",
          "code": "99202"
        } ]
      } ],
      "subject": {
        "reference": "Patient/757c5855-602e-4c25-8783-c22afccc1618"
      },
      "period": {
        "start": "2025-05-30T12:45:00.000Z",
        "end": "2025-05-30T13:45:00.000Z"
      }
    },
    "request": {
      "method": "POST",
      "url": "Encounter/5ca5260bb8484613a555a96b"
    }
  }, {
    "fullUrl": "https://madie.cms.gov/Encounter/5ca5260bb8484613a555a96c",
    "resource": {
      "resourceType": "Encounter",
      "id": "5ca5260bb8484613a555a96c",
      "meta": {
        "profile": [ "http://hl7.org/fhir/us/qicore/StructureDefinition/qicore-encounter" ]
      },
      "status": "finished",
      "class": {
        "system": "http://terminology.hl7.org/CodeSystem/v3-ActCode",
        "code": "AMB",
        "display": "ambulatory",
        "userSelected": true
      },
      "type": [ {
        "coding": [ {
          "system": "http://www.ama-assn.org/go/cpt",
          "code": "99204"
        } ]
      } ],
      "subject": {
        "reference": "Patient/757c5855-602e-4c25-8783-c22afccc1618"
      },
      "period": {
        "start": "2025-07-03T10:45:00.000Z",
        "end": "2025-07-03T11:45:00.000Z"
      }
    },
    "request": {
      "method": "POST",
      "url": "Encounter/5ca5260bb8484613a555a96c"
    }
  }, {
    "fullUrl": "https://madie.cms.gov/Coverage/60099ac91c76ba64612b0670",
    "resource": {
      "resourceType": "Coverage",
      "id": "60099ac91c76ba64612b0670",
      "meta": {
        "profile": [ "http://hl7.org/fhir/us/qicore/StructureDefinition/qicore-coverage" ]
      },
      "status": "active",
      "beneficiary": {
        "reference": "Patient/757c5855-602e-4c25-8783-c22afccc1618"
      },
      "period": {
        "start": "1937-05-13T08:00:00.000Z"
      },
      "payor": [ {
        "reference": "Organization/123456"
      } ]
    },
    "request": {
      "method": "POST",
      "url": "Coverage/60099ac91c76ba64612b0670"
    }
  }, {
    "fullUrl": "https://madie.cms.gov/Procedure/5ca5260bb8484613a555a96d",
    "resource": {
      "resourceType": "Procedure",
      "id": "5ca5260bb8484613a555a96d",
      "meta": {
        "profile": [ "http://hl7.org/fhir/us/qicore/StructureDefinition/qicore-procedure" ]
      },
      "extension": [ {
        "url": "http://hl7.org/fhir/us/qicore/StructureDefinition/qicore-recorded",
        "valueDateTime": "2025-02-27T12:35:00.000Z"
      } ],
      "status": "completed",
      "code": {
        "coding": [ {
          "system": "http://www.ama-assn.org/go/cpt",
          "code": "96409"
        } ]
      },
      "subject": {
        "reference": "Patient/757c5855-602e-4c25-8783-c22afccc1618"
      },
      "performedPeriod": {
        "start": "2025-02-27T11:30:00.000Z",
        "end": "2025-02-27T11:30:00.000Z"
      }
    },
    "request": {
      "method": "POST",
      "url": "Procedure/5ca5260bb8484613a555a96d"
    }
  }, {
    "fullUrl": "https://madie.cms.gov/Procedure/5ca5260bb8484613a555a96e",
    "resource": {
      "resourceType": "Procedure",
      "id": "5ca5260bb8484613a555a96e",
      "meta": {
        "profile": [ "http://hl7.org/fhir/us/qicore/StructureDefinition/qicore-procedure" ]
      },
      "extension": [ {
        "url": "http://hl7.org/fhir/us/qicore/StructureDefinition/qicore-recorded",
        "valueDateTime": "2025-04-01T12:35:00.000Z"
      } ],
      "status": "completed",
      "code": {
        "coding": [ {
          "system": "http://www.ama-assn.org/go/cpt",
          "code": "96409"
        } ]
      },
      "subject": {
        "reference": "Patient/757c5855-602e-4c25-8783-c22afccc1618"
      },
      "performedPeriod": {
        "start": "2025-04-01T12:30:00.000Z",
        "end": "2025-04-01T12:30:00.000Z"
      }
    },
    "request": {
      "method": "POST",
      "url": "Procedure/5ca5260bb8484613a555a96e"
    }
  }, {
    "fullUrl": "https://madie.cms.gov/Procedure/5ca5260bb8484613a555a96f",
    "resource": {
      "resourceType": "Procedure",
      "id": "5ca5260bb8484613a555a96f",
      "meta": {
        "profile": [ "http://hl7.org/fhir/us/qicore/StructureDefinition/qicore-procedure" ]
      },
      "extension": [ {
        "url": "http://hl7.org/fhir/us/qicore/StructureDefinition/qicore-recorded",
        "valueDateTime": "2025-06-04T16:35:00.000Z"
      } ],
      "status": "completed",
      "code": {
        "coding": [ {
          "system": "http://www.ama-assn.org/go/cpt",
          "code": "51720"
        }, {
          "system": "http://snomed.info/sct",
          "code": "4114003"
        } ]
      },
      "subject": {
        "reference": "Patient/757c5855-602e-4c25-8783-c22afccc1618"
      },
      "performedPeriod": {
        "start": "2025-06-04T15:30:00.000Z",
        "end": "2025-06-04T15:30:00.000Z"
      }
    },
    "request": {
      "method": "POST",
      "url": "Procedure/5ca5260bb8484613a555a96f"
    }
  }, {
    "fullUrl": "https://madie.cms.gov/Organization/123456",
    "resource": {
      "resourceType": "Organization",
      "id": "123456",
      "meta": {
        "profile": [ "http://hl7.org/fhir/us/qicore/StructureDefinition/qicore-organization" ]
      },
      "identifier": [ {
        "use": "temp",
        "system": "urn:oid:2.16.840.1.113883.4.4",
        "value": "21-3259825"
      } ],
      "active": true,
      "type": [ {
        "coding": [ {
          "system": "http://terminology.hl7.org/CodeSystem/organization-type",
          "code": "pay",
          "display": "Payer"
        } ]
      } ],
      "name": "Blue Cross Blue Shield of Texas",
      "telecom": [ {
        "system": "phone",
        "value": "(+1) 972-766-6900"
      } ],
      "address": [ {
        "use": "billing",
        "type": "postal",
        "line": [ "P.O. Box 660044" ],
        "city": "Dallas",
        "state": "TX",
        "postalCode": "75266-0044",
        "country": "USA"
      } ]
    },
    "request": {
      "method": "POST",
      "url": "Organization/123456"
    }
  }, {
    "fullUrl": "https://madie.cms.gov/Practitioner/practitioner-123456",
    "resource": {
      "resourceType": "Practitioner",
      "id": "practitioner-123456",
      "meta": {
        "profile": [ "http://hl7.org/fhir/us/qicore/StructureDefinition/qicore-practitioner" ]
      },
      "identifier": [ {
        "system": "http://hl7.org/fhir/sid/us-npi",
        "value": "123456"
      } ],
      "name": [ {
        "family": "Evil",
        "prefix": [ "Dr" ]
      } ]
    },
    "request": {
      "method": "POST",
      "url": "Practitioner/practitioner-123456"
    }
  }, {
    "fullUrl": "https://madie.cms.gov/MeasureReport/c2368e6b-4d03-4080-bdd7-d4753b5f6db9",
    "resource": {
      "resourceType": "MeasureReport",
      "id": "c2368e6b-4d03-4080-bdd7-d4753b5f6db9",
      "meta": {
        "profile": [ "http://hl7.org/fhir/us/cqfmeasures/StructureDefinition/test-case-cqfm" ]
      },
      "contained": [ {
        "resourceType": "Parameters",
        "id": "75963695-c9ae-49bf-9ea7-8ec63543826c-parameters",
        "parameter": [ {
          "name": "subject",
          "valueString": "757c5855-602e-4c25-8783-c22afccc1618"
        } ]
      } ],
      "extension": [ {
        "url": "http://hl7.org/fhir/us/cqfmeasures/StructureDefinition/cqfm-inputParameters",
        "valueReference": {
          "reference": "#75963695-c9ae-49bf-9ea7-8ec63543826c-parameters"
        }
      }, {
        "url": "http://hl7.org/fhir/us/cqfmeasures/StructureDefinition/cqfm-testCaseDescription",
        "valueMarkdown": "Patient with cancer diagnosis overlaps the office visits during measurement period. Chemotherapy administered, and pain intensity assessment was performed during an office visit but no result.  \n"
      } ],
      "modifierExtension": [ {
        "url": "http://hl7.org/fhir/us/cqfmeasures/StructureDefinition/cqfm-isTestCase",
        "valueBoolean": true
      } ],
      "status": "complete",
      "type": "individual",
      "measure": "https://madie.cms.gov/Measure/OncologyPainIntensityQuantifiedFHIR",
      "period": {
        "start": "2025-01-01",
        "end": "2025-12-31"
      },
      "group": [ {
        "population": [ {
          "code": {
            "coding": [ {
              "system": "http://terminology.hl7.org/CodeSystem/measure-population",
              "code": "initial-population",
              "display": "Initial Population"
            } ]
          },
          "count": 1
        }, {
          "code": {
            "coding": [ {
              "system": "http://terminology.hl7.org/CodeSystem/measure-population",
              "code": "denominator",
              "display": "Denominator"
            } ]
          },
          "count": 1
        }, {
          "code": {
            "coding": [ {
              "system": "http://terminology.hl7.org/CodeSystem/measure-population",
              "code": "numerator",
              "display": "Numerator"
            } ]
          },
          "count": 0
        } ]
      }, {
        "population": [ {
          "code": {
            "coding": [ {
              "system": "http://terminology.hl7.org/CodeSystem/measure-population",
              "code": "initial-population",
              "display": "Initial Population"
            } ]
          },
          "count": 0
        }, {
          "code": {
            "coding": [ {
              "system": "http://terminology.hl7.org/CodeSystem/measure-population",
              "code": "denominator",
              "display": "Denominator"
            } ]
          },
          "count": 0
        }, {
          "code": {
            "coding": [ {
              "system": "http://terminology.hl7.org/CodeSystem/measure-population",
              "code": "numerator",
              "display": "Numerator"
            } ]
          },
          "count": 0
        } ]
      } ],
      "evaluatedResource": [ {
        "reference": "https://madie.cms.gov/Patient/757c5855-602e-4c25-8783-c22afccc1618"
      }, {
        "reference": "https://madie.cms.gov/Observation/5ca5260bb8484613a555a970"
      }, {
        "reference": "https://madie.cms.gov/Observation/5ca5260bb8484613a555a971"
      }, {
        "reference": "https://madie.cms.gov/Observation/5ca5260bb8484613a555a972"
      }, {
        "reference": "https://madie.cms.gov/Condition/5ca5260bb8484613a555a968"
      }, {
        "reference": "https://madie.cms.gov/Encounter/5ca5260bb8484613a555a969"
      }, {
        "reference": "https://madie.cms.gov/Encounter/5ca5260bb8484613a555a96a"
      }, {
        "reference": "https://madie.cms.gov/Encounter/5ca5260bb8484613a555a96b"
      }, {
        "reference": "https://madie.cms.gov/Encounter/5ca5260bb8484613a555a96c"
      }, {
        "reference": "https://madie.cms.gov/Coverage/60099ac91c76ba64612b0670"
      }, {
        "reference": "https://madie.cms.gov/Procedure/5ca5260bb8484613a555a96d"
      }, {
        "reference": "https://madie.cms.gov/Procedure/5ca5260bb8484613a555a96e"
      }, {
        "reference": "https://madie.cms.gov/Procedure/5ca5260bb8484613a555a96f"
      }, {
        "reference": "https://madie.cms.gov/Organization/123456"
      }, {
        "reference": "https://madie.cms.gov/Practitioner/practitioner-123456"
      } ]
    },
    "request": {
      "method": "POST",
      "url": "MeasureReport/c2368e6b-4d03-4080-bdd7-d4753b5f6db9"
    }
  } ]
}