{
  "resourceType": "Bundle",
  "id": "63ec096bccb3770120fea0ad",
  "type": "transaction",
  "entry": [ {
    "fullUrl": "https://madie.cms.gov/Patient/4eab6409-9883-44b2-a938-8dce1f10b363",
    "resource": {
      "resourceType": "Patient",
      "id": "4eab6409-9883-44b2-a938-8dce1f10b363",
      "meta": {
        "profile": [ "http://hl7.org/fhir/us/qicore/StructureDefinition/qicore-patient" ]
      },
      "text": {
        "status": "generated",
        "div": "<div xmlns=\"http://www.w3.org/1999/xhtml\"><div class=\"hapiHeaderText\">NoResult <b>SODIUMFAIL </b></div><table class=\"hapiPropertyTable\"><tbody><tr><td>Identifier</td><td>eb360e3679224871964d5b3575a59ceb3c2f6260372fb1be3ea61ac84d2937cf</td></tr><tr><td>Date of birth</td><td><span>15 June 1956</span></td></tr></tbody></table></div>"
      },
      "extension": [ {
        "url": "http://hl7.org/fhir/us/core/StructureDefinition/us-core-race",
        "extension": [ {
          "url": "ombCategory",
          "valueCoding": {
            "system": "urn:oid:2.16.840.1.113883.6.238",
            "code": "1002-5",
            "display": "American Indian or Alaska Native",
            "userSelected": true
          }
        }, {
          "url": "text",
          "valueString": "American Indian or Alaska Native"
        } ]
      }, {
        "url": "http://hl7.org/fhir/us/core/StructureDefinition/us-core-ethnicity",
        "extension": [ {
          "url": "ombCategory",
          "valueCoding": {
            "system": "urn:oid:2.16.840.1.113883.6.238",
            "code": "2186-5",
            "display": "Not Hispanic or Latino",
            "userSelected": true
          }
        }, {
          "url": "text",
          "valueString": "Not Hispanic or Latino"
        } ]
      } ],
      "identifier": [ {
        "type": {
          "coding": [ {
            "system": "http://terminology.hl7.org/CodeSystem/v2-0203",
            "code": "MR"
          } ]
        },
        "system": "https://bonnie-fhir.healthit.gov/",
        "value": "63ec096bccb3770120fea0ad"
      } ],
      "active": true,
      "name": [ {
        "use": "usual",
        "family": "PerformedOnAdmission",
        "given": [ "OxygenSatPass" ]
      } ],
      "gender": "male",
      "birthDate": "1940-07-01"
    },
    "request": {
      "method": "POST",
      "url": "Patient/4eab6409-9883-44b2-a938-8dce1f10b363"
    }
  }, {
    "fullUrl": "https://madie.cms.gov/Encounter/5f996a69b977ef0000c0305a",
    "resource": {
      "resourceType": "Encounter",
      "id": "5f996a69b977ef0000c0305a",
      "meta": {
        "profile": [ "http://hl7.org/fhir/us/qicore/StructureDefinition/qicore-encounter" ]
      },
      "status": "finished",
      "class": {
        "system": "http://terminology.hl7.org/CodeSystem/v3-ActCode",
        "code": "IMP",
        "display": "inpatient encounter",
        "userSelected": true
      },
      "type": [ {
        "coding": [ {
          "system": "http://snomed.info/sct",
          "code": "183452005"
        } ]
      } ],
      "subject": {
        "reference": "Patient/4eab6409-9883-44b2-a938-8dce1f10b363"
      },
      "period": {
        "start": "2025-07-01T12:01:00.000+00:00",
        "end": "2025-07-04T08:15:00.000+00:00"
      }
    },
    "request": {
      "method": "POST",
      "url": "Encounter/5f996a69b977ef0000c0305a"
    }
  }, {
    "fullUrl": "https://madie.cms.gov/Encounter/5f996a69b977ef0000c0305a1",
    "resource": {
      "resourceType": "Encounter",
      "id": "5f996a69b977ef0000c0305a1",
      "meta": {
        "profile": [ "http://hl7.org/fhir/us/qicore/StructureDefinition/qicore-encounter" ]
      },
      "status": "finished",
      "class": {
        "system": "http://terminology.hl7.org/CodeSystem/v3-ActCode",
        "code": "IMP",
        "display": "inpatient encounter",
        "userSelected": true
      },
      "type": [ {
        "coding": [ {
          "system": "http://snomed.info/sct",
          "code": "183452005",
          "display": "Emergency hospital admission (procedure)"
        } ]
      } ],
      "subject": {
        "reference": "Patient/4eab6409-9883-44b2-a938-8dce1f10b363"
      },
      "period": {
        "start": "2025-12-31T12:01:00.000+00:00",
        "end": "2026-01-03T10:00:00.000+00:00"
      }
    },
    "request": {
      "method": "POST",
      "url": "Encounter/5f996a69b977ef0000c0305a1"
    }
  }, {
    "fullUrl": "https://madie.cms.gov/Encounter/5f996a69b977ef0000c0305a2",
    "resource": {
      "resourceType": "Encounter",
      "id": "5f996a69b977ef0000c0305a2",
      "meta": {
        "profile": [ "http://hl7.org/fhir/us/qicore/StructureDefinition/qicore-encounter" ]
      },
      "status": "finished",
      "class": {
        "system": "http://terminology.hl7.org/CodeSystem/v3-ActCode",
        "code": "IMP",
        "display": "inpatient encounter",
        "userSelected": true
      },
      "type": [ {
        "coding": [ {
          "system": "http://snomed.info/sct",
          "code": "32485007",
          "display": "Hospital admission (procedure)"
        } ]
      } ],
      "subject": {
        "reference": "Patient/4eab6409-9883-44b2-a938-8dce1f10b363"
      },
      "period": {
        "start": "2026-01-04T08:00:00.000+00:00",
        "end": "2026-01-08T08:15:00.000+00:00"
      }
    },
    "request": {
      "method": "POST",
      "url": "Encounter/5f996a69b977ef0000c0305a2"
    }
  }, {
    "fullUrl": "https://madie.cms.gov/Observation/5b55f69ab84846558c53bb54",
    "resource": {
      "resourceType": "Observation",
      "id": "5b55f69ab84846558c53bb54",
      "meta": {
        "profile": [ "http://hl7.org/fhir/us/qicore/StructureDefinition/qicore-observation" ]
      },
      "status": "final",
      "category": [ {
        "coding": [ {
          "system": "http://terminology.hl7.org/CodeSystem/observation-category",
          "code": "vital-signs",
          "display": "Vital Signs",
          "userSelected": true
        } ]
      } ],
      "code": {
        "coding": [ {
          "system": "http://loinc.org",
          "code": "59408-5",
          "display": "Oxygen saturation in Arterial blood by Pulse oximetry"
        } ]
      },
      "subject": {
        "reference": "Patient/4eab6409-9883-44b2-a938-8dce1f10b363"
      },
      "effectiveDateTime": "2025-06-30T11:59:00.000+00:00",
      "valueQuantity": {
        "value": 98,
        "unit": "%",
        "system": "http://unitsofmeasure.org",
        "code": "%"
      }
    },
    "request": {
      "method": "POST",
      "url": "Observation/5b55f69ab84846558c53bb54"
    }
  }, {
    "fullUrl": "https://madie.cms.gov/Coverage/5f99693eb977ef0000c02d5c",
    "resource": {
      "resourceType": "Coverage",
      "id": "5f99693eb977ef0000c02d5c",
      "meta": {
        "profile": [ "http://hl7.org/fhir/us/qicore/StructureDefinition/qicore-coverage" ]
      },
      "status": "active",
      "type": {
        "coding": [ {
          "system": "https://nahdo.org/sopt",
          "version": "1.0.1",
          "code": "1",
          "display": "Medicare payer",
          "userSelected": true
        } ]
      },
      "beneficiary": {
        "reference": "Patient/4eab6409-9883-44b2-a938-8dce1f10b363"
      },
      "payor": [ {
        "reference": "Organization/123456"
      } ]
    },
    "request": {
      "method": "POST",
      "url": "Coverage/5f99693eb977ef0000c02d5c"
    }
  }, {
    "fullUrl": "https://madie.cms.gov/Practitioner/practitioner-123456",
    "resource": {
      "resourceType": "Practitioner",
      "id": "practitioner-123456",
      "meta": {
        "profile": [ "http://hl7.org/fhir/us/qicore/StructureDefinition/qicore-practitioner" ]
      },
      "identifier": [ {
        "system": "http://hl7.org/fhir/sid/us-npi",
        "value": "123456"
      } ],
      "name": [ {
        "family": "Evil",
        "prefix": [ "Dr" ]
      } ]
    },
    "request": {
      "method": "POST",
      "url": "Practitioner/practitioner-123456"
    }
  }, {
    "fullUrl": "https://madie.cms.gov/MeasureReport/5640890f-28ac-400f-9970-5d0ae44e83a6",
    "resource": {
      "resourceType": "MeasureReport",
      "id": "5640890f-28ac-400f-9970-5d0ae44e83a6",
      "meta": {
        "profile": [ "http://hl7.org/fhir/us/cqfmeasures/StructureDefinition/test-case-cqfm" ]
      },
      "contained": [ {
        "resourceType": "Parameters",
        "id": "fef49cb1-f0db-4a8f-beac-c18f2ff44b8c-parameters",
        "parameter": [ {
          "name": "subject",
          "valueString": "4eab6409-9883-44b2-a938-8dce1f10b363"
        } ]
      } ],
      "extension": [ {
        "url": "http://hl7.org/fhir/us/cqfmeasures/StructureDefinition/cqfm-inputParameters",
        "valueReference": {
          "reference": "#fef49cb1-f0db-4a8f-beac-c18f2ff44b8c-parameters"
        }
      }, {
        "url": "http://hl7.org/fhir/us/cqfmeasures/StructureDefinition/cqfm-testCaseDescription",
        "valueMarkdown": "Multiple encs, enc 7/1 O2 sats evaluated"
      } ],
      "modifierExtension": [ {
        "url": "http://hl7.org/fhir/us/cqfmeasures/StructureDefinition/cqfm-isTestCase",
        "valueBoolean": true
      } ],
      "status": "complete",
      "type": "individual",
      "measure": "https://madie.cms.gov/Measure/HybridHospitalWideMortalityFHIR",
      "period": {
        "start": "2025-01-01",
        "end": "2025-12-31"
      },
      "group": [ {
        "population": [ {
          "code": {
            "coding": [ {
              "system": "http://terminology.hl7.org/CodeSystem/measure-population",
              "code": "initial-population",
              "display": "Initial Population"
            } ]
          },
          "count": 3
        } ]
      } ],
      "evaluatedResource": [ {
        "reference": "https://madie.cms.gov/Patient/4eab6409-9883-44b2-a938-8dce1f10b363"
      }, {
        "reference": "https://madie.cms.gov/Encounter/5f996a69b977ef0000c0305a"
      }, {
        "reference": "https://madie.cms.gov/Encounter/5f996a69b977ef0000c0305a1"
      }, {
        "reference": "https://madie.cms.gov/Encounter/5f996a69b977ef0000c0305a2"
      }, {
        "reference": "https://madie.cms.gov/Observation/5b55f69ab84846558c53bb54"
      }, {
        "reference": "https://madie.cms.gov/Coverage/5f99693eb977ef0000c02d5c"
      }, {
        "reference": "https://madie.cms.gov/Practitioner/practitioner-123456"
      } ]
    },
    "request": {
      "method": "POST",
      "url": "MeasureReport/5640890f-28ac-400f-9970-5d0ae44e83a6"
    }
  } ]
}