{
  "resourceType": "Bundle",
  "id": "617b1149513b5d1ee28b757d",
  "type": "transaction",
  "entry": [ {
    "fullUrl": "https://madie.cms.gov/Patient/c453e51c-aa59-4755-b872-28b2f05f3552",
    "resource": {
      "resourceType": "Patient",
      "id": "c453e51c-aa59-4755-b872-28b2f05f3552",
      "meta": {
        "profile": [ "http://hl7.org/fhir/us/qicore/StructureDefinition/qicore-patient" ]
      },
      "extension": [ {
        "url": "http://hl7.org/fhir/us/core/StructureDefinition/us-core-race",
        "extension": [ {
          "url": "ombCategory",
          "valueCoding": {
            "system": "urn:oid:2.16.840.1.113883.6.238",
            "code": "2028-9",
            "display": "Asian",
            "userSelected": true
          }
        }, {
          "url": "text",
          "valueString": "Asian"
        } ]
      }, {
        "url": "http://hl7.org/fhir/us/core/StructureDefinition/us-core-ethnicity",
        "extension": [ {
          "url": "ombCategory",
          "valueCoding": {
            "system": "urn:oid:2.16.840.1.113883.6.238",
            "code": "2186-5",
            "display": "Not Hispanic or Latino",
            "userSelected": true
          }
        }, {
          "url": "text",
          "valueString": "Not Hispanic or Latino"
        } ]
      } ],
      "identifier": [ {
        "type": {
          "coding": [ {
            "system": "http://terminology.hl7.org/CodeSystem/v2-0203",
            "code": "MR"
          } ]
        },
        "system": "https://bonnie-fhir.healthit.gov/",
        "value": "617b1149513b5d1ee28b757d"
      } ],
      "name": [ {
        "family": "DenExcl4Pass",
        "given": [ "DxStartsBeforeEndsAfterED" ]
      } ],
      "gender": "male",
      "birthDate": "1984-12-02"
    },
    "request": {
      "method": "POST",
      "url": "Patient/c453e51c-aa59-4755-b872-28b2f05f3552"
    }
  }, {
    "fullUrl": "https://madie.cms.gov/Encounter/emergency-department-visit-330a",
    "resource": {
      "resourceType": "Encounter",
      "id": "emergency-department-visit-330a",
      "meta": {
        "profile": [ "http://hl7.org/fhir/us/qicore/StructureDefinition/qicore-encounter" ]
      },
      "status": "finished",
      "class": {
        "system": "http://terminology.hl7.org/CodeSystem/v3-ActCode",
        "code": "EMER",
        "display": "emergency",
        "userSelected": true
      },
      "type": [ {
        "coding": [ {
          "system": "http://snomed.info/sct",
          "version": "2020-09",
          "code": "4525004",
          "display": "Emergency department patient visit (procedure)",
          "userSelected": true
        } ]
      } ],
      "subject": {
        "reference": "Patient/c453e51c-aa59-4755-b872-28b2f05f3552"
      },
      "period": {
        "start": "2025-10-09T08:05:00.000+00:00",
        "end": "2025-10-10T07:15:00.000+00:00"
      }
    },
    "request": {
      "method": "POST",
      "url": "Encounter/emergency-department-visit-330a"
    }
  }, {
    "fullUrl": "https://madie.cms.gov/Condition/stemi-330b",
    "resource": {
      "resourceType": "Condition",
      "id": "stemi-330b",
      "meta": {
        "profile": [ "http://hl7.org/fhir/us/qicore/StructureDefinition/qicore-condition" ]
      },
      "clinicalStatus": {
        "coding": [ {
          "system": "http://terminology.hl7.org/CodeSystem/condition-clinical",
          "code": "active",
          "display": "active",
          "userSelected": true
        } ]
      },
      "category": [ {
        "coding": [ {
          "system": "http://terminology.hl7.org/CodeSystem/condition-category",
          "code": "encounter-diagnosis",
          "display": "Encounter Diagnosis",
          "userSelected": true
        } ]
      } ],
      "code": {
        "coding": [ {
          "system": "http://snomed.info/sct",
          "version": "2020-09",
          "code": "401303003",
          "display": "Acute ST segment elevation myocardial infarction (disorder)",
          "userSelected": true
        } ]
      },
      "subject": {
        "reference": "Patient/c453e51c-aa59-4755-b872-28b2f05f3552"
      },
      "onsetDateTime": "2025-10-09T08:30:00.000+00:00"
    },
    "request": {
      "method": "POST",
      "url": "Condition/stemi-330b"
    }
  }, {
    "fullUrl": "https://madie.cms.gov/Condition/Pregnancy-757c",
    "resource": {
      "resourceType": "Condition",
      "id": "Pregnancy-757c",
      "meta": {
        "profile": [ "http://hl7.org/fhir/us/qicore/StructureDefinition/qicore-condition" ]
      },
      "clinicalStatus": {
        "coding": [ {
          "system": "http://terminology.hl7.org/CodeSystem/condition-clinical",
          "version": "4.0.1",
          "code": "inactive",
          "display": "inactive",
          "userSelected": true
        } ]
      },
      "category": [ {
        "coding": [ {
          "system": "http://terminology.hl7.org/CodeSystem/condition-category",
          "code": "encounter-diagnosis",
          "display": "Encounter Diagnosis",
          "userSelected": true
        } ]
      } ],
      "code": {
        "coding": [ {
          "system": "http://snomed.info/sct",
          "version": "2020-09",
          "code": "255409004",
          "display": "Pregnant woman (person)",
          "userSelected": true
        } ]
      },
      "subject": {
        "reference": "Patient/c453e51c-aa59-4755-b872-28b2f05f3552"
      },
      "onsetDateTime": "2023-10-01T08:00:00.000+00:00",
      "abatementDateTime": "2025-10-31T08:15:00.000+00:00"
    },
    "request": {
      "method": "POST",
      "url": "Condition/Pregnancy-757c"
    }
  }, {
    "fullUrl": "https://madie.cms.gov/MeasureReport/87b4ee41-6fc9-4b9f-8546-9244f5aa5460",
    "resource": {
      "resourceType": "MeasureReport",
      "id": "87b4ee41-6fc9-4b9f-8546-9244f5aa5460",
      "meta": {
        "profile": [ "http://hl7.org/fhir/us/cqfmeasures/StructureDefinition/test-case-cqfm" ]
      },
      "contained": [ {
        "resourceType": "Parameters",
        "id": "71b47829-8fe6-460c-b001-8f5085b5438f-parameters",
        "parameter": [ {
          "name": "subject",
          "valueString": "c453e51c-aa59-4755-b872-28b2f05f3552"
        } ]
      } ],
      "extension": [ {
        "url": "http://hl7.org/fhir/us/cqfmeasures/StructureDefinition/cqfm-inputParameters",
        "valueReference": {
          "reference": "#71b47829-8fe6-460c-b001-8f5085b5438f-parameters"
        }
      }, {
        "url": "http://hl7.org/fhir/us/cqfmeasures/StructureDefinition/cqfm-testCaseDescription",
        "valueMarkdown": "pregnancy starts before and ends after ED visit"
      } ],
      "modifierExtension": [ {
        "url": "http://hl7.org/fhir/us/cqfmeasures/StructureDefinition/cqfm-isTestCase",
        "valueBoolean": true
      } ],
      "status": "complete",
      "type": "individual",
      "measure": "https://madie.cms.gov/Measure/AppropriateTreatmentforSTEMIFHIR",
      "period": {
        "start": "2025-01-01",
        "end": "2025-12-31"
      },
      "group": [ {
        "population": [ {
          "code": {
            "coding": [ {
              "system": "http://terminology.hl7.org/CodeSystem/measure-population",
              "code": "initial-population",
              "display": "Initial Population"
            } ]
          },
          "count": 1
        }, {
          "code": {
            "coding": [ {
              "system": "http://terminology.hl7.org/CodeSystem/measure-population",
              "code": "denominator",
              "display": "Denominator"
            } ]
          },
          "count": 1
        }, {
          "code": {
            "coding": [ {
              "system": "http://terminology.hl7.org/CodeSystem/measure-population",
              "code": "denominator-exclusion",
              "display": "Denominator Exclusion"
            } ]
          },
          "count": 1
        }, {
          "code": {
            "coding": [ {
              "system": "http://terminology.hl7.org/CodeSystem/measure-population",
              "code": "numerator",
              "display": "Numerator"
            } ]
          },
          "count": 0
        }, {
          "code": {
            "coding": [ {
              "system": "http://terminology.hl7.org/CodeSystem/measure-population",
              "code": "denominator-exception",
              "display": "Denominator Exception"
            } ]
          },
          "count": 0
        } ]
      } ],
      "evaluatedResource": [ {
        "reference": "Patient/c453e51c-aa59-4755-b872-28b2f05f3552"
      }, {
        "reference": "Encounter/emergency-department-visit-330a"
      }, {
        "reference": "Condition/stemi-330b"
      }, {
        "reference": "Condition/Pregnancy-757c"
      } ]
    },
    "request": {
      "method": "POST",
      "url": "MeasureReport/87b4ee41-6fc9-4b9f-8546-9244f5aa5460"
    }
  } ]
}