{
  "resourceType": "Bundle",
  "id": "62c880ec0111a60120dc21fd",
  "type": "transaction",
  "entry": [ {
    "fullUrl": "https://madie.cms.gov/Patient/1f368295-58dc-4c0e-b23f-704d867ed0ef",
    "resource": {
      "resourceType": "Patient",
      "id": "1f368295-58dc-4c0e-b23f-704d867ed0ef",
      "meta": {
        "profile": [ "http://hl7.org/fhir/us/qicore/StructureDefinition/qicore-patient" ]
      },
      "text": {
        "status": "generated",
        "div": "<div xmlns=\"http://www.w3.org/1999/xhtml\"><div class=\"hapiHeaderText\">BothChemoSameDayofEncounter<b>IPPPASSPOP1</b></div><table class=\"hapiPropertyTable\"><tbody><tr><td>Identifier</td><td>60e349100edd633ca8f54b90369c7513</td></tr><tr><td>Date of birth</td><td><span>13 May 1937</span></td></tr></tbody></table></div>"
      },
      "extension": [ {
        "url": "http://hl7.org/fhir/us/core/StructureDefinition/us-core-race",
        "extension": [ {
          "url": "ombCategory",
          "valueCoding": {
            "system": "urn:oid:2.16.840.1.113883.6.238",
            "code": "1002-5",
            "display": "American Indian or Alaska Native",
            "userSelected": true
          }
        }, {
          "url": "text",
          "valueString": "American Indian or Alaska Native"
        } ]
      }, {
        "url": "http://hl7.org/fhir/us/core/StructureDefinition/us-core-ethnicity",
        "extension": [ {
          "url": "ombCategory",
          "valueCoding": {
            "system": "urn:oid:2.16.840.1.113883.6.238",
            "code": "2135-2",
            "display": "Hispanic or Latino",
            "userSelected": true
          }
        }, {
          "url": "text",
          "valueString": "Hispanic or Latino"
        } ]
      } ],
      "identifier": [ {
        "type": {
          "coding": [ {
            "system": "http://terminology.hl7.org/CodeSystem/v2-0203",
            "code": "MR"
          } ]
        },
        "system": "https://bonnie-fhir.healthit.gov/",
        "value": "62c880ec0111a60120dc21fd"
      } ],
      "active": true,
      "name": [ {
        "use": "usual",
        "family": "IPPFailPop1",
        "given": [ "BothChemoSameDayofEncounter" ]
      } ],
      "gender": "female",
      "birthDate": "1937-05-13"
    },
    "request": {
      "method": "POST",
      "url": "Patient/1f368295-58dc-4c0e-b23f-704d867ed0ef"
    }
  }, {
    "fullUrl": "https://madie.cms.gov/Condition/5ca52605b8484613a555a8fc",
    "resource": {
      "resourceType": "Condition",
      "id": "5ca52605b8484613a555a8fc",
      "meta": {
        "profile": [ "http://hl7.org/fhir/us/qicore/StructureDefinition/qicore-condition" ]
      },
      "clinicalStatus": {
        "coding": [ {
          "system": "http://terminology.hl7.org/CodeSystem/condition-clinical",
          "code": "active",
          "display": "active",
          "userSelected": true
        } ]
      },
      "category": [ {
        "coding": [ {
          "system": "http://terminology.hl7.org/CodeSystem/condition-category",
          "code": "encounter-diagnosis",
          "display": "Encounter Diagnosis"
        }, {
          "system": "http://terminology.hl7.org/CodeSystem/condition-category",
          "code": "problem-list-item",
          "display": "Problem List Item"
        } ]
      } ],
      "code": {
        "coding": [ {
          "system": "http://hl7.org/fhir/sid/icd-10-cm",
          "code": "C00.0"
        } ]
      },
      "subject": {
        "reference": "Patient/1f368295-58dc-4c0e-b23f-704d867ed0ef"
      },
      "onsetDateTime": "2023-05-01T13:30:00.000Z"
    },
    "request": {
      "method": "POST",
      "url": "Condition/5ca52605b8484613a555a8fc"
    }
  }, {
    "fullUrl": "https://madie.cms.gov/Encounter/5ca52605b8484613a555a8fd",
    "resource": {
      "resourceType": "Encounter",
      "id": "5ca52605b8484613a555a8fd",
      "meta": {
        "profile": [ "http://hl7.org/fhir/us/qicore/StructureDefinition/qicore-encounter" ]
      },
      "status": "finished",
      "class": {
        "system": "http://terminology.hl7.org/CodeSystem/v3-ActCode",
        "code": "AMB",
        "display": "ambulatory",
        "userSelected": true
      },
      "type": [ {
        "coding": [ {
          "system": "http://www.ama-assn.org/go/cpt",
          "code": "99201"
        } ]
      } ],
      "subject": {
        "reference": "Patient/1f368295-58dc-4c0e-b23f-704d867ed0ef"
      },
      "period": {
        "start": "2025-01-01T14:00:00.000Z",
        "end": "2025-01-01T15:00:00.000Z"
      }
    },
    "request": {
      "method": "POST",
      "url": "Encounter/5ca52605b8484613a555a8fd"
    }
  }, {
    "fullUrl": "https://madie.cms.gov/Coverage/60099acc1c76ba64612b06b2",
    "resource": {
      "resourceType": "Coverage",
      "id": "60099acc1c76ba64612b06b2",
      "meta": {
        "profile": [ "http://hl7.org/fhir/us/qicore/StructureDefinition/qicore-coverage" ]
      },
      "status": "active",
      "beneficiary": {
        "reference": "Patient/1f368295-58dc-4c0e-b23f-704d867ed0ef"
      },
      "period": {
        "start": "1937-05-13T08:00:00.000Z"
      },
      "payor": [ {
        "reference": "Organization/123456"
      } ]
    },
    "request": {
      "method": "POST",
      "url": "Coverage/60099acc1c76ba64612b06b2"
    }
  }, {
    "fullUrl": "https://madie.cms.gov/Procedure/5fc8fa5fdb9b370000f5acca",
    "resource": {
      "resourceType": "Procedure",
      "id": "5fc8fa5fdb9b370000f5acca",
      "meta": {
        "profile": [ "http://hl7.org/fhir/us/qicore/StructureDefinition/qicore-procedure" ]
      },
      "extension": [ {
        "url": "http://hl7.org/fhir/us/qicore/StructureDefinition/qicore-recorded",
        "valueDateTime": "2025-01-01T12:35:00.000Z"
      } ],
      "status": "completed",
      "code": {
        "coding": [ {
          "system": "http://snomed.info/sct",
          "code": "169396008"
        } ]
      },
      "subject": {
        "reference": "Patient/1f368295-58dc-4c0e-b23f-704d867ed0ef"
      },
      "performedPeriod": {
        "start": "2025-01-01T08:00:00.000Z",
        "end": "2025-01-01T08:15:00.000Z"
      }
    },
    "request": {
      "method": "POST",
      "url": "Procedure/5fc8fa5fdb9b370000f5acca"
    }
  }, {
    "fullUrl": "https://madie.cms.gov/Procedure/5fc8fb58db9b370000f5ae4c",
    "resource": {
      "resourceType": "Procedure",
      "id": "5fc8fb58db9b370000f5ae4c",
      "meta": {
        "profile": [ "http://hl7.org/fhir/us/qicore/StructureDefinition/qicore-procedure" ]
      },
      "extension": [ {
        "url": "http://hl7.org/fhir/us/qicore/StructureDefinition/qicore-recorded",
        "valueDateTime": "2025-01-01T12:35:00.000Z"
      } ],
      "status": "completed",
      "code": {
        "coding": [ {
          "system": "http://snomed.info/sct",
          "code": "169396008"
        } ]
      },
      "subject": {
        "reference": "Patient/1f368295-58dc-4c0e-b23f-704d867ed0ef"
      },
      "performedPeriod": {
        "start": "2025-01-01T08:00:00.000Z",
        "end": "2025-01-01T08:15:00.000Z"
      }
    },
    "request": {
      "method": "POST",
      "url": "Procedure/5fc8fb58db9b370000f5ae4c"
    }
  }, {
    "fullUrl": "https://madie.cms.gov/Organization/123456",
    "resource": {
      "resourceType": "Organization",
      "id": "123456",
      "meta": {
        "profile": [ "http://hl7.org/fhir/us/qicore/StructureDefinition/qicore-organization" ]
      },
      "identifier": [ {
        "use": "temp",
        "system": "urn:oid:2.16.840.1.113883.4.4",
        "value": "21-3259825"
      } ],
      "active": true,
      "type": [ {
        "coding": [ {
          "system": "http://terminology.hl7.org/CodeSystem/organization-type",
          "code": "pay",
          "display": "Payer"
        } ]
      } ],
      "name": "Blue Cross Blue Shield of Texas",
      "telecom": [ {
        "system": "phone",
        "value": "(+1) 972-766-6900"
      } ],
      "address": [ {
        "use": "billing",
        "type": "postal",
        "line": [ "P.O. Box 660044" ],
        "city": "Dallas",
        "state": "TX",
        "postalCode": "75266-0044",
        "country": "USA"
      } ]
    },
    "request": {
      "method": "POST",
      "url": "Organization/123456"
    }
  }, {
    "fullUrl": "https://madie.cms.gov/MeasureReport/6cd7857d-ccad-43df-830d-145a0d1d6260",
    "resource": {
      "resourceType": "MeasureReport",
      "id": "6cd7857d-ccad-43df-830d-145a0d1d6260",
      "meta": {
        "profile": [ "http://hl7.org/fhir/us/cqfmeasures/StructureDefinition/test-case-cqfm" ]
      },
      "contained": [ {
        "resourceType": "Parameters",
        "id": "614742f4-54cb-46a5-8709-9ab1efa7bd76-parameters",
        "parameter": [ {
          "name": "subject",
          "valueString": "1f368295-58dc-4c0e-b23f-704d867ed0ef"
        } ]
      } ],
      "extension": [ {
        "url": "http://hl7.org/fhir/us/cqfmeasures/StructureDefinition/cqfm-inputParameters",
        "valueReference": {
          "reference": "#614742f4-54cb-46a5-8709-9ab1efa7bd76-parameters"
        }
      }, {
        "url": "http://hl7.org/fhir/us/cqfmeasures/StructureDefinition/cqfm-testCaseDescription",
        "valueMarkdown": "Patient with cancer diagnosis that overlaps the office visit during measurement period.  Two chemotherapy administered on the same day of office visit. "
      } ],
      "modifierExtension": [ {
        "url": "http://hl7.org/fhir/us/cqfmeasures/StructureDefinition/cqfm-isTestCase",
        "valueBoolean": true
      } ],
      "status": "complete",
      "type": "individual",
      "measure": "https://madie.cms.gov/Measure/OncologyPainIntensityQuantifiedFHIR",
      "period": {
        "start": "2025-01-01",
        "end": "2025-12-31"
      },
      "group": [ {
        "population": [ {
          "code": {
            "coding": [ {
              "system": "http://terminology.hl7.org/CodeSystem/measure-population",
              "code": "initial-population",
              "display": "Initial Population"
            } ]
          },
          "count": 0
        }, {
          "code": {
            "coding": [ {
              "system": "http://terminology.hl7.org/CodeSystem/measure-population",
              "code": "denominator",
              "display": "Denominator"
            } ]
          },
          "count": 0
        }, {
          "code": {
            "coding": [ {
              "system": "http://terminology.hl7.org/CodeSystem/measure-population",
              "code": "numerator",
              "display": "Numerator"
            } ]
          },
          "count": 0
        } ]
      }, {
        "population": [ {
          "code": {
            "coding": [ {
              "system": "http://terminology.hl7.org/CodeSystem/measure-population",
              "code": "initial-population",
              "display": "Initial Population"
            } ]
          },
          "count": 0
        }, {
          "code": {
            "coding": [ {
              "system": "http://terminology.hl7.org/CodeSystem/measure-population",
              "code": "denominator",
              "display": "Denominator"
            } ]
          },
          "count": 0
        }, {
          "code": {
            "coding": [ {
              "system": "http://terminology.hl7.org/CodeSystem/measure-population",
              "code": "numerator",
              "display": "Numerator"
            } ]
          },
          "count": 0
        } ]
      } ],
      "evaluatedResource": [ {
        "reference": "https://madie.cms.gov/Patient/1f368295-58dc-4c0e-b23f-704d867ed0ef"
      }, {
        "reference": "https://madie.cms.gov/Condition/5ca52605b8484613a555a8fc"
      }, {
        "reference": "https://madie.cms.gov/Encounter/5ca52605b8484613a555a8fd"
      }, {
        "reference": "https://madie.cms.gov/Coverage/60099acc1c76ba64612b06b2"
      }, {
        "reference": "https://madie.cms.gov/Procedure/5fc8fa5fdb9b370000f5acca"
      }, {
        "reference": "https://madie.cms.gov/Procedure/5fc8fb58db9b370000f5ae4c"
      }, {
        "reference": "https://madie.cms.gov/Organization/123456"
      } ]
    },
    "request": {
      "method": "POST",
      "url": "MeasureReport/6cd7857d-ccad-43df-830d-145a0d1d6260"
    }
  } ]
}