{
  "resourceType": "Bundle",
  "id": "4613103634163131",
  "type": "transaction",
  "entry": [ {
    "fullUrl": "https://madie.cms.gov/Patient/f0c276f8-af7b-4c0b-b413-6b9730bcabbb",
    "resource": {
      "resourceType": "Patient",
      "id": "f0c276f8-af7b-4c0b-b413-6b9730bcabbb",
      "meta": {
        "profile": [ "http://hl7.org/fhir/us/qicore/StructureDefinition/qicore-patient" ]
      },
      "extension": [ {
        "url": "http://hl7.org/fhir/us/core/StructureDefinition/us-core-race",
        "extension": [ {
          "url": "ombCategory",
          "valueCoding": {
            "system": "urn:oid:2.16.840.1.113883.6.238",
            "code": "2076-8",
            "display": "Native Hawaiian or Other Pacific Islander"
          }
        }, {
          "url": "text",
          "valueString": "Native Hawaiian or Other Pacific Islander"
        } ]
      }, {
        "url": "http://hl7.org/fhir/us/core/StructureDefinition/us-core-ethnicity",
        "extension": [ {
          "url": "ombCategory",
          "valueCoding": {
            "system": "urn:oid:2.16.840.1.113883.6.238",
            "code": "2186-5",
            "display": "Not Hispanic or Latino"
          }
        }, {
          "url": "text",
          "valueString": "Not Hispanic or Latino"
        } ]
      } ],
      "identifier": [ {
        "type": {
          "coding": [ {
            "system": "http://terminology.hl7.org/CodeSystem/v2-0203",
            "code": "MR"
          } ]
        },
        "system": "https://bonnie-fhir.healthit.gov/",
        "value": "7843135463165262"
      } ],
      "name": [ {
        "family": "DENEXPass",
        "given": [ "MixedHistology2MonthsAfterStaging" ]
      } ],
      "gender": "female",
      "birthDate": "1946-11-03"
    },
    "request": {
      "method": "POST",
      "url": "Patient/f0c276f8-af7b-4c0b-b413-6b9730bcabbb"
    }
  }, {
    "fullUrl": "https://madie.cms.gov/Encounter/6431313497641",
    "resource": {
      "resourceType": "Encounter",
      "id": "6431313497641",
      "meta": {
        "profile": [ "http://hl7.org/fhir/us/qicore/StructureDefinition/qicore-encounter" ]
      },
      "status": "finished",
      "class": {
        "system": "http://terminology.hl7.org/CodeSystem/v3-ActCode",
        "code": "AMB",
        "display": "ambulatory"
      },
      "type": [ {
        "coding": [ {
          "system": "http://snomed.info/sct",
          "version": "http://snomed.info/sct/731000124108/version/20240301",
          "code": "185463005",
          "display": "Visit out of hours (procedure)"
        } ]
      } ],
      "subject": {
        "reference": "Patient/f0c276f8-af7b-4c0b-b413-6b9730bcabbb"
      },
      "period": {
        "start": "2025-04-06T08:00:00.000+00:00",
        "end": "2025-04-06T09:15:00.000+00:00"
      }
    },
    "request": {
      "method": "POST",
      "url": "Encounter/6431313497641"
    }
  }, {
    "fullUrl": "https://madie.cms.gov/Condition/416135131310",
    "resource": {
      "resourceType": "Condition",
      "id": "416135131310",
      "meta": {
        "profile": [ "http://hl7.org/fhir/us/qicore/StructureDefinition/qicore-condition" ]
      },
      "clinicalStatus": {
        "coding": [ {
          "system": "http://terminology.hl7.org/CodeSystem/condition-clinical",
          "code": "active",
          "display": "Active"
        } ]
      },
      "verificationStatus": {
        "coding": [ {
          "system": "http://terminology.hl7.org/CodeSystem/condition-ver-status",
          "code": "confirmed",
          "display": "Confirmed"
        } ]
      },
      "category": [ {
        "coding": [ {
          "system": "http://terminology.hl7.org/CodeSystem/condition-category",
          "code": "problem-list-item",
          "display": "Problem List Item"
        } ]
      } ],
      "code": {
        "coding": [ {
          "system": "http://hl7.org/fhir/sid/icd-10-cm",
          "version": "2024",
          "code": "C67.1",
          "display": "Malignant neoplasm of dome of bladder"
        } ]
      },
      "subject": {
        "reference": "Patient/f0c276f8-af7b-4c0b-b413-6b9730bcabbb"
      },
      "onsetPeriod": {
        "start": "2025-04-06T08:00:00.000+00:00"
      }
    },
    "request": {
      "method": "POST",
      "url": "Condition/416135131310"
    }
  }, {
    "fullUrl": "https://madie.cms.gov/Condition/2153211313",
    "resource": {
      "resourceType": "Condition",
      "id": "2153211313",
      "meta": {
        "profile": [ "http://hl7.org/fhir/us/qicore/StructureDefinition/qicore-condition" ]
      },
      "clinicalStatus": {
        "coding": [ {
          "system": "http://terminology.hl7.org/CodeSystem/condition-clinical",
          "code": "active",
          "display": "Active"
        } ]
      },
      "verificationStatus": {
        "coding": [ {
          "system": "http://terminology.hl7.org/CodeSystem/condition-ver-status",
          "code": "confirmed",
          "display": "Confirmed"
        } ]
      },
      "category": [ {
        "coding": [ {
          "system": "http://terminology.hl7.org/CodeSystem/condition-category",
          "code": "problem-list-item",
          "display": "Problem List Item"
        } ]
      } ],
      "code": {
        "coding": [ {
          "system": "http://snomed.info/sct",
          "version": "http://snomed.info/sct/731000124108/version/20240301",
          "code": "278046008",
          "display": "Mixed histology urothelial cell carcinoma for Urology Care"
        } ]
      },
      "subject": {
        "reference": "Patient/f0c276f8-af7b-4c0b-b413-6b9730bcabbb"
      },
      "onsetPeriod": {
        "start": "2025-06-06T08:00:00.000+00:00"
      }
    },
    "request": {
      "method": "POST",
      "url": "Condition/2153211313"
    }
  }, {
    "fullUrl": "https://madie.cms.gov/Procedure/64131313541",
    "resource": {
      "resourceType": "Procedure",
      "id": "64131313541",
      "meta": {
        "profile": [ "http://hl7.org/fhir/us/qicore/StructureDefinition/qicore-procedure" ]
      },
      "extension": [ {
        "url": "http://hl7.org/fhir/us/qicore/StructureDefinition/qicore-recorded",
        "valueDateTime": "2025-04-06T08:00:00.000+00:00"
      } ],
      "status": "completed",
      "code": {
        "coding": [ {
          "system": "http://snomed.info/sct",
          "version": "http://snomed.info/sct/731000124108/version/20240301",
          "code": "254292007",
          "display": "Tumor staging"
        } ]
      },
      "subject": {
        "reference": "Patient/f0c276f8-af7b-4c0b-b413-6b9730bcabbb"
      },
      "performedDateTime": "2025-04-06T08:00:00.000+00:00"
    },
    "request": {
      "method": "POST",
      "url": "Procedure/64131313541"
    }
  }, {
    "fullUrl": "https://madie.cms.gov/Observation/95452545",
    "resource": {
      "resourceType": "Observation",
      "id": "95452545",
      "meta": {
        "profile": [ "http://hl7.org/fhir/us/qicore/StructureDefinition/qicore-observation" ]
      },
      "partOf": [ {
        "reference": "Procedure/64131313541"
      } ],
      "status": "final",
      "category": [ {
        "coding": [ {
          "system": "http://terminology.hl7.org/CodeSystem/observation-category",
          "code": "procedure",
          "display": "Procedure"
        } ]
      } ],
      "code": {
        "coding": [ {
          "system": "http://loinc.org",
          "version": "2.76",
          "code": "21902-2",
          "display": "Stage group.pathology Cancer"
        } ]
      },
      "subject": {
        "reference": "Patient/f0c276f8-af7b-4c0b-b413-6b9730bcabbb"
      },
      "effectiveDateTime": "2025-04-06T08:00:00.000+00:00",
      "issued": "2025-04-06T08:10:00.000+00:00",
      "valueCodeableConcept": {
        "coding": [ {
          "system": "http://snomed.info/sct",
          "version": "http://snomed.info/sct/731000124108/version/20240301",
          "code": "1228883000",
          "display": "American Joint Committee on Cancer cTa (qualifier value)"
        } ]
      }
    },
    "request": {
      "method": "POST",
      "url": "Observation/95452545"
    }
  }, {
    "fullUrl": "https://madie.cms.gov/MeasureReport/fd2e8c17-58b8-43f3-96c3-7473f3cafd11",
    "resource": {
      "resourceType": "MeasureReport",
      "id": "fd2e8c17-58b8-43f3-96c3-7473f3cafd11",
      "meta": {
        "profile": [ "http://hl7.org/fhir/us/cqfmeasures/StructureDefinition/test-case-cqfm" ]
      },
      "contained": [ {
        "resourceType": "Parameters",
        "id": "991dbdaf-86d8-404a-ad51-bd14367e9868-parameters",
        "parameter": [ {
          "name": "subject",
          "valueString": "f0c276f8-af7b-4c0b-b413-6b9730bcabbb"
        } ]
      } ],
      "extension": [ {
        "url": "http://hl7.org/fhir/us/cqfmeasures/StructureDefinition/cqfm-inputParameters",
        "valueReference": {
          "reference": "#991dbdaf-86d8-404a-ad51-bd14367e9868-parameters"
        }
      }, {
        "url": "http://hl7.org/fhir/us/cqfmeasures/StructureDefinition/cqfm-testCaseDescription",
        "valueMarkdown": "Patient with OV in MP. Bladder cancer diagnosis and cancer staging in MP.  Pt has Mixed histology 2 mo after staging and should not be excluded. "
      } ],
      "modifierExtension": [ {
        "url": "http://hl7.org/fhir/us/cqfmeasures/StructureDefinition/cqfm-isTestCase",
        "valueBoolean": true
      } ],
      "status": "complete",
      "type": "individual",
      "measure": "https://madie.cms.gov/Measure/IntravesicalBacillusCalmetteGuerinForBladderCancerFHIR",
      "period": {
        "start": "2025-01-01",
        "end": "2025-12-31"
      },
      "group": [ {
        "population": [ {
          "code": {
            "coding": [ {
              "system": "http://terminology.hl7.org/CodeSystem/measure-population",
              "code": "initial-population",
              "display": "Initial Population"
            } ]
          },
          "count": 1
        }, {
          "code": {
            "coding": [ {
              "system": "http://terminology.hl7.org/CodeSystem/measure-population",
              "code": "denominator",
              "display": "Denominator"
            } ]
          },
          "count": 1
        }, {
          "code": {
            "coding": [ {
              "system": "http://terminology.hl7.org/CodeSystem/measure-population",
              "code": "denominator-exclusion",
              "display": "Denominator Exclusion"
            } ]
          },
          "count": 0
        }, {
          "code": {
            "coding": [ {
              "system": "http://terminology.hl7.org/CodeSystem/measure-population",
              "code": "numerator",
              "display": "Numerator"
            } ]
          },
          "count": 0
        }, {
          "code": {
            "coding": [ {
              "system": "http://terminology.hl7.org/CodeSystem/measure-population",
              "code": "denominator-exception",
              "display": "Denominator Exception"
            } ]
          },
          "count": 0
        } ]
      } ],
      "evaluatedResource": [ {
        "reference": "https://madie.cms.gov/Patient/f0c276f8-af7b-4c0b-b413-6b9730bcabbb"
      }, {
        "reference": "https://madie.cms.gov/Encounter/6431313497641"
      }, {
        "reference": "https://madie.cms.gov/Condition/416135131310"
      }, {
        "reference": "https://madie.cms.gov/Condition/2153211313"
      }, {
        "reference": "https://madie.cms.gov/Procedure/64131313541"
      }, {
        "reference": "https://madie.cms.gov/Observation/95452545"
      } ]
    },
    "request": {
      "method": "POST",
      "url": "MeasureReport/fd2e8c17-58b8-43f3-96c3-7473f3cafd11"
    }
  } ]
}