{"resourceType":"Bundle","id":"tests-86d68293-66ae-425b-bc4a-9ce429f4621e-bundle","type":"transaction","entry":[{"fullUrl":"https://madie.cms.gov/Patient/8ad235bf-ba89-4de2-a772-ff6cfbe0394d","resource":{"resourceType":"Patient","id":"8ad235bf-ba89-4de2-a772-ff6cfbe0394d","meta":{"profile":["http://hl7.org/fhir/us/qicore/StructureDefinition/qicore-patient"]},"text":{"status":"generated","div":"<div xmlns=\"http://www.w3.org/1999/xhtml\"><div class=\"hapiHeaderText\">CMPdurEnc_NoEDNoObsBFEnc_DateTime <b>DENEXPASS </b></div><table class=\"hapiPropertyTable\"><tbody><tr><td>Identifier</td><td>669cd2691aaab3d70b8b307e64426a43</td></tr><tr><td>Date of birth</td><td><span>18 September 1985</span></td></tr></tbody></table></div>"},"extension":[{"url":"http://hl7.org/fhir/us/core/StructureDefinition/us-core-race","extension":[{"url":"ombCategory","valueCoding":{"system":"urn:oid:2.16.840.1.113883.6.238","code":"1002-5","display":"American Indian or Alaska Native","userSelected":true}},{"url":"text","valueString":"American Indian or Alaska Native"}]},{"url":"http://hl7.org/fhir/us/core/StructureDefinition/us-core-ethnicity","extension":[{"url":"ombCategory","valueCoding":{"system":"urn:oid:2.16.840.1.113883.6.238","code":"2135-2","display":"Hispanic or Latino","userSelected":true}},{"url":"text","valueString":"Hispanic or Latino"}]}],"identifier":[{"type":{"coding":[{"system":"http://terminology.hl7.org/CodeSystem/v2-0203","code":"MR"}]},"system":"https://bonnie-fhir.healthit.gov/","value":"633c9d040968f8012250fcb4"}],"active":true,"name":[{"use":"usual","family":"DENEXPass","given":["CMPdurEnc_NoEDNoObsBFEnc_DateTime"]}],"gender":"female","birthDate":"1985-09-18"},"request":{"method":"PUT","url":"Patient/8ad235bf-ba89-4de2-a772-ff6cfbe0394d"}},{"fullUrl":"https://madie.cms.gov/Condition/457dcbf1-edb7-4124-888c-627a27752691","resource":{"resourceType":"Condition","id":"457dcbf1-edb7-4124-888c-627a27752691","meta":{"profile":["http://hl7.org/fhir/us/qicore/StructureDefinition/qicore-condition"]},"clinicalStatus":{"coding":[{"system":"http://terminology.hl7.org/CodeSystem/condition-clinical","code":"inactive"}]},"verificationStatus":{"coding":[{"system":"http://terminology.hl7.org/CodeSystem/condition-ver-status","code":"confirmed"}]},"category":[{"coding":[{"system":"http://terminology.hl7.org/CodeSystem/condition-category","code":"encounter-diagnosis","display":"Encounter Diagnosis"}]}],"code":{"coding":[{"system":"http://hl7.org/fhir/sid/icd-10-cm","code":"I48.20"},{"system":"http://hl7.org/fhir/sid/icd-10-cm","code":"I48.0"},{"system":"http://snomed.info/sct","code":"5370000"}]},"subject":{"reference":"Patient/8ad235bf-ba89-4de2-a772-ff6cfbe0394d"},"onsetDateTime":"2025-10-01T09:00:00.000Z","abatementDateTime":"2025-10-12T00:15:00.000Z"},"request":{"method":"PUT","url":"Condition/457dcbf1-edb7-4124-888c-627a27752691"}},{"fullUrl":"https://madie.cms.gov/Encounter/611dc328-e823-483a-87ea-f36dd8624f94","resource":{"resourceType":"Encounter","id":"611dc328-e823-483a-87ea-f36dd8624f94","meta":{"profile":["http://hl7.org/fhir/us/qicore/StructureDefinition/qicore-encounter"]},"status":"finished","class":{"system":"http://terminology.hl7.org/CodeSystem/v3-ActCode","code":"IMP","display":"inpatient encounter"},"type":[{"coding":[{"system":"http://snomed.info/sct","code":"32485007"}]}],"subject":{"reference":"Patient/8ad235bf-ba89-4de2-a772-ff6cfbe0394d"},"period":{"start":"2025-10-01T09:00:00.000Z","end":"2025-10-12T00:15:00.000Z"},"length":{"value":11,"unit":"days"},"diagnosis":[{"condition":{"reference":"Condition/7b82b556-7d65-42f7-a2f2-ecce01fad8a7"},"use":{"coding":[{"system":"http://terminology.hl7.org/CodeSystem/diagnosis-role","code":"billing","display":"Billing"}]},"rank":1}]},"request":{"method":"PUT","url":"Encounter/611dc328-e823-483a-87ea-f36dd8624f94"}},{"fullUrl":"https://madie.cms.gov/Procedure/caee897b-aa2d-4876-8839-525dba949f59","resource":{"resourceType":"Procedure","id":"caee897b-aa2d-4876-8839-525dba949f59","meta":{"profile":["http://hl7.org/fhir/us/qicore/StructureDefinition/qicore-procedure"]},"extension":[{"url":"http://hl7.org/fhir/us/qicore/StructureDefinition/qicore-recorded","valueDateTime":"2025-11-19T09:35:00-04:00"}],"status":"completed","code":{"coding":[{"system":"http://snomed.info/sct","code":"133918004"}]},"subject":{"reference":"Patient/8ad235bf-ba89-4de2-a772-ff6cfbe0394d"},"performedDateTime":"2025-10-01T09:01:00.000+00:00"},"request":{"method":"PUT","url":"Procedure/caee897b-aa2d-4876-8839-525dba949f59"}},{"fullUrl":"https://madie.cms.gov/Coverage/3ec8ff3f-9a98-457b-9eb2-401370b3e932","resource":{"resourceType":"Coverage","id":"3ec8ff3f-9a98-457b-9eb2-401370b3e932","status":"active","beneficiary":{"reference":"Patient/8ad235bf-ba89-4de2-a772-ff6cfbe0394d"},"period":{"start":"1985-09-18T08:00:00.000Z"},"payor":[{"reference":"Organization/26111c91-b0e2-476c-a20b-e3f39799f8f5"}]},"request":{"method":"PUT","url":"Coverage/3ec8ff3f-9a98-457b-9eb2-401370b3e932"}},{"fullUrl":"https://madie.cms.gov/Condition/7b82b556-7d65-42f7-a2f2-ecce01fad8a7","resource":{"resourceType":"Condition","id":"7b82b556-7d65-42f7-a2f2-ecce01fad8a7","meta":{"profile":["http://hl7.org/fhir/us/qicore/StructureDefinition/qicore-condition"]},"clinicalStatus":{"coding":[{"system":"http://terminology.hl7.org/CodeSystem/condition-clinical","code":"active"}]},"verificationStatus":{"coding":[{"system":"http://terminology.hl7.org/CodeSystem/condition-ver-status","code":"confirmed"}]},"category":[{"coding":[{"system":"http://terminology.hl7.org/CodeSystem/condition-category","code":"encounter-diagnosis","display":"Encounter Diagnosis"}]}],"code":{"coding":[{"system":"http://snomed.info/sct","version":"2021-09","code":"111297002","display":"Nonparalytic stroke (disorder)","userSelected":true}]},"subject":{"reference":"Patient/8ad235bf-ba89-4de2-a772-ff6cfbe0394d"},"recordedDate":"2025-10-13T08:00:00.000+00:00"},"request":{"method":"PUT","url":"Condition/7b82b556-7d65-42f7-a2f2-ecce01fad8a7"}},{"fullUrl":"https://madie.cms.gov/Organization/76ceae47-d5c0-4f9b-8c3d-ded6a940493e","resource":{"resourceType":"Organization","id":"26111c91-b0e2-476c-a20b-e3f39799f8f5","meta":{"profile":["http://hl7.org/fhir/us/qicore/StructureDefinition/qicore-organization"]},"identifier":[{"use":"temp","system":"urn:oid:2.16.840.1.113883.4.4","value":"21-3259825"}],"active":true,"type":[{"coding":[{"system":"http://terminology.hl7.org/CodeSystem/organization-type","code":"pay","display":"Payer"}]}],"name":"Blue Cross Blue Shield of Texas","telecom":[{"system":"phone","value":"(+1) 972-766-6900"}],"address":[{"use":"billing","type":"postal","line":["P.O. Box 660044"],"city":"Dallas","state":"TX","postalCode":"75266-0044","country":"USA"}]},"request":{"method":"PUT","url":"Organization/26111c91-b0e2-476c-a20b-e3f39799f8f5"}},{"fullUrl":"https://madie.cms.gov/Practitioner/b7437265-2b8e-4766-9cff-6c2cb909b257","resource":{"resourceType":"Practitioner","id":"b7437265-2b8e-4766-9cff-6c2cb909b257","identifier":[{"system":"http://hl7.org/fhir/sid/us-npi","value":"123456"}],"name":[{"family":"Evil","prefix":["Dr"]}]},"request":{"method":"PUT","url":"Practitioner/b7437265-2b8e-4766-9cff-6c2cb909b257"}},{"fullUrl":"https://madie.cms.gov/MeasureReport/f26825c1-a5a7-4a7a-9126-56d2a254ce89","resource":{"resourceType":"MeasureReport","id":"f26825c1-a5a7-4a7a-9126-56d2a254ce89","meta":{"profile":["http://hl7.org/fhir/us/cqfmeasures/StructureDefinition/test-case-cqfm"]},"contained":[{"resourceType":"Parameters","id":"4bd13a56-2431-4358-a4ad-7bde06ba886d-parameters","parameter":[{"name":"subject","valueString":"8ad235bf-ba89-4de2-a772-ff6cfbe0394d"}]}],"extension":[{"url":"http://hl7.org/fhir/us/cqfmeasures/StructureDefinition/cqfm-inputParameters","valueReference":{"reference":"#4bd13a56-2431-4358-a4ad-7bde06ba886d-parameters"}},{"url":"http://hl7.org/fhir/us/cqfmeasures/StructureDefinition/cqfm-testCaseDescription","valueMarkdown":"Patient receives CMP during inpatient encounter. No ED. No Obs. Testing HospitalizationWithObservation function\n"}],"modifierExtension":[{"url":"http://hl7.org/fhir/us/cqfmeasures/StructureDefinition/cqfm-isTestCase","valueBoolean":true}],"status":"complete","type":"individual","measure":"https://madie.cms.gov/Measure/AnticoagulationTherapyforAtrialFibrillationFlutterFHIR","period":{"start":"2025-01-01","end":"2025-12-31"},"group":[{"population":[{"code":{"coding":[{"system":"http://terminology.hl7.org/CodeSystem/measure-population","code":"initial-population","display":"Initial Population"}]},"count":1},{"code":{"coding":[{"system":"http://terminology.hl7.org/CodeSystem/measure-population","code":"denominator","display":"Denominator"}]},"count":1},{"code":{"coding":[{"system":"http://terminology.hl7.org/CodeSystem/measure-population","code":"denominator-exclusion","display":"Denominator Exclusion"}]},"count":1},{"code":{"coding":[{"system":"http://terminology.hl7.org/CodeSystem/measure-population","code":"numerator","display":"Numerator"}]},"count":0},{"code":{"coding":[{"system":"http://terminology.hl7.org/CodeSystem/measure-population","code":"denominator-exception","display":"Denominator Exception"}]},"count":0}]}]},"request":{"method":"PUT","url":"MeasureReport/f26825c1-a5a7-4a7a-9126-56d2a254ce89"}}]}