{"resourceType":"Bundle","id":"tests-1f5b2ed3-23d6-4ffc-be6b-852117f506be-bundle","type":"transaction","entry":[{"fullUrl":"https://madie.cms.gov/Patient/eff9f760-f815-4084-a38c-0185e38340bd","resource":{"resourceType":"Patient","id":"eff9f760-f815-4084-a38c-0185e38340bd","meta":{"profile":["http://hl7.org/fhir/us/qicore/StructureDefinition/qicore-patient"]},"text":{"status":"generated","div":"<div xmlns=\"http://www.w3.org/1999/xhtml\"><div class=\"hapiHeaderText\">EncPrinDx=IschStk_EncDx=Afib/flutter <b>DENOMPASS </b></div><table class=\"hapiPropertyTable\"><tbody><tr><td>Identifier</td><td>bfd807e1d1993084d1164432ce591a06</td></tr><tr><td>Date of birth</td><td><span>01 December 1960</span></td></tr></tbody></table></div>"},"extension":[{"url":"http://hl7.org/fhir/us/core/StructureDefinition/us-core-race","extension":[{"url":"ombCategory","valueCoding":{"system":"urn:oid:2.16.840.1.113883.6.238","code":"1002-5","display":"American Indian or Alaska Native","userSelected":true}},{"url":"text","valueString":"American Indian or Alaska Native"}]},{"url":"http://hl7.org/fhir/us/core/StructureDefinition/us-core-ethnicity","extension":[{"url":"ombCategory","valueCoding":{"system":"urn:oid:2.16.840.1.113883.6.238","code":"2135-2","display":"Hispanic or Latino","userSelected":true}},{"url":"text","valueString":"Hispanic or Latino"}]}],"identifier":[{"type":{"coding":[{"system":"http://terminology.hl7.org/CodeSystem/v2-0203","code":"MR"}]},"system":"https://bonnie-fhir.healthit.gov/","value":"633c9d030968f8012250fc6d"}],"active":true,"name":[{"use":"usual","family":"DENOMPass","given":["EncPrinDx=IschStk_EncDx=Afib/flutter"]}],"gender":"male","birthDate":"1960-12-01"},"request":{"method":"PUT","url":"Patient/eff9f760-f815-4084-a38c-0185e38340bd"}},{"fullUrl":"https://madie.cms.gov/Encounter/15b0ad48-9699-4baf-9a2e-a5ff3cb6c700","resource":{"resourceType":"Encounter","id":"15b0ad48-9699-4baf-9a2e-a5ff3cb6c700","meta":{"profile":["http://hl7.org/fhir/us/qicore/StructureDefinition/qicore-encounter"]},"status":"finished","class":{"system":"http://terminology.hl7.org/CodeSystem/v3-ActCode","code":"IMP","display":"inpatient encounter"},"type":[{"coding":[{"system":"http://snomed.info/sct","code":"183452005"}]}],"subject":{"reference":"Patient/eff9f760-f815-4084-a38c-0185e38340bd"},"period":{"start":"2025-02-08T08:00:00.000Z","end":"2025-02-10T08:15:00.000Z"},"length":{"value":2,"unit":"days"},"diagnosis":[{"condition":{"reference":"Condition/ee8aabbc-d1c4-434f-9bc5-f2999724ef12"},"use":{"coding":[{"system":"http://terminology.hl7.org/CodeSystem/diagnosis-role","code":"billing","display":"Billing"}]}},{"condition":{"reference":"Condition/ed85411f-79ee-49e6-8230-849ed83cb63c"},"use":{"coding":[{"system":"http://terminology.hl7.org/CodeSystem/diagnosis-role","code":"billing","display":"Billing"}]},"rank":1}]},"request":{"method":"PUT","url":"Encounter/15b0ad48-9699-4baf-9a2e-a5ff3cb6c700"}},{"fullUrl":"https://madie.cms.gov/Coverage/4f279deb-ff72-42e3-902d-963e7e671645","resource":{"resourceType":"Coverage","id":"4f279deb-ff72-42e3-902d-963e7e671645","status":"active","beneficiary":{"reference":"Patient/eff9f760-f815-4084-a38c-0185e38340bd"},"period":{"start":"1960-12-01T08:00:00.000Z"},"payor":[{"reference":"Organization/26111c91-b0e2-476c-a20b-e3f39799f8f5"}]},"request":{"method":"PUT","url":"Coverage/4f279deb-ff72-42e3-902d-963e7e671645"}},{"fullUrl":"https://madie.cms.gov/Condition/ed85411f-79ee-49e6-8230-849ed83cb63c","resource":{"resourceType":"Condition","id":"ed85411f-79ee-49e6-8230-849ed83cb63c","meta":{"profile":["http://hl7.org/fhir/us/qicore/StructureDefinition/qicore-condition"]},"clinicalStatus":{"coding":[{"system":"http://terminology.hl7.org/CodeSystem/condition-clinical","code":"active"}]},"verificationStatus":{"coding":[{"system":"http://terminology.hl7.org/CodeSystem/condition-ver-status","code":"confirmed"}]},"category":[{"coding":[{"system":"http://terminology.hl7.org/CodeSystem/condition-category","code":"encounter-diagnosis","display":"Encounter Diagnosis"}]}],"code":{"coding":[{"system":"http://snomed.info/sct","version":"2021-09","code":"111297002","display":"Nonparalytic stroke (disorder)","userSelected":true}]},"subject":{"reference":"Patient/eff9f760-f815-4084-a38c-0185e38340bd"},"recordedDate":"2025-10-13T08:00:00.000+00:00"},"request":{"method":"PUT","url":"Condition/ed85411f-79ee-49e6-8230-849ed83cb63c"}},{"fullUrl":"https://madie.cms.gov/Condition/ee8aabbc-d1c4-434f-9bc5-f2999724ef12","resource":{"resourceType":"Condition","id":"ee8aabbc-d1c4-434f-9bc5-f2999724ef12","meta":{"profile":["http://hl7.org/fhir/us/qicore/StructureDefinition/qicore-condition"]},"clinicalStatus":{"coding":[{"system":"http://terminology.hl7.org/CodeSystem/condition-clinical","code":"active"}]},"verificationStatus":{"coding":[{"system":"http://terminology.hl7.org/CodeSystem/condition-ver-status","code":"confirmed"}]},"category":[{"coding":[{"system":"http://terminology.hl7.org/CodeSystem/condition-category","code":"encounter-diagnosis","display":"Encounter Diagnosis"}]}],"code":{"coding":[{"system":"http://snomed.info/sct","version":"2021-09","code":"120041000119109","display":"Atrial fibrillation with rapid ventricular response (disorder)","userSelected":true}]},"subject":{"reference":"Patient/eff9f760-f815-4084-a38c-0185e38340bd"},"recordedDate":"2025-10-13T08:00:00.000+00:00"},"request":{"method":"PUT","url":"Condition/ee8aabbc-d1c4-434f-9bc5-f2999724ef12"}},{"fullUrl":"https://madie.cms.gov/Organization/03eedb9a-f272-49ed-b8a3-66ad343578f9","resource":{"resourceType":"Organization","id":"26111c91-b0e2-476c-a20b-e3f39799f8f5","meta":{"profile":["http://hl7.org/fhir/us/qicore/StructureDefinition/qicore-organization"]},"identifier":[{"use":"temp","system":"urn:oid:2.16.840.1.113883.4.4","value":"21-3259825"}],"active":true,"type":[{"coding":[{"system":"http://terminology.hl7.org/CodeSystem/organization-type","code":"pay","display":"Payer"}]}],"name":"Blue Cross Blue Shield of Texas","telecom":[{"system":"phone","value":"(+1) 972-766-6900"}],"address":[{"use":"billing","type":"postal","line":["P.O. Box 660044"],"city":"Dallas","state":"TX","postalCode":"75266-0044","country":"USA"}]},"request":{"method":"PUT","url":"Organization/26111c91-b0e2-476c-a20b-e3f39799f8f5"}},{"fullUrl":"https://madie.cms.gov/Practitioner/eb8b98a1-5765-4427-9fc4-112189b62731","resource":{"resourceType":"Practitioner","id":"eb8b98a1-5765-4427-9fc4-112189b62731","identifier":[{"system":"http://hl7.org/fhir/sid/us-npi","value":"123456"}],"name":[{"family":"Evil","prefix":["Dr"]}]},"request":{"method":"PUT","url":"Practitioner/eb8b98a1-5765-4427-9fc4-112189b62731"}},{"fullUrl":"https://madie.cms.gov/MeasureReport/93286346-c61c-4282-bbf3-515c076d431f","resource":{"resourceType":"MeasureReport","id":"93286346-c61c-4282-bbf3-515c076d431f","meta":{"profile":["http://hl7.org/fhir/us/cqfmeasures/StructureDefinition/test-case-cqfm"]},"contained":[{"resourceType":"Parameters","id":"2a03be00-c487-431e-b0bf-351944d25f3d-parameters","parameter":[{"name":"subject","valueString":"eff9f760-f815-4084-a38c-0185e38340bd"}]}],"extension":[{"url":"http://hl7.org/fhir/us/cqfmeasures/StructureDefinition/cqfm-inputParameters","valueReference":{"reference":"#2a03be00-c487-431e-b0bf-351944d25f3d-parameters"}},{"url":"http://hl7.org/fhir/us/cqfmeasures/StructureDefinition/cqfm-testCaseDescription","valueMarkdown":"\"Encounter Principal diagnosis = Ischemic stroke,\nEncounter Dx = Atrial fib/flutter.  testing encounter diagnosis as an attribute \"\n"}],"modifierExtension":[{"url":"http://hl7.org/fhir/us/cqfmeasures/StructureDefinition/cqfm-isTestCase","valueBoolean":true}],"status":"complete","type":"individual","measure":"https://madie.cms.gov/Measure/AnticoagulationTherapyforAtrialFibrillationFlutterFHIR","period":{"start":"2025-01-01","end":"2025-12-31"},"group":[{"population":[{"code":{"coding":[{"system":"http://terminology.hl7.org/CodeSystem/measure-population","code":"initial-population","display":"Initial Population"}]},"count":1},{"code":{"coding":[{"system":"http://terminology.hl7.org/CodeSystem/measure-population","code":"denominator","display":"Denominator"}]},"count":1},{"code":{"coding":[{"system":"http://terminology.hl7.org/CodeSystem/measure-population","code":"denominator-exclusion","display":"Denominator Exclusion"}]},"count":0},{"code":{"coding":[{"system":"http://terminology.hl7.org/CodeSystem/measure-population","code":"numerator","display":"Numerator"}]},"count":0},{"code":{"coding":[{"system":"http://terminology.hl7.org/CodeSystem/measure-population","code":"denominator-exception","display":"Denominator Exception"}]},"count":0}]}]},"request":{"method":"PUT","url":"MeasureReport/93286346-c61c-4282-bbf3-515c076d431f"}}]}