{"resourceType":"Bundle","id":"tests-b3bcdbbc-3b69-4e22-b993-b04d87f225a8-bundle","type":"transaction","entry":[{"fullUrl":"https://madie.cms.gov/Patient/778ba4c4-3173-4721-8a71-580cedaf09ee","resource":{"resourceType":"Patient","id":"778ba4c4-3173-4721-8a71-580cedaf09ee","meta":{"profile":["http://hl7.org/fhir/us/qicore/StructureDefinition/qicore-patient"]},"text":{"status":"generated","div":"<div xmlns=\"http://www.w3.org/1999/xhtml\"><div class=\"hapiHeaderText\">CMOdurEnc_ED&gt;1hrNoObsBFEnc <b>DENEXPASS </b></div><table class=\"hapiPropertyTable\"><tbody><tr><td>Identifier</td><td>598ef08c763129d6d7c5f79b51d3f082</td></tr><tr><td>Date of birth</td><td><span>18 September 1985</span></td></tr></tbody></table></div>"},"extension":[{"url":"http://hl7.org/fhir/us/core/StructureDefinition/us-core-race","extension":[{"url":"ombCategory","valueCoding":{"system":"urn:oid:2.16.840.1.113883.6.238","code":"1002-5","display":"American Indian or Alaska Native","userSelected":true}},{"url":"text","valueString":"American Indian or Alaska Native"}]},{"url":"http://hl7.org/fhir/us/core/StructureDefinition/us-core-ethnicity","extension":[{"url":"ombCategory","valueCoding":{"system":"urn:oid:2.16.840.1.113883.6.238","code":"2135-2","display":"Hispanic or Latino","userSelected":true}},{"url":"text","valueString":"Hispanic or Latino"}]}],"identifier":[{"type":{"coding":[{"system":"http://terminology.hl7.org/CodeSystem/v2-0203","code":"MR"}]},"system":"https://bonnie-fhir.healthit.gov/","value":"633c9d030968f8012250fc81"}],"active":true,"name":[{"use":"usual","family":"DENEXPass","given":["CMOdurEnc_ED>1hrNoObsBFEnc"]}],"gender":"female","birthDate":"1985-09-18"},"request":{"method":"PUT","url":"Patient/778ba4c4-3173-4721-8a71-580cedaf09ee"}},{"fullUrl":"https://madie.cms.gov/Condition/dbc8affb-c4d6-40d9-9142-79a9392f81cc","resource":{"resourceType":"Condition","id":"dbc8affb-c4d6-40d9-9142-79a9392f81cc","meta":{"profile":["http://hl7.org/fhir/us/qicore/StructureDefinition/qicore-condition"]},"clinicalStatus":{"coding":[{"system":"http://terminology.hl7.org/CodeSystem/condition-clinical","code":"inactive"}]},"verificationStatus":{"coding":[{"system":"http://terminology.hl7.org/CodeSystem/condition-ver-status","code":"confirmed"}]},"category":[{"coding":[{"system":"http://terminology.hl7.org/CodeSystem/condition-category","code":"encounter-diagnosis","display":"Encounter Diagnosis"}]}],"code":{"coding":[{"system":"http://hl7.org/fhir/sid/icd-10-cm","code":"I48.20"},{"system":"http://hl7.org/fhir/sid/icd-10-cm","code":"I48.0"},{"system":"http://snomed.info/sct","code":"5370000"}]},"subject":{"reference":"Patient/778ba4c4-3173-4721-8a71-580cedaf09ee"},"onsetDateTime":"2025-10-01T09:00:00.000Z","abatementDateTime":"2025-10-12T00:15:00.000Z"},"request":{"method":"PUT","url":"Condition/dbc8affb-c4d6-40d9-9142-79a9392f81cc"}},{"fullUrl":"https://madie.cms.gov/Encounter/deb7a8dc-3e5e-467f-890b-5974870b5667","resource":{"resourceType":"Encounter","id":"deb7a8dc-3e5e-467f-890b-5974870b5667","meta":{"profile":["http://hl7.org/fhir/us/qicore/StructureDefinition/qicore-encounter"]},"status":"finished","class":{"system":"http://terminology.hl7.org/CodeSystem/v3-ActCode","code":"EMER","display":"emergency"},"type":[{"coding":[{"system":"http://snomed.info/sct","code":"4525004"}]}],"subject":{"reference":"Patient/778ba4c4-3173-4721-8a71-580cedaf09ee"},"period":{"start":"2025-10-01T08:00:00.000Z","end":"2025-10-01T08:59:00.000Z"},"length":{"value":0,"unit":"days"}},"request":{"method":"PUT","url":"Encounter/deb7a8dc-3e5e-467f-890b-5974870b5667"}},{"fullUrl":"https://madie.cms.gov/Encounter/13860908-9611-4589-8227-925ac0baa295","resource":{"resourceType":"Encounter","id":"13860908-9611-4589-8227-925ac0baa295","meta":{"profile":["http://hl7.org/fhir/us/qicore/StructureDefinition/qicore-encounter"]},"status":"finished","class":{"system":"http://terminology.hl7.org/CodeSystem/v3-ActCode","code":"IMP","display":"inpatient encounter"},"type":[{"coding":[{"system":"http://snomed.info/sct","code":"32485007"}]}],"subject":{"reference":"Patient/778ba4c4-3173-4721-8a71-580cedaf09ee"},"period":{"start":"2025-10-01T10:00:00.000Z","end":"2025-10-12T00:15:00.000Z"},"length":{"value":11,"unit":"days"},"diagnosis":[{"condition":{"reference":"Condition/9ba96cf3-a375-4783-8719-eed7549c1b26"},"use":{"coding":[{"system":"http://terminology.hl7.org/CodeSystem/diagnosis-role","code":"billing","display":"Billing"}]},"rank":1}]},"request":{"method":"PUT","url":"Encounter/13860908-9611-4589-8227-925ac0baa295"}},{"fullUrl":"https://madie.cms.gov/ServiceRequest/0dbe95b6-cb09-46c3-bcfb-59e8f69486ad","resource":{"resourceType":"ServiceRequest","id":"0dbe95b6-cb09-46c3-bcfb-59e8f69486ad","meta":{"profile":["http://hl7.org/fhir/us/qicore/StructureDefinition/qicore-servicerequest"]},"status":"active","intent":"order","code":{"coding":[{"system":"http://snomed.info/sct","code":"133918004"}]},"subject":{"reference":"Patient/778ba4c4-3173-4721-8a71-580cedaf09ee"},"authoredOn":"2025-10-01T10:00:00.000+00:00"},"request":{"method":"PUT","url":"ServiceRequest/0dbe95b6-cb09-46c3-bcfb-59e8f69486ad"}},{"fullUrl":"https://madie.cms.gov/Coverage/4feb5365-0d26-4a02-8cb3-5b21fa6e6c89","resource":{"resourceType":"Coverage","id":"4feb5365-0d26-4a02-8cb3-5b21fa6e6c89","status":"active","beneficiary":{"reference":"Patient/778ba4c4-3173-4721-8a71-580cedaf09ee"},"period":{"start":"1985-09-18T08:00:00.000Z"},"payor":[{"reference":"Organization/26111c91-b0e2-476c-a20b-e3f39799f8f5"}]},"request":{"method":"PUT","url":"Coverage/4feb5365-0d26-4a02-8cb3-5b21fa6e6c89"}},{"fullUrl":"https://madie.cms.gov/Condition/9ba96cf3-a375-4783-8719-eed7549c1b26","resource":{"resourceType":"Condition","id":"9ba96cf3-a375-4783-8719-eed7549c1b26","meta":{"profile":["http://hl7.org/fhir/us/qicore/StructureDefinition/qicore-condition"]},"clinicalStatus":{"coding":[{"system":"http://terminology.hl7.org/CodeSystem/condition-clinical","code":"active"}]},"verificationStatus":{"coding":[{"system":"http://terminology.hl7.org/CodeSystem/condition-ver-status","code":"confirmed"}]},"category":[{"coding":[{"system":"http://terminology.hl7.org/CodeSystem/condition-category","code":"encounter-diagnosis","display":"Encounter Diagnosis"}]}],"code":{"coding":[{"system":"http://snomed.info/sct","version":"2021-09","code":"111297002","display":"Nonparalytic stroke (disorder)","userSelected":true}]},"subject":{"reference":"Patient/778ba4c4-3173-4721-8a71-580cedaf09ee"},"recordedDate":"2025-10-13T08:00:00.000+00:00"},"request":{"method":"PUT","url":"Condition/9ba96cf3-a375-4783-8719-eed7549c1b26"}},{"fullUrl":"https://madie.cms.gov/Organization/71db852e-433e-4fee-b440-16bec66f8f31","resource":{"resourceType":"Organization","id":"26111c91-b0e2-476c-a20b-e3f39799f8f5","meta":{"profile":["http://hl7.org/fhir/us/qicore/StructureDefinition/qicore-organization"]},"identifier":[{"use":"temp","system":"urn:oid:2.16.840.1.113883.4.4","value":"21-3259825"}],"active":true,"type":[{"coding":[{"system":"http://terminology.hl7.org/CodeSystem/organization-type","code":"pay","display":"Payer"}]}],"name":"Blue Cross Blue Shield of Texas","telecom":[{"system":"phone","value":"(+1) 972-766-6900"}],"address":[{"use":"billing","type":"postal","line":["P.O. Box 660044"],"city":"Dallas","state":"TX","postalCode":"75266-0044","country":"USA"}]},"request":{"method":"PUT","url":"Organization/26111c91-b0e2-476c-a20b-e3f39799f8f5"}},{"fullUrl":"https://madie.cms.gov/Practitioner/05e17c53-8248-493f-8ad8-e60b977e1b49","resource":{"resourceType":"Practitioner","id":"05e17c53-8248-493f-8ad8-e60b977e1b49","identifier":[{"system":"http://hl7.org/fhir/sid/us-npi","value":"123456"}],"name":[{"family":"Evil","prefix":["Dr"]}]},"request":{"method":"PUT","url":"Practitioner/05e17c53-8248-493f-8ad8-e60b977e1b49"}},{"fullUrl":"https://madie.cms.gov/MeasureReport/758066f7-9f0b-4fae-834a-511a8ee37308","resource":{"resourceType":"MeasureReport","id":"758066f7-9f0b-4fae-834a-511a8ee37308","meta":{"profile":["http://hl7.org/fhir/us/cqfmeasures/StructureDefinition/test-case-cqfm"]},"contained":[{"resourceType":"Parameters","id":"db507af6-c47b-4471-ad51-e614909fb390-parameters","parameter":[{"name":"subject","valueString":"778ba4c4-3173-4721-8a71-580cedaf09ee"}]}],"extension":[{"url":"http://hl7.org/fhir/us/cqfmeasures/StructureDefinition/cqfm-inputParameters","valueReference":{"reference":"#db507af6-c47b-4471-ad51-e614909fb390-parameters"}},{"url":"http://hl7.org/fhir/us/cqfmeasures/StructureDefinition/cqfm-testCaseDescription","valueMarkdown":"Patient receives CMO during inpatient encounter. ED ends 61 minutes before inpatient encounter start on the same day. No Observation. Testing HospitalizationWithObservation function.\n"}],"modifierExtension":[{"url":"http://hl7.org/fhir/us/cqfmeasures/StructureDefinition/cqfm-isTestCase","valueBoolean":true}],"status":"complete","type":"individual","measure":"https://madie.cms.gov/Measure/AnticoagulationTherapyforAtrialFibrillationFlutterFHIR","period":{"start":"2025-01-01","end":"2025-12-31"},"group":[{"population":[{"code":{"coding":[{"system":"http://terminology.hl7.org/CodeSystem/measure-population","code":"initial-population","display":"Initial Population"}]},"count":1},{"code":{"coding":[{"system":"http://terminology.hl7.org/CodeSystem/measure-population","code":"denominator","display":"Denominator"}]},"count":1},{"code":{"coding":[{"system":"http://terminology.hl7.org/CodeSystem/measure-population","code":"denominator-exclusion","display":"Denominator Exclusion"}]},"count":1},{"code":{"coding":[{"system":"http://terminology.hl7.org/CodeSystem/measure-population","code":"numerator","display":"Numerator"}]},"count":0},{"code":{"coding":[{"system":"http://terminology.hl7.org/CodeSystem/measure-population","code":"denominator-exception","display":"Denominator Exception"}]},"count":0}]}]},"request":{"method":"PUT","url":"MeasureReport/758066f7-9f0b-4fae-834a-511a8ee37308"}}]}