{"resourceType":"Bundle","id":"tests-ad014d1d-6043-4b40-9fd3-0abc1f308a04-bundle","type":"transaction","entry":[{"fullUrl":"https://madie.cms.gov/Patient/c91bc0a8-28de-4a83-8979-14ad469b1a1d","resource":{"resourceType":"Patient","id":"c91bc0a8-28de-4a83-8979-14ad469b1a1d","meta":{"profile":["http://hl7.org/fhir/us/qicore/StructureDefinition/qicore-patient"]},"text":{"status":"generated","div":"<div xmlns=\"http://www.w3.org/1999/xhtml\"><div class=\"hapiHeaderText\">EncDx=IschemicStroke <b>IPPFAIL </b></div><table class=\"hapiPropertyTable\"><tbody><tr><td>Identifier</td><td>56529beb139611ad036d263322dc8071</td></tr><tr><td>Date of birth</td><td><span>01 December 1960</span></td></tr></tbody></table></div>"},"extension":[{"url":"http://hl7.org/fhir/us/core/StructureDefinition/us-core-race","extension":[{"url":"ombCategory","valueCoding":{"system":"urn:oid:2.16.840.1.113883.6.238","code":"1002-5","display":"American Indian or Alaska Native","userSelected":true}},{"url":"text","valueString":"American Indian or Alaska Native"}]},{"url":"http://hl7.org/fhir/us/core/StructureDefinition/us-core-ethnicity","extension":[{"url":"ombCategory","valueCoding":{"system":"urn:oid:2.16.840.1.113883.6.238","code":"2135-2","display":"Hispanic or Latino","userSelected":true}},{"url":"text","valueString":"Hispanic or Latino"}]}],"identifier":[{"type":{"coding":[{"system":"http://terminology.hl7.org/CodeSystem/v2-0203","code":"MR"}]},"system":"https://bonnie-fhir.healthit.gov/","value":"633c9d030968f8012250fc95"}],"active":true,"name":[{"use":"usual","family":"IPPFail","given":["EncDx=IschemicStroke "]}],"gender":"male","birthDate":"1960-12-01"},"request":{"method":"PUT","url":"Patient/c91bc0a8-28de-4a83-8979-14ad469b1a1d"}},{"fullUrl":"https://madie.cms.gov/Encounter/cc4a7fa8-109a-4139-a284-f2f69978c3e6","resource":{"resourceType":"Encounter","id":"cc4a7fa8-109a-4139-a284-f2f69978c3e6","meta":{"profile":["http://hl7.org/fhir/us/qicore/StructureDefinition/qicore-encounter"]},"status":"finished","class":{"system":"http://terminology.hl7.org/CodeSystem/v3-ActCode","code":"IMP","display":"inpatient encounter"},"type":[{"coding":[{"system":"http://snomed.info/sct","code":"32485007"}]}],"subject":{"reference":"Patient/c91bc0a8-28de-4a83-8979-14ad469b1a1d"},"period":{"start":"2025-02-08T08:00:00.000Z","end":"2025-02-10T08:15:00.000Z"},"length":{"value":2.0,"unit":"days"},"diagnosis":[{"condition":{"reference":"Condition/f2331705-676d-4684-b1b3-425d0667d38b"}}]},"request":{"method":"PUT","url":"Encounter/cc4a7fa8-109a-4139-a284-f2f69978c3e6"}},{"fullUrl":"https://madie.cms.gov/Coverage/ae3bc24a-2579-4a0b-86cf-a3662bb4208e","resource":{"resourceType":"Coverage","id":"ae3bc24a-2579-4a0b-86cf-a3662bb4208e","status":"active","beneficiary":{"reference":"Patient/c91bc0a8-28de-4a83-8979-14ad469b1a1d"},"period":{"start":"1960-12-01T08:00:00.000Z"},"payor":[{"reference":"Organization/26111c91-b0e2-476c-a20b-e3f39799f8f5"}]},"request":{"method":"PUT","url":"Coverage/ae3bc24a-2579-4a0b-86cf-a3662bb4208e"}},{"fullUrl":"https://madie.cms.gov/Condition/f2331705-676d-4684-b1b3-425d0667d38b","resource":{"resourceType":"Condition","id":"f2331705-676d-4684-b1b3-425d0667d38b","meta":{"profile":["http://hl7.org/fhir/us/qicore/StructureDefinition/qicore-condition"]},"clinicalStatus":{"coding":[{"system":"http://terminology.hl7.org/CodeSystem/condition-clinical","code":"active"}]},"verificationStatus":{"coding":[{"system":"http://terminology.hl7.org/CodeSystem/condition-ver-status","code":"confirmed"}]},"category":[{"coding":[{"system":"http://terminology.hl7.org/CodeSystem/condition-category","code":"encounter-diagnosis","display":"Encounter Diagnosis"}]}],"code":{"coding":[{"system":"http://snomed.info/sct","version":"2021-09","code":"111297002","display":"Nonparalytic stroke (disorder)","userSelected":true}]},"subject":{"reference":"Patient/c91bc0a8-28de-4a83-8979-14ad469b1a1d"},"recordedDate":"2025-10-13T08:00:00.000+00:00"},"request":{"method":"PUT","url":"Condition/f2331705-676d-4684-b1b3-425d0667d38b"}},{"fullUrl":"https://madie.cms.gov/Organization/1b9cbb50-4a6c-4b11-8c13-f75c241d3af8","resource":{"resourceType":"Organization","id":"26111c91-b0e2-476c-a20b-e3f39799f8f5","meta":{"profile":["http://hl7.org/fhir/us/qicore/StructureDefinition/qicore-organization"]},"identifier":[{"use":"temp","system":"urn:oid:2.16.840.1.113883.4.4","value":"21-3259825"}],"active":true,"type":[{"coding":[{"system":"http://terminology.hl7.org/CodeSystem/organization-type","code":"pay","display":"Payer"}]}],"name":"Blue Cross Blue Shield of Texas","telecom":[{"system":"phone","value":"(+1) 972-766-6900"}],"address":[{"use":"billing","type":"postal","line":["P.O. Box 660044"],"city":"Dallas","state":"TX","postalCode":"75266-0044","country":"USA"}]},"request":{"method":"PUT","url":"Organization/26111c91-b0e2-476c-a20b-e3f39799f8f5"}},{"fullUrl":"https://madie.cms.gov/Practitioner/88ba0298-e39c-430d-bcdd-361ef7e6f504","resource":{"resourceType":"Practitioner","id":"88ba0298-e39c-430d-bcdd-361ef7e6f504","identifier":[{"system":"http://hl7.org/fhir/sid/us-npi","value":"123456"}],"name":[{"family":"Evil","prefix":["Dr"]}]},"request":{"method":"PUT","url":"Practitioner/88ba0298-e39c-430d-bcdd-361ef7e6f504"}},{"fullUrl":"https://madie.cms.gov/MeasureReport/7c5a0e79-6e55-4f73-88f2-74ce7466a468","resource":{"resourceType":"MeasureReport","id":"7c5a0e79-6e55-4f73-88f2-74ce7466a468","meta":{"profile":["http://hl7.org/fhir/us/cqfmeasures/StructureDefinition/test-case-cqfm"]},"contained":[{"resourceType":"Parameters","id":"6fd4e9b0-0602-4290-9fa8-dfc5eb284dad-parameters","parameter":[{"name":"subject","valueString":"c91bc0a8-28de-4a83-8979-14ad469b1a1d"}]}],"extension":[{"url":"http://hl7.org/fhir/us/cqfmeasures/StructureDefinition/cqfm-inputParameters","valueReference":{"reference":"#6fd4e9b0-0602-4290-9fa8-dfc5eb284dad-parameters"}},{"url":"http://hl7.org/fhir/us/cqfmeasures/StructureDefinition/cqfm-testCaseDescription","valueMarkdown":"Enc Dx = ischemic stroke, age GT 18, without EncPrinipleDx\n"}],"modifierExtension":[{"url":"http://hl7.org/fhir/us/cqfmeasures/StructureDefinition/cqfm-isTestCase","valueBoolean":true}],"status":"complete","type":"individual","measure":"https://madie.cms.gov/Measure/AnticoagulationTherapyforAtrialFibrillationFlutterFHIR","period":{"start":"2025-01-01","end":"2025-12-31"},"group":[{"population":[{"code":{"coding":[{"system":"http://terminology.hl7.org/CodeSystem/measure-population","code":"initial-population","display":"Initial Population"}]},"count":0},{"code":{"coding":[{"system":"http://terminology.hl7.org/CodeSystem/measure-population","code":"denominator","display":"Denominator"}]},"count":0},{"code":{"coding":[{"system":"http://terminology.hl7.org/CodeSystem/measure-population","code":"denominator-exclusion","display":"Denominator Exclusion"}]},"count":0},{"code":{"coding":[{"system":"http://terminology.hl7.org/CodeSystem/measure-population","code":"numerator","display":"Numerator"}]},"count":0},{"code":{"coding":[{"system":"http://terminology.hl7.org/CodeSystem/measure-population","code":"denominator-exception","display":"Denominator Exception"}]},"count":0}]}]},"request":{"method":"PUT","url":"MeasureReport/7c5a0e79-6e55-4f73-88f2-74ce7466a468"}}]}