{"resourceType":"Bundle","id":"tests-c640ff8f-5b2a-448e-85a2-e739af7a8dc4-bundle","type":"transaction","entry":[{"fullUrl":"https://madie.cms.gov/Patient/ecc3512b-3e4a-47bf-b992-82bc47a51834","resource":{"resourceType":"Patient","id":"ecc3512b-3e4a-47bf-b992-82bc47a51834","meta":{"profile":["http://hl7.org/fhir/us/qicore/StructureDefinition/qicore-patient"]},"text":{"status":"generated","div":"<div xmlns=\"http://www.w3.org/1999/xhtml\"><div class=\"hapiHeaderText\">MedDCMedReason <b>DENEXCEPPASS </b></div><table class=\"hapiPropertyTable\"><tbody><tr><td>Identifier</td><td>a74a3b413f99bbe600a1f178896a0083</td></tr><tr><td>Date of birth</td><td><span>23 May 1954</span></td></tr></tbody></table></div>"},"extension":[{"url":"http://hl7.org/fhir/us/core/StructureDefinition/us-core-race","extension":[{"url":"ombCategory","valueCoding":{"system":"urn:oid:2.16.840.1.113883.6.238","code":"1002-5","display":"American Indian or Alaska Native","userSelected":true}},{"url":"text","valueString":"American Indian or Alaska Native"}]},{"url":"http://hl7.org/fhir/us/core/StructureDefinition/us-core-ethnicity","extension":[{"url":"ombCategory","valueCoding":{"system":"urn:oid:2.16.840.1.113883.6.238","code":"2135-2","display":"Hispanic or Latino","userSelected":true}},{"url":"text","valueString":"Hispanic or Latino"}]}],"identifier":[{"type":{"coding":[{"system":"http://terminology.hl7.org/CodeSystem/v2-0203","code":"MR"}]},"system":"https://bonnie-fhir.healthit.gov/","value":"633c9d030968f8012250fc6f"}],"active":true,"name":[{"use":"usual","family":"DENEXCEPPass","given":["MedDCMedReason"]}],"gender":"female","birthDate":"1954-05-23"},"request":{"method":"PUT","url":"Patient/ecc3512b-3e4a-47bf-b992-82bc47a51834"}},{"fullUrl":"https://madie.cms.gov/Encounter/5d64c821-1b87-4ad2-bb27-024d4111996c","resource":{"resourceType":"Encounter","id":"5d64c821-1b87-4ad2-bb27-024d4111996c","meta":{"profile":["http://hl7.org/fhir/us/qicore/StructureDefinition/qicore-encounter"]},"status":"finished","class":{"system":"http://terminology.hl7.org/CodeSystem/v3-ActCode","code":"IMP","display":"inpatient encounter"},"type":[{"coding":[{"system":"http://snomed.info/sct","code":"32485007"}]}],"subject":{"reference":"Patient/ecc3512b-3e4a-47bf-b992-82bc47a51834"},"period":{"start":"2025-11-20T08:00:00.000Z","end":"2025-11-24T08:15:00.000Z"},"length":{"value":4,"unit":"days"},"diagnosis":[{"condition":{"reference":"Condition/9712fdf7-feb0-404d-a58f-dc58afd3f7e5"},"use":{"coding":[{"system":"http://terminology.hl7.org/CodeSystem/diagnosis-role","code":"billing","display":"Billing"}]},"rank":1}]},"request":{"method":"PUT","url":"Encounter/5d64c821-1b87-4ad2-bb27-024d4111996c"}},{"fullUrl":"https://madie.cms.gov/MedicationRequest/d36a8c53-ccdc-4c40-b329-6acadfead537","resource":{"resourceType":"MedicationRequest","id":"d36a8c53-ccdc-4c40-b329-6acadfead537","meta":{"profile":["http://hl7.org/fhir/us/qicore/StructureDefinition/qicore-mednotrequested"]},"status":"completed","intent":"order","category":[{"coding":[{"system":"http://terminology.hl7.org/CodeSystem/medicationrequest-category","code":"community"}]}],"doNotPerform":true,"medicationCodeableConcept":{"coding":[{"system":"http://www.nlm.nih.gov/research/umls/rxnorm","code":"308351"}]},"subject":{"reference":"Patient/ecc3512b-3e4a-47bf-b992-82bc47a51834"},"authoredOn":"2025-11-24T08:10:00.000+00:00","requester":{"reference":"Practitioner/example"},"reasonCode":[{"coding":[{"system":"http://snomed.info/sct","code":"183932001"}]}]},"request":{"method":"PUT","url":"MedicationRequest/d36a8c53-ccdc-4c40-b329-6acadfead537"}},{"fullUrl":"https://madie.cms.gov/Coverage/5322b8a7-215f-4e3f-a1a8-db2ec710383c","resource":{"resourceType":"Coverage","id":"5322b8a7-215f-4e3f-a1a8-db2ec710383c","status":"active","beneficiary":{"reference":"Patient/ecc3512b-3e4a-47bf-b992-82bc47a51834"},"period":{"start":"1954-05-23T08:00:00.000Z"},"payor":[{"reference":"Organization/26111c91-b0e2-476c-a20b-e3f39799f8f5"}]},"request":{"method":"PUT","url":"Coverage/5322b8a7-215f-4e3f-a1a8-db2ec710383c"}},{"fullUrl":"https://madie.cms.gov/Procedure/2a3f834a-ae39-4ee3-a300-8c98889474b0","resource":{"resourceType":"Procedure","id":"2a3f834a-ae39-4ee3-a300-8c98889474b0","meta":{"profile":["http://hl7.org/fhir/us/qicore/StructureDefinition/qicore-procedure"]},"extension":[{"url":"http://hl7.org/fhir/us/qicore/StructureDefinition/qicore-recorded","valueDateTime":"2013-04-05T09:35:00-04:00"}],"status":"completed","code":{"coding":[{"system":"http://www.cms.gov/Medicare/Coding/ICD10","code":"02560ZZ"},{"system":"http://snomed.info/sct","code":"175095005"}]},"subject":{"reference":"Patient/ecc3512b-3e4a-47bf-b992-82bc47a51834"},"performedPeriod":{"start":"2025-11-20T06:00:00.000Z","end":"2025-11-20T07:15:00.000Z"}},"request":{"method":"PUT","url":"Procedure/2a3f834a-ae39-4ee3-a300-8c98889474b0"}},{"fullUrl":"https://madie.cms.gov/Condition/9712fdf7-feb0-404d-a58f-dc58afd3f7e5","resource":{"resourceType":"Condition","id":"9712fdf7-feb0-404d-a58f-dc58afd3f7e5","meta":{"profile":["http://hl7.org/fhir/us/qicore/StructureDefinition/qicore-condition"]},"clinicalStatus":{"coding":[{"system":"http://terminology.hl7.org/CodeSystem/condition-clinical","code":"active"}]},"verificationStatus":{"coding":[{"system":"http://terminology.hl7.org/CodeSystem/condition-ver-status","code":"confirmed"}]},"category":[{"coding":[{"system":"http://terminology.hl7.org/CodeSystem/condition-category","code":"encounter-diagnosis","display":"Encounter Diagnosis"}]}],"code":{"coding":[{"system":"http://snomed.info/sct","version":"2021-09","code":"111297002","display":"Nonparalytic stroke (disorder)","userSelected":true}]},"subject":{"reference":"Patient/ecc3512b-3e4a-47bf-b992-82bc47a51834"},"recordedDate":"2025-10-13T08:00:00.000+00:00"},"request":{"method":"PUT","url":"Condition/9712fdf7-feb0-404d-a58f-dc58afd3f7e5"}},{"fullUrl":"https://madie.cms.gov/Organization/4763f69c-5ae9-454e-b2dd-e2803a4aa86a","resource":{"resourceType":"Organization","id":"26111c91-b0e2-476c-a20b-e3f39799f8f5","meta":{"profile":["http://hl7.org/fhir/us/qicore/StructureDefinition/qicore-organization"]},"identifier":[{"use":"temp","system":"urn:oid:2.16.840.1.113883.4.4","value":"21-3259825"}],"active":true,"type":[{"coding":[{"system":"http://terminology.hl7.org/CodeSystem/organization-type","code":"pay","display":"Payer"}]}],"name":"Blue Cross Blue Shield of Texas","telecom":[{"system":"phone","value":"(+1) 972-766-6900"}],"address":[{"use":"billing","type":"postal","line":["P.O. Box 660044"],"city":"Dallas","state":"TX","postalCode":"75266-0044","country":"USA"}]},"request":{"method":"PUT","url":"Organization/26111c91-b0e2-476c-a20b-e3f39799f8f5"}},{"fullUrl":"https://madie.cms.gov/MeasureReport/7f1dc427-d05f-4712-8722-8460d3595367","resource":{"resourceType":"MeasureReport","id":"7f1dc427-d05f-4712-8722-8460d3595367","meta":{"profile":["http://hl7.org/fhir/us/cqfmeasures/StructureDefinition/test-case-cqfm"]},"contained":[{"resourceType":"Parameters","id":"470441ab-991f-4822-b9a3-1d7c4aa02b1a-parameters","parameter":[{"name":"subject","valueString":"ecc3512b-3e4a-47bf-b992-82bc47a51834"}]}],"extension":[{"url":"http://hl7.org/fhir/us/cqfmeasures/StructureDefinition/cqfm-inputParameters","valueReference":{"reference":"#470441ab-991f-4822-b9a3-1d7c4aa02b1a-parameters"}},{"url":"http://hl7.org/fhir/us/cqfmeasures/StructureDefinition/cqfm-testCaseDescription","valueMarkdown":"Med Reason coverage for Med Discharge"}],"modifierExtension":[{"url":"http://hl7.org/fhir/us/cqfmeasures/StructureDefinition/cqfm-isTestCase","valueBoolean":true}],"status":"complete","type":"individual","measure":"https://madie.cms.gov/Measure/AnticoagulationTherapyforAtrialFibrillationFlutterFHIR","period":{"start":"2025-01-01","end":"2025-12-31"},"group":[{"population":[{"code":{"coding":[{"system":"http://terminology.hl7.org/CodeSystem/measure-population","code":"initial-population","display":"Initial Population"}]},"count":1},{"code":{"coding":[{"system":"http://terminology.hl7.org/CodeSystem/measure-population","code":"denominator","display":"Denominator"}]},"count":1},{"code":{"coding":[{"system":"http://terminology.hl7.org/CodeSystem/measure-population","code":"denominator-exclusion","display":"Denominator Exclusion"}]},"count":0},{"code":{"coding":[{"system":"http://terminology.hl7.org/CodeSystem/measure-population","code":"numerator","display":"Numerator"}]},"count":0},{"code":{"coding":[{"system":"http://terminology.hl7.org/CodeSystem/measure-population","code":"denominator-exception","display":"Denominator Exception"}]},"count":1}]}]},"request":{"method":"PUT","url":"MeasureReport/7f1dc427-d05f-4712-8722-8460d3595367"}}]}