{"resourceType":"Bundle","id":"tests-541c6790-5a21-41ca-8e4e-49da54a28b9b-bundle","type":"transaction","entry":[{"fullUrl":"https://madie.cms.gov/Patient/576c13d6-ee7b-431b-aeb1-edce5f043de2","resource":{"resourceType":"Patient","id":"576c13d6-ee7b-431b-aeb1-edce5f043de2","meta":{"profile":["http://hl7.org/fhir/us/qicore/StructureDefinition/qicore-patient"]},"text":{"status":"generated","div":"<div xmlns=\"http://www.w3.org/1999/xhtml\"><div class=\"hapiHeaderText\">CMOdurEnc_NoEDObs&lt;1hrBFEnc <b>DENEXPASS </b></div><table class=\"hapiPropertyTable\"><tbody><tr><td>Identifier</td><td>02b0ef2e973beaec0a8b1e55c0dadc67beed7a4482dce2ae4bf0963095b983fa</td></tr><tr><td>Date of birth</td><td><span>18 September 1985</span></td></tr></tbody></table></div>"},"extension":[{"url":"http://hl7.org/fhir/us/core/StructureDefinition/us-core-race","extension":[{"url":"ombCategory","valueCoding":{"system":"urn:oid:2.16.840.1.113883.6.238","code":"1002-5","display":"American Indian or Alaska Native","userSelected":true}},{"url":"text","valueString":"American Indian or Alaska Native"}]},{"url":"http://hl7.org/fhir/us/core/StructureDefinition/us-core-ethnicity","extension":[{"url":"ombCategory","valueCoding":{"system":"urn:oid:2.16.840.1.113883.6.238","code":"2135-2","display":"Hispanic or Latino","userSelected":true}},{"url":"text","valueString":"Hispanic or Latino"}]}],"identifier":[{"type":{"coding":[{"system":"http://terminology.hl7.org/CodeSystem/v2-0203","code":"MR"}]},"system":"https://bonnie-fhir.healthit.gov/","value":"633c9d040968f8012250fca0"}],"active":true,"name":[{"use":"usual","family":"DENEXPass","given":["CMOdurEnc_NoEDObs<1hrBFEnc"]}],"gender":"female","birthDate":"1985-09-18"},"request":{"method":"PUT","url":"Patient/576c13d6-ee7b-431b-aeb1-edce5f043de2"}},{"fullUrl":"https://madie.cms.gov/Condition/58f62b99-11ee-4be5-bad9-8fdff9f91db9","resource":{"resourceType":"Condition","id":"58f62b99-11ee-4be5-bad9-8fdff9f91db9","meta":{"profile":["http://hl7.org/fhir/us/qicore/StructureDefinition/qicore-condition"]},"clinicalStatus":{"coding":[{"system":"http://terminology.hl7.org/CodeSystem/condition-clinical","code":"inactive"}]},"verificationStatus":{"coding":[{"system":"http://terminology.hl7.org/CodeSystem/condition-ver-status","code":"confirmed"}]},"category":[{"coding":[{"system":"http://terminology.hl7.org/CodeSystem/condition-category","code":"encounter-diagnosis","display":"Encounter Diagnosis"}]}],"code":{"coding":[{"system":"http://hl7.org/fhir/sid/icd-10-cm","code":"I48.20"},{"system":"http://hl7.org/fhir/sid/icd-10-cm","code":"I48.0"},{"system":"http://snomed.info/sct","code":"5370000"}]},"subject":{"reference":"Patient/576c13d6-ee7b-431b-aeb1-edce5f043de2"},"onsetDateTime":"2025-02-11T08:00:00.000Z","abatementDateTime":"2025-02-11T08:15:00.000Z"},"request":{"method":"PUT","url":"Condition/58f62b99-11ee-4be5-bad9-8fdff9f91db9"}},{"fullUrl":"https://madie.cms.gov/Condition/0331194c-c7ad-4875-878a-93631f1822ca","resource":{"resourceType":"Condition","id":"0331194c-c7ad-4875-878a-93631f1822ca","meta":{"profile":["http://hl7.org/fhir/us/qicore/StructureDefinition/qicore-condition"]},"clinicalStatus":{"coding":[{"system":"http://terminology.hl7.org/CodeSystem/condition-clinical","code":"inactive"}]},"verificationStatus":{"coding":[{"system":"http://terminology.hl7.org/CodeSystem/condition-ver-status","code":"confirmed"}]},"category":[{"coding":[{"system":"http://terminology.hl7.org/CodeSystem/condition-category","code":"encounter-diagnosis","display":"Encounter Diagnosis"}]}],"code":{"coding":[{"system":"http://hl7.org/fhir/sid/icd-10-cm","code":"I48.20"},{"system":"http://hl7.org/fhir/sid/icd-10-cm","code":"I48.0"},{"system":"http://snomed.info/sct","code":"5370000"}]},"subject":{"reference":"Patient/576c13d6-ee7b-431b-aeb1-edce5f043de2"},"onsetDateTime":"2025-10-01T09:00:00.000Z","abatementDateTime":"2025-10-12T08:15:00.000Z"},"request":{"method":"PUT","url":"Condition/0331194c-c7ad-4875-878a-93631f1822ca"}},{"fullUrl":"https://madie.cms.gov/Encounter/1e6923d4-a5e6-42c9-99a5-db3ba2b30b9d","resource":{"resourceType":"Encounter","id":"1e6923d4-a5e6-42c9-99a5-db3ba2b30b9d","meta":{"profile":["http://hl7.org/fhir/us/qicore/StructureDefinition/qicore-encounter"]},"status":"finished","class":{"system":"http://terminology.hl7.org/CodeSystem/v3-ActCode","code":"OBSENC","display":"observation encounter"},"type":[{"coding":[{"system":"http://snomed.info/sct","code":"448851000124103"}]}],"subject":{"reference":"Patient/576c13d6-ee7b-431b-aeb1-edce5f043de2"},"period":{"start":"2025-10-01T06:00:00.000Z","end":"2025-10-01T09:59:00.000Z"},"length":{"value":0,"unit":"days"}},"request":{"method":"PUT","url":"Encounter/1e6923d4-a5e6-42c9-99a5-db3ba2b30b9d"}},{"fullUrl":"https://madie.cms.gov/Encounter/cca256c9-8409-4b90-9db2-3f1ffef79842","resource":{"resourceType":"Encounter","id":"cca256c9-8409-4b90-9db2-3f1ffef79842","meta":{"profile":["http://hl7.org/fhir/us/qicore/StructureDefinition/qicore-encounter"]},"status":"finished","class":{"system":"http://terminology.hl7.org/CodeSystem/v3-ActCode","code":"IMP","display":"inpatient encounter"},"type":[{"coding":[{"system":"http://snomed.info/sct","code":"32485007"}]}],"subject":{"reference":"Patient/576c13d6-ee7b-431b-aeb1-edce5f043de2"},"period":{"start":"2025-10-01T10:00:00.000Z","end":"2025-10-12T08:15:00.000Z"},"length":{"value":11,"unit":"days"},"diagnosis":[{"condition":{"reference":"Condition/785e47d9-de89-4b7d-a69d-7f39fe9bd5f8"},"use":{"coding":[{"system":"http://terminology.hl7.org/CodeSystem/diagnosis-role","code":"billing","display":"Billing"}]},"rank":1}]},"request":{"method":"PUT","url":"Encounter/cca256c9-8409-4b90-9db2-3f1ffef79842"}},{"fullUrl":"https://madie.cms.gov/ServiceRequest/44c10fa3-b138-4cc4-82c8-998cb1b63da0","resource":{"resourceType":"ServiceRequest","id":"44c10fa3-b138-4cc4-82c8-998cb1b63da0","meta":{"profile":["http://hl7.org/fhir/us/qicore/StructureDefinition/qicore-servicerequest"]},"status":"active","intent":"order","code":{"coding":[{"system":"http://snomed.info/sct","code":"133918004"}]},"subject":{"reference":"Patient/576c13d6-ee7b-431b-aeb1-edce5f043de2"},"authoredOn":"2025-10-03T00:00:00.000+00:00"},"request":{"method":"PUT","url":"ServiceRequest/44c10fa3-b138-4cc4-82c8-998cb1b63da0"}},{"fullUrl":"https://madie.cms.gov/Coverage/b04a4eb3-7ead-40dc-8ed0-e773f9da5717","resource":{"resourceType":"Coverage","id":"b04a4eb3-7ead-40dc-8ed0-e773f9da5717","status":"active","beneficiary":{"reference":"Patient/576c13d6-ee7b-431b-aeb1-edce5f043de2"},"period":{"start":"1985-09-18T08:00:00.000Z"},"payor":[{"reference":"Organization/26111c91-b0e2-476c-a20b-e3f39799f8f5"}]},"request":{"method":"PUT","url":"Coverage/b04a4eb3-7ead-40dc-8ed0-e773f9da5717"}},{"fullUrl":"https://madie.cms.gov/Condition/785e47d9-de89-4b7d-a69d-7f39fe9bd5f8","resource":{"resourceType":"Condition","id":"785e47d9-de89-4b7d-a69d-7f39fe9bd5f8","meta":{"profile":["http://hl7.org/fhir/us/qicore/StructureDefinition/qicore-condition"]},"clinicalStatus":{"coding":[{"system":"http://terminology.hl7.org/CodeSystem/condition-clinical","code":"active"}]},"verificationStatus":{"coding":[{"system":"http://terminology.hl7.org/CodeSystem/condition-ver-status","code":"confirmed"}]},"category":[{"coding":[{"system":"http://terminology.hl7.org/CodeSystem/condition-category","code":"encounter-diagnosis","display":"Encounter Diagnosis"}]}],"code":{"coding":[{"system":"http://snomed.info/sct","version":"2021-09","code":"111297002","display":"Nonparalytic stroke (disorder)","userSelected":true}]},"subject":{"reference":"Patient/576c13d6-ee7b-431b-aeb1-edce5f043de2"},"recordedDate":"2025-10-13T08:00:00.000+00:00"},"request":{"method":"PUT","url":"Condition/785e47d9-de89-4b7d-a69d-7f39fe9bd5f8"}},{"fullUrl":"https://madie.cms.gov/Organization/df5a16d7-d232-41e5-9d4b-8c740335c9af","resource":{"resourceType":"Organization","id":"26111c91-b0e2-476c-a20b-e3f39799f8f5","meta":{"profile":["http://hl7.org/fhir/us/qicore/StructureDefinition/qicore-organization"]},"identifier":[{"use":"temp","system":"urn:oid:2.16.840.1.113883.4.4","value":"21-3259825"}],"active":true,"type":[{"coding":[{"system":"http://terminology.hl7.org/CodeSystem/organization-type","code":"pay","display":"Payer"}]}],"name":"Blue Cross Blue Shield of Texas","telecom":[{"system":"phone","value":"(+1) 972-766-6900"}],"address":[{"use":"billing","type":"postal","line":["P.O. Box 660044"],"city":"Dallas","state":"TX","postalCode":"75266-0044","country":"USA"}]},"request":{"method":"PUT","url":"Organization/26111c91-b0e2-476c-a20b-e3f39799f8f5"}},{"fullUrl":"https://madie.cms.gov/Practitioner/dac13af0-8ddc-4ded-9946-6bb79bd7c42e","resource":{"resourceType":"Practitioner","id":"dac13af0-8ddc-4ded-9946-6bb79bd7c42e","identifier":[{"system":"http://hl7.org/fhir/sid/us-npi","value":"123456"}],"name":[{"family":"Evil","prefix":["Dr"]}]},"request":{"method":"PUT","url":"Practitioner/dac13af0-8ddc-4ded-9946-6bb79bd7c42e"}},{"fullUrl":"https://madie.cms.gov/MeasureReport/044ac3b6-e906-4c69-8042-dbb2da2b0437","resource":{"resourceType":"MeasureReport","id":"044ac3b6-e906-4c69-8042-dbb2da2b0437","meta":{"profile":["http://hl7.org/fhir/us/cqfmeasures/StructureDefinition/test-case-cqfm"]},"contained":[{"resourceType":"Parameters","id":"0c905f43-a6a6-4586-b335-5d7cfabe4578-parameters","parameter":[{"name":"subject","valueString":"576c13d6-ee7b-431b-aeb1-edce5f043de2"}]}],"extension":[{"url":"http://hl7.org/fhir/us/cqfmeasures/StructureDefinition/cqfm-inputParameters","valueReference":{"reference":"#0c905f43-a6a6-4586-b335-5d7cfabe4578-parameters"}},{"url":"http://hl7.org/fhir/us/cqfmeasures/StructureDefinition/cqfm-testCaseDescription","valueMarkdown":"\"Patient receives CMO order during Observation, ED visit ends 1 min. before Obs, Obs ends 1 min before inpatient start. Testing HospitalizationWithObservation function.\n\n\"\n"}],"modifierExtension":[{"url":"http://hl7.org/fhir/us/cqfmeasures/StructureDefinition/cqfm-isTestCase","valueBoolean":true}],"status":"complete","type":"individual","measure":"https://madie.cms.gov/Measure/AnticoagulationTherapyforAtrialFibrillationFlutterFHIR","period":{"start":"2025-01-01","end":"2025-12-31"},"group":[{"population":[{"code":{"coding":[{"system":"http://terminology.hl7.org/CodeSystem/measure-population","code":"initial-population","display":"Initial Population"}]},"count":1},{"code":{"coding":[{"system":"http://terminology.hl7.org/CodeSystem/measure-population","code":"denominator","display":"Denominator"}]},"count":1},{"code":{"coding":[{"system":"http://terminology.hl7.org/CodeSystem/measure-population","code":"denominator-exclusion","display":"Denominator Exclusion"}]},"count":1},{"code":{"coding":[{"system":"http://terminology.hl7.org/CodeSystem/measure-population","code":"numerator","display":"Numerator"}]},"count":0},{"code":{"coding":[{"system":"http://terminology.hl7.org/CodeSystem/measure-population","code":"denominator-exception","display":"Denominator Exception"}]},"count":0}]}]},"request":{"method":"PUT","url":"MeasureReport/044ac3b6-e906-4c69-8042-dbb2da2b0437"}}]}