{"resourceType":"Bundle","id":"tests-31d1dbd5-28cf-49d0-a38d-0c84497c8457-bundle","type":"transaction","entry":[{"fullUrl":"https://madie.cms.gov/Patient/6c3ffb7b-94cc-4447-a95c-7089fdd88767","resource":{"resourceType":"Patient","id":"6c3ffb7b-94cc-4447-a95c-7089fdd88767","meta":{"profile":["http://hl7.org/fhir/us/qicore/StructureDefinition/qicore-patient"]},"text":{"status":"generated","div":"<div xmlns=\"http://www.w3.org/1999/xhtml\"><div class=\"hapiHeaderText\">NoIPEncounter <b>IPPFAIL </b></div><table class=\"hapiPropertyTable\"><tbody><tr><td>Identifier</td><td>946910ea4598e45468b2565ed3cdbc9e</td></tr><tr><td>Date of birth</td><td><span>01 December 1960</span></td></tr></tbody></table></div>"},"extension":[{"url":"http://hl7.org/fhir/us/core/StructureDefinition/us-core-race","extension":[{"url":"ombCategory","valueCoding":{"system":"urn:oid:2.16.840.1.113883.6.238","code":"1002-5","display":"American Indian or Alaska Native","userSelected":true}},{"url":"text","valueString":"American Indian or Alaska Native"}]},{"url":"http://hl7.org/fhir/us/core/StructureDefinition/us-core-ethnicity","extension":[{"url":"ombCategory","valueCoding":{"system":"urn:oid:2.16.840.1.113883.6.238","code":"2135-2","display":"Hispanic or Latino","userSelected":true}},{"url":"text","valueString":"Hispanic or Latino"}]}],"identifier":[{"type":{"coding":[{"system":"http://terminology.hl7.org/CodeSystem/v2-0203","code":"MR"}]},"system":"https://bonnie-fhir.healthit.gov/","value":"633c9d030968f8012250fc6e"}],"active":true,"name":[{"use":"usual","family":"IPPFail","given":["NoIPEncounter"]}],"gender":"male","birthDate":"1960-12-01"},"request":{"method":"PUT","url":"Patient/6c3ffb7b-94cc-4447-a95c-7089fdd88767"}},{"fullUrl":"https://madie.cms.gov/Encounter/bd9c21e7-a7df-46c0-9cc4-d6e462cb3048","resource":{"resourceType":"Encounter","id":"bd9c21e7-a7df-46c0-9cc4-d6e462cb3048","meta":{"profile":["http://hl7.org/fhir/us/qicore/StructureDefinition/qicore-encounter"]},"status":"finished","class":{"system":"http://terminology.hl7.org/CodeSystem/v3-ActCode","code":"EMER","display":"emergency"},"type":[{"coding":[{"system":"http://snomed.info/sct","code":"4525004"}]}],"subject":{"reference":"Patient/6c3ffb7b-94cc-4447-a95c-7089fdd88767"},"period":{"start":"2025-02-08T08:00:00.000Z","end":"2025-02-08T08:15:00.000Z"},"length":{"value":0,"unit":"days"},"diagnosis":[{"condition":{"reference":"Condition/5cf7d378-7619-4a90-bd40-dbc9624c4d57"},"use":{"coding":[{"system":"http://terminology.hl7.org/CodeSystem/diagnosis-role","code":"billing","display":"Billing"}]},"rank":1}]},"request":{"method":"PUT","url":"Encounter/bd9c21e7-a7df-46c0-9cc4-d6e462cb3048"}},{"fullUrl":"https://madie.cms.gov/Coverage/1c58b8b1-e058-4310-8722-bc0d63f1a796","resource":{"resourceType":"Coverage","id":"1c58b8b1-e058-4310-8722-bc0d63f1a796","status":"active","beneficiary":{"reference":"Patient/6c3ffb7b-94cc-4447-a95c-7089fdd88767"},"period":{"start":"1960-12-01T08:00:00.000Z"},"payor":[{"reference":"Organization/26111c91-b0e2-476c-a20b-e3f39799f8f5"}]},"request":{"method":"PUT","url":"Coverage/1c58b8b1-e058-4310-8722-bc0d63f1a796"}},{"fullUrl":"https://madie.cms.gov/Condition/5cf7d378-7619-4a90-bd40-dbc9624c4d57","resource":{"resourceType":"Condition","id":"5cf7d378-7619-4a90-bd40-dbc9624c4d57","meta":{"profile":["http://hl7.org/fhir/us/qicore/StructureDefinition/qicore-condition"]},"clinicalStatus":{"coding":[{"system":"http://terminology.hl7.org/CodeSystem/condition-clinical","code":"active"}]},"verificationStatus":{"coding":[{"system":"http://terminology.hl7.org/CodeSystem/condition-ver-status","code":"confirmed"}]},"category":[{"coding":[{"system":"http://terminology.hl7.org/CodeSystem/condition-category","code":"encounter-diagnosis","display":"Encounter Diagnosis"}]}],"code":{"coding":[{"system":"http://snomed.info/sct","version":"2021-09","code":"111297002","display":"Nonparalytic stroke (disorder)","userSelected":true}]},"subject":{"reference":"Patient/6c3ffb7b-94cc-4447-a95c-7089fdd88767"},"recordedDate":"2025-10-13T08:00:00.000+00:00"},"request":{"method":"PUT","url":"Condition/5cf7d378-7619-4a90-bd40-dbc9624c4d57"}},{"fullUrl":"https://madie.cms.gov/Organization/ae521d21-c453-40f4-a15a-5f4fd7f7c378","resource":{"resourceType":"Organization","id":"26111c91-b0e2-476c-a20b-e3f39799f8f5","meta":{"profile":["http://hl7.org/fhir/us/qicore/StructureDefinition/qicore-organization"]},"identifier":[{"use":"temp","system":"urn:oid:2.16.840.1.113883.4.4","value":"21-3259825"}],"active":true,"type":[{"coding":[{"system":"http://terminology.hl7.org/CodeSystem/organization-type","code":"pay","display":"Payer"}]}],"name":"Blue Cross Blue Shield of Texas","telecom":[{"system":"phone","value":"(+1) 972-766-6900"}],"address":[{"use":"billing","type":"postal","line":["P.O. Box 660044"],"city":"Dallas","state":"TX","postalCode":"75266-0044","country":"USA"}]},"request":{"method":"PUT","url":"Organization/26111c91-b0e2-476c-a20b-e3f39799f8f5"}},{"fullUrl":"https://madie.cms.gov/Practitioner/c662a2d5-2b08-45fb-9a5a-0f162be65943","resource":{"resourceType":"Practitioner","id":"c662a2d5-2b08-45fb-9a5a-0f162be65943","identifier":[{"system":"http://hl7.org/fhir/sid/us-npi","value":"123456"}],"name":[{"family":"Evil","prefix":["Dr"]}]},"request":{"method":"PUT","url":"Practitioner/c662a2d5-2b08-45fb-9a5a-0f162be65943"}},{"fullUrl":"https://madie.cms.gov/MeasureReport/4c938825-3577-4e05-a145-fe84eed4cfc5","resource":{"resourceType":"MeasureReport","id":"4c938825-3577-4e05-a145-fe84eed4cfc5","meta":{"profile":["http://hl7.org/fhir/us/cqfmeasures/StructureDefinition/test-case-cqfm"]},"contained":[{"resourceType":"Parameters","id":"f71eaa1e-9dbf-4f24-a69b-47c4b53677f2-parameters","parameter":[{"name":"subject","valueString":"6c3ffb7b-94cc-4447-a95c-7089fdd88767"}]}],"extension":[{"url":"http://hl7.org/fhir/us/cqfmeasures/StructureDefinition/cqfm-inputParameters","valueReference":{"reference":"#f71eaa1e-9dbf-4f24-a69b-47c4b53677f2-parameters"}},{"url":"http://hl7.org/fhir/us/cqfmeasures/StructureDefinition/cqfm-testCaseDescription","valueMarkdown":"ED visit with Principal Dx = Ischemic Stroke. No inpatient encounter \n"}],"modifierExtension":[{"url":"http://hl7.org/fhir/us/cqfmeasures/StructureDefinition/cqfm-isTestCase","valueBoolean":true}],"status":"complete","type":"individual","measure":"https://madie.cms.gov/Measure/AnticoagulationTherapyforAtrialFibrillationFlutterFHIR","period":{"start":"2025-01-01","end":"2025-12-31"},"group":[{"population":[{"code":{"coding":[{"system":"http://terminology.hl7.org/CodeSystem/measure-population","code":"initial-population","display":"Initial Population"}]},"count":0},{"code":{"coding":[{"system":"http://terminology.hl7.org/CodeSystem/measure-population","code":"denominator","display":"Denominator"}]},"count":0},{"code":{"coding":[{"system":"http://terminology.hl7.org/CodeSystem/measure-population","code":"denominator-exclusion","display":"Denominator Exclusion"}]},"count":0},{"code":{"coding":[{"system":"http://terminology.hl7.org/CodeSystem/measure-population","code":"numerator","display":"Numerator"}]},"count":0},{"code":{"coding":[{"system":"http://terminology.hl7.org/CodeSystem/measure-population","code":"denominator-exception","display":"Denominator Exception"}]},"count":0}]}]},"request":{"method":"PUT","url":"MeasureReport/4c938825-3577-4e05-a145-fe84eed4cfc5"}}]}