{"resourceType":"Bundle","id":"tests-b1d0c606-661d-44e8-a25f-4e7ca8131f2a-bundle","type":"transaction","entry":[{"fullUrl":"https://madie.cms.gov/Patient/29aace03-ed34-44b6-a329-f73d6e594029","resource":{"resourceType":"Patient","id":"29aace03-ed34-44b6-a329-f73d6e594029","meta":{"profile":["http://hl7.org/fhir/us/qicore/StructureDefinition/qicore-patient"]},"text":{"status":"generated","div":"<div xmlns=\"http://www.w3.org/1999/xhtml\"><div class=\"hapiHeaderText\">CMOdurEnc_ED&gt;1hrObs&gt;1hrBFEnc <b>DENEXPASS </b></div><table class=\"hapiPropertyTable\"><tbody><tr><td>Identifier</td><td>46dce2b3319988ed781af0093af5d517</td></tr><tr><td>Date of birth</td><td><span>18 September 1985</span></td></tr></tbody></table></div>"},"extension":[{"url":"http://hl7.org/fhir/us/core/StructureDefinition/us-core-race","extension":[{"url":"ombCategory","valueCoding":{"system":"urn:oid:2.16.840.1.113883.6.238","code":"1002-5","display":"American Indian or Alaska Native","userSelected":true}},{"url":"text","valueString":"American Indian or Alaska Native"}]},{"url":"http://hl7.org/fhir/us/core/StructureDefinition/us-core-ethnicity","extension":[{"url":"ombCategory","valueCoding":{"system":"urn:oid:2.16.840.1.113883.6.238","code":"2135-2","display":"Hispanic or Latino","userSelected":true}},{"url":"text","valueString":"Hispanic or Latino"}]}],"identifier":[{"type":{"coding":[{"system":"http://terminology.hl7.org/CodeSystem/v2-0203","code":"MR"}]},"system":"https://bonnie-fhir.healthit.gov/","value":"633c9d030968f8012250fc9b"}],"active":true,"name":[{"use":"usual","family":"DENEXPass","given":["CMOdurEnc_ED>1hrObs>1hrBFEnc"]}],"gender":"female","birthDate":"1985-09-18"},"request":{"method":"PUT","url":"Patient/29aace03-ed34-44b6-a329-f73d6e594029"}},{"fullUrl":"https://madie.cms.gov/Condition/58ac915d-06f0-4ca4-b8ee-0f5c9949d594","resource":{"resourceType":"Condition","id":"58ac915d-06f0-4ca4-b8ee-0f5c9949d594","meta":{"profile":["http://hl7.org/fhir/us/qicore/StructureDefinition/qicore-condition"]},"clinicalStatus":{"coding":[{"system":"http://terminology.hl7.org/CodeSystem/condition-clinical","code":"inactive"}]},"verificationStatus":{"coding":[{"system":"http://terminology.hl7.org/CodeSystem/condition-ver-status","code":"confirmed"}]},"category":[{"coding":[{"system":"http://terminology.hl7.org/CodeSystem/condition-category","code":"encounter-diagnosis","display":"Encounter Diagnosis"}]}],"code":{"coding":[{"system":"http://hl7.org/fhir/sid/icd-10-cm","code":"I48.20"},{"system":"http://hl7.org/fhir/sid/icd-10-cm","code":"I48.0"},{"system":"http://snomed.info/sct","code":"5370000"}]},"subject":{"reference":"Patient/29aace03-ed34-44b6-a329-f73d6e594029"},"onsetDateTime":"2025-10-01T09:00:00.000Z","abatementDateTime":"2025-10-12T00:15:00.000Z"},"request":{"method":"PUT","url":"Condition/58ac915d-06f0-4ca4-b8ee-0f5c9949d594"}},{"fullUrl":"https://madie.cms.gov/Encounter/1e345663-24e3-4949-8e02-1162e4fe190e","resource":{"resourceType":"Encounter","id":"1e345663-24e3-4949-8e02-1162e4fe190e","meta":{"profile":["http://hl7.org/fhir/us/qicore/StructureDefinition/qicore-encounter"]},"status":"finished","class":{"system":"http://terminology.hl7.org/CodeSystem/v3-ActCode","code":"EMER","display":"emergency"},"type":[{"coding":[{"system":"http://snomed.info/sct","code":"4525004"}]}],"subject":{"reference":"Patient/29aace03-ed34-44b6-a329-f73d6e594029"},"period":{"start":"2025-10-01T07:59:00.000Z","end":"2025-10-01T08:00:00.000Z"},"length":{"value":0,"unit":"days"}},"request":{"method":"PUT","url":"Encounter/1e345663-24e3-4949-8e02-1162e4fe190e"}},{"fullUrl":"https://madie.cms.gov/Encounter/2ad5b90a-36eb-4733-83ae-3781b6348b74","resource":{"resourceType":"Encounter","id":"2ad5b90a-36eb-4733-83ae-3781b6348b74","meta":{"profile":["http://hl7.org/fhir/us/qicore/StructureDefinition/qicore-encounter"]},"status":"finished","class":{"system":"http://terminology.hl7.org/CodeSystem/v3-ActCode","code":"OBSENC","display":"observation encounter"},"type":[{"coding":[{"system":"http://snomed.info/sct","code":"448851000124103"}]}],"subject":{"reference":"Patient/29aace03-ed34-44b6-a329-f73d6e594029"},"period":{"start":"2025-10-01T09:01:00.000Z","end":"2025-10-01T09:30:00.000Z"},"length":{"value":0,"unit":"days"}},"request":{"method":"PUT","url":"Encounter/2ad5b90a-36eb-4733-83ae-3781b6348b74"}},{"fullUrl":"https://madie.cms.gov/Encounter/0c79c722-b60f-4ace-9001-014cd43125f7","resource":{"resourceType":"Encounter","id":"0c79c722-b60f-4ace-9001-014cd43125f7","meta":{"profile":["http://hl7.org/fhir/us/qicore/StructureDefinition/qicore-encounter"]},"status":"finished","class":{"system":"http://terminology.hl7.org/CodeSystem/v3-ActCode","code":"IMP","display":"inpatient encounter"},"type":[{"coding":[{"system":"http://snomed.info/sct","code":"32485007"}]}],"subject":{"reference":"Patient/29aace03-ed34-44b6-a329-f73d6e594029"},"period":{"start":"2025-10-01T10:31:00.000Z","end":"2025-10-12T00:15:00.000Z"},"length":{"value":11,"unit":"days"},"diagnosis":[{"condition":{"reference":"Condition/8f8fd6c6-769e-4bcf-af91-9d2f18df16b1"},"use":{"coding":[{"system":"http://terminology.hl7.org/CodeSystem/diagnosis-role","code":"billing","display":"Billing"}]},"rank":1}]},"request":{"method":"PUT","url":"Encounter/0c79c722-b60f-4ace-9001-014cd43125f7"}},{"fullUrl":"https://madie.cms.gov/ServiceRequest/b7f769e0-7895-4877-b043-8375473c37c4","resource":{"resourceType":"ServiceRequest","id":"b7f769e0-7895-4877-b043-8375473c37c4","meta":{"profile":["http://hl7.org/fhir/us/qicore/StructureDefinition/qicore-servicerequest"]},"status":"active","intent":"order","code":{"coding":[{"system":"http://snomed.info/sct","code":"133918004"}]},"subject":{"reference":"Patient/29aace03-ed34-44b6-a329-f73d6e594029"},"authoredOn":"2025-10-01T11:30:00.000+00:00"},"request":{"method":"PUT","url":"ServiceRequest/b7f769e0-7895-4877-b043-8375473c37c4"}},{"fullUrl":"https://madie.cms.gov/Coverage/370accdd-eeba-4553-a2b8-fa10c5cba408","resource":{"resourceType":"Coverage","id":"370accdd-eeba-4553-a2b8-fa10c5cba408","status":"active","beneficiary":{"reference":"Patient/29aace03-ed34-44b6-a329-f73d6e594029"},"period":{"start":"1985-09-18T08:00:00.000Z"},"payor":[{"reference":"Organization/26111c91-b0e2-476c-a20b-e3f39799f8f5"}]},"request":{"method":"PUT","url":"Coverage/370accdd-eeba-4553-a2b8-fa10c5cba408"}},{"fullUrl":"https://madie.cms.gov/Condition/8f8fd6c6-769e-4bcf-af91-9d2f18df16b1","resource":{"resourceType":"Condition","id":"8f8fd6c6-769e-4bcf-af91-9d2f18df16b1","meta":{"profile":["http://hl7.org/fhir/us/qicore/StructureDefinition/qicore-condition"]},"clinicalStatus":{"coding":[{"system":"http://terminology.hl7.org/CodeSystem/condition-clinical","code":"active"}]},"verificationStatus":{"coding":[{"system":"http://terminology.hl7.org/CodeSystem/condition-ver-status","code":"confirmed"}]},"category":[{"coding":[{"system":"http://terminology.hl7.org/CodeSystem/condition-category","code":"encounter-diagnosis","display":"Encounter Diagnosis"}]}],"code":{"coding":[{"system":"http://snomed.info/sct","version":"2021-09","code":"111297002","display":"Nonparalytic stroke (disorder)","userSelected":true}]},"subject":{"reference":"Patient/29aace03-ed34-44b6-a329-f73d6e594029"},"recordedDate":"2025-10-13T08:00:00.000+00:00"},"request":{"method":"PUT","url":"Condition/8f8fd6c6-769e-4bcf-af91-9d2f18df16b1"}},{"fullUrl":"https://madie.cms.gov/Organization/56afd732-dfd1-46a6-92d2-e40d194ba3ae","resource":{"resourceType":"Organization","id":"26111c91-b0e2-476c-a20b-e3f39799f8f5","meta":{"profile":["http://hl7.org/fhir/us/qicore/StructureDefinition/qicore-organization"]},"identifier":[{"use":"temp","system":"urn:oid:2.16.840.1.113883.4.4","value":"21-3259825"}],"active":true,"type":[{"coding":[{"system":"http://terminology.hl7.org/CodeSystem/organization-type","code":"pay","display":"Payer"}]}],"name":"Blue Cross Blue Shield of Texas","telecom":[{"system":"phone","value":"(+1) 972-766-6900"}],"address":[{"use":"billing","type":"postal","line":["P.O. Box 660044"],"city":"Dallas","state":"TX","postalCode":"75266-0044","country":"USA"}]},"request":{"method":"PUT","url":"Organization/26111c91-b0e2-476c-a20b-e3f39799f8f5"}},{"fullUrl":"https://madie.cms.gov/Practitioner/afea256a-c2a2-416f-b0da-755b8b5a54d3","resource":{"resourceType":"Practitioner","id":"afea256a-c2a2-416f-b0da-755b8b5a54d3","identifier":[{"system":"http://hl7.org/fhir/sid/us-npi","value":"123456"}],"name":[{"family":"Evil","prefix":["Dr"]}]},"request":{"method":"PUT","url":"Practitioner/afea256a-c2a2-416f-b0da-755b8b5a54d3"}},{"fullUrl":"https://madie.cms.gov/MeasureReport/e8b2ba51-c52d-4f99-badf-1b1458895f9c","resource":{"resourceType":"MeasureReport","id":"e8b2ba51-c52d-4f99-badf-1b1458895f9c","meta":{"profile":["http://hl7.org/fhir/us/cqfmeasures/StructureDefinition/test-case-cqfm"]},"contained":[{"resourceType":"Parameters","id":"8ebfc5dd-70b8-4816-97d9-dc859ad187bb-parameters","parameter":[{"name":"subject","valueString":"29aace03-ed34-44b6-a329-f73d6e594029"}]}],"extension":[{"url":"http://hl7.org/fhir/us/cqfmeasures/StructureDefinition/cqfm-inputParameters","valueReference":{"reference":"#8ebfc5dd-70b8-4816-97d9-dc859ad187bb-parameters"}},{"url":"http://hl7.org/fhir/us/cqfmeasures/StructureDefinition/cqfm-testCaseDescription","valueMarkdown":"Patient receives CMO during inpatient encounter. ED ends 61 minutes before Obs start, Obs ends 61 min before inpatient encounter start. Testing HospitalizationWithObservation function.\n"}],"modifierExtension":[{"url":"http://hl7.org/fhir/us/cqfmeasures/StructureDefinition/cqfm-isTestCase","valueBoolean":true}],"status":"complete","type":"individual","measure":"https://madie.cms.gov/Measure/AnticoagulationTherapyforAtrialFibrillationFlutterFHIR","period":{"start":"2025-01-01","end":"2025-12-31"},"group":[{"population":[{"code":{"coding":[{"system":"http://terminology.hl7.org/CodeSystem/measure-population","code":"initial-population","display":"Initial Population"}]},"count":1},{"code":{"coding":[{"system":"http://terminology.hl7.org/CodeSystem/measure-population","code":"denominator","display":"Denominator"}]},"count":1},{"code":{"coding":[{"system":"http://terminology.hl7.org/CodeSystem/measure-population","code":"denominator-exclusion","display":"Denominator Exclusion"}]},"count":1},{"code":{"coding":[{"system":"http://terminology.hl7.org/CodeSystem/measure-population","code":"numerator","display":"Numerator"}]},"count":0},{"code":{"coding":[{"system":"http://terminology.hl7.org/CodeSystem/measure-population","code":"denominator-exception","display":"Denominator Exception"}]},"count":0}]}]},"request":{"method":"PUT","url":"MeasureReport/e8b2ba51-c52d-4f99-badf-1b1458895f9c"}}]}