{"resourceType":"Bundle","id":"tests-cec2b099-7f6d-4260-a2f8-bc0ed0b9c3e5-bundle","type":"transaction","entry":[{"fullUrl":"https://madie.cms.gov/Patient/19af4112-2b67-42fa-af0d-2ddb1e654927","resource":{"resourceType":"Patient","id":"19af4112-2b67-42fa-af0d-2ddb1e654927","meta":{"profile":["http://hl7.org/fhir/us/qicore/StructureDefinition/qicore-patient"]},"text":{"status":"generated","div":"<div xmlns=\"http://www.w3.org/1999/xhtml\"><div class=\"hapiHeaderText\">NoDCstatus <b>DENEXFAIL </b></div><table class=\"hapiPropertyTable\"><tbody><tr><td>Identifier</td><td>a1386c36da1b287caf9fd1b8d75c10d3</td></tr><tr><td>Date of birth</td><td><span>31 July 1969</span></td></tr></tbody></table></div>"},"extension":[{"url":"http://hl7.org/fhir/us/core/StructureDefinition/us-core-race","extension":[{"url":"ombCategory","valueCoding":{"system":"urn:oid:2.16.840.1.113883.6.238","code":"1002-5","display":"American Indian or Alaska Native","userSelected":true}},{"url":"text","valueString":"American Indian or Alaska Native"}]},{"url":"http://hl7.org/fhir/us/core/StructureDefinition/us-core-ethnicity","extension":[{"url":"ombCategory","valueCoding":{"system":"urn:oid:2.16.840.1.113883.6.238","code":"2135-2","display":"Hispanic or Latino","userSelected":true}},{"url":"text","valueString":"Hispanic or Latino"}]}],"identifier":[{"type":{"coding":[{"system":"http://terminology.hl7.org/CodeSystem/v2-0203","code":"MR"}]},"system":"https://bonnie-fhir.healthit.gov/","value":"633c9d020968f8012250fc67"}],"active":true,"name":[{"use":"usual","family":"DENEXFail","given":["NoDCstatus"]}],"gender":"male","birthDate":"1969-07-31"},"request":{"method":"PUT","url":"Patient/19af4112-2b67-42fa-af0d-2ddb1e654927"}},{"fullUrl":"https://madie.cms.gov/Encounter/b21ccbdc-f42f-41e6-b9f4-490785cbcd02","resource":{"resourceType":"Encounter","id":"b21ccbdc-f42f-41e6-b9f4-490785cbcd02","meta":{"profile":["http://hl7.org/fhir/us/qicore/StructureDefinition/qicore-encounter"]},"status":"finished","class":{"system":"http://terminology.hl7.org/CodeSystem/v3-ActCode","code":"EMER","display":"emergency"},"type":[{"coding":[{"system":"http://snomed.info/sct","code":"4525004"}]}],"subject":{"reference":"Patient/19af4112-2b67-42fa-af0d-2ddb1e654927"},"period":{"start":"2025-11-20T07:00:00.000Z","end":"2025-11-20T07:45:00.000Z"},"length":{"value":0,"unit":"days"}},"request":{"method":"PUT","url":"Encounter/b21ccbdc-f42f-41e6-b9f4-490785cbcd02"}},{"fullUrl":"https://madie.cms.gov/Encounter/de8aa0f1-d5f5-4c1d-b812-3fc07d73488a","resource":{"resourceType":"Encounter","id":"de8aa0f1-d5f5-4c1d-b812-3fc07d73488a","meta":{"profile":["http://hl7.org/fhir/us/qicore/StructureDefinition/qicore-encounter"]},"status":"finished","class":{"system":"http://terminology.hl7.org/CodeSystem/v3-ActCode","code":"IMP","display":"inpatient encounter"},"type":[{"coding":[{"system":"http://snomed.info/sct","code":"32485007"}]}],"subject":{"reference":"Patient/19af4112-2b67-42fa-af0d-2ddb1e654927"},"period":{"start":"2025-11-20T08:00:00.000Z","end":"2025-11-24T08:15:00.000Z"},"length":{"value":4,"unit":"days"},"diagnosis":[{"condition":{"reference":"Condition/6f8beb9d-f826-4149-a38b-ce92539bb9d2"},"use":{"coding":[{"system":"http://terminology.hl7.org/CodeSystem/diagnosis-role","code":"billing","display":"Billing"}]},"rank":1}]},"request":{"method":"PUT","url":"Encounter/de8aa0f1-d5f5-4c1d-b812-3fc07d73488a"}},{"fullUrl":"https://madie.cms.gov/Coverage/2c904f13-ee02-4128-b628-49ce802ec328","resource":{"resourceType":"Coverage","id":"2c904f13-ee02-4128-b628-49ce802ec328","status":"active","beneficiary":{"reference":"Patient/19af4112-2b67-42fa-af0d-2ddb1e654927"},"period":{"start":"1969-07-31T08:00:00.000Z"},"payor":[{"reference":"Organization/26111c91-b0e2-476c-a20b-e3f39799f8f5"}]},"request":{"method":"PUT","url":"Coverage/2c904f13-ee02-4128-b628-49ce802ec328"}},{"fullUrl":"https://madie.cms.gov/Procedure/753d1d22-2f74-4f50-b582-af4de2550b48","resource":{"resourceType":"Procedure","id":"753d1d22-2f74-4f50-b582-af4de2550b48","meta":{"profile":["http://hl7.org/fhir/us/qicore/StructureDefinition/qicore-procedure"]},"extension":[{"url":"http://hl7.org/fhir/us/qicore/StructureDefinition/qicore-recorded","valueDateTime":"2025-11-19T09:35:00-04:00"}],"status":"completed","code":{"coding":[{"system":"http://www.cms.gov/Medicare/Coding/ICD10","code":"02560ZZ"},{"system":"http://snomed.info/sct","code":"175095005"}]},"subject":{"reference":"Patient/19af4112-2b67-42fa-af0d-2ddb1e654927"},"performedPeriod":{"start":"2025-11-19T08:00:00.000Z","end":"2025-11-20T08:15:00.000Z"}},"request":{"method":"PUT","url":"Procedure/753d1d22-2f74-4f50-b582-af4de2550b48"}},{"fullUrl":"https://madie.cms.gov/Condition/6f8beb9d-f826-4149-a38b-ce92539bb9d2","resource":{"resourceType":"Condition","id":"6f8beb9d-f826-4149-a38b-ce92539bb9d2","meta":{"profile":["http://hl7.org/fhir/us/qicore/StructureDefinition/qicore-condition"]},"clinicalStatus":{"coding":[{"system":"http://terminology.hl7.org/CodeSystem/condition-clinical","code":"active"}]},"verificationStatus":{"coding":[{"system":"http://terminology.hl7.org/CodeSystem/condition-ver-status","code":"confirmed"}]},"category":[{"coding":[{"system":"http://terminology.hl7.org/CodeSystem/condition-category","code":"encounter-diagnosis","display":"Encounter Diagnosis"}]}],"code":{"coding":[{"system":"http://snomed.info/sct","version":"2021-09","code":"111297002","display":"Nonparalytic stroke (disorder)","userSelected":true}]},"subject":{"reference":"Patient/19af4112-2b67-42fa-af0d-2ddb1e654927"},"recordedDate":"2025-10-13T08:00:00.000+00:00"},"request":{"method":"PUT","url":"Condition/6f8beb9d-f826-4149-a38b-ce92539bb9d2"}},{"fullUrl":"https://madie.cms.gov/Organization/0fd53b36-4095-407b-ab6e-b075201a895d","resource":{"resourceType":"Organization","id":"26111c91-b0e2-476c-a20b-e3f39799f8f5","meta":{"profile":["http://hl7.org/fhir/us/qicore/StructureDefinition/qicore-organization"]},"identifier":[{"use":"temp","system":"urn:oid:2.16.840.1.113883.4.4","value":"21-3259825"}],"active":true,"type":[{"coding":[{"system":"http://terminology.hl7.org/CodeSystem/organization-type","code":"pay","display":"Payer"}]}],"name":"Blue Cross Blue Shield of Texas","telecom":[{"system":"phone","value":"(+1) 972-766-6900"}],"address":[{"use":"billing","type":"postal","line":["P.O. Box 660044"],"city":"Dallas","state":"TX","postalCode":"75266-0044","country":"USA"}]},"request":{"method":"PUT","url":"Organization/26111c91-b0e2-476c-a20b-e3f39799f8f5"}},{"fullUrl":"https://madie.cms.gov/Practitioner/d2818ed9-b341-4169-8b55-b3970e42e0bc","resource":{"resourceType":"Practitioner","id":"d2818ed9-b341-4169-8b55-b3970e42e0bc","identifier":[{"system":"http://hl7.org/fhir/sid/us-npi","value":"123456"}],"name":[{"family":"Evil","prefix":["Dr"]}]},"request":{"method":"PUT","url":"Practitioner/d2818ed9-b341-4169-8b55-b3970e42e0bc"}},{"fullUrl":"https://madie.cms.gov/MeasureReport/6f88ef16-1ccc-4e58-899b-4c4ea6a16f3d","resource":{"resourceType":"MeasureReport","id":"6f88ef16-1ccc-4e58-899b-4c4ea6a16f3d","meta":{"profile":["http://hl7.org/fhir/us/cqfmeasures/StructureDefinition/test-case-cqfm"]},"contained":[{"resourceType":"Parameters","id":"466d5ccf-04dc-40ff-ac7c-890e75f1cc3c-parameters","parameter":[{"name":"subject","valueString":"19af4112-2b67-42fa-af0d-2ddb1e654927"}]}],"extension":[{"url":"http://hl7.org/fhir/us/cqfmeasures/StructureDefinition/cqfm-inputParameters","valueReference":{"reference":"#466d5ccf-04dc-40ff-ac7c-890e75f1cc3c-parameters"}},{"url":"http://hl7.org/fhir/us/cqfmeasures/StructureDefinition/cqfm-testCaseDescription","valueMarkdown":"No discharge status indicated. Testing DENEX logic (intentional fail). \n"}],"modifierExtension":[{"url":"http://hl7.org/fhir/us/cqfmeasures/StructureDefinition/cqfm-isTestCase","valueBoolean":true}],"status":"complete","type":"individual","measure":"https://madie.cms.gov/Measure/AnticoagulationTherapyforAtrialFibrillationFlutterFHIR","period":{"start":"2025-01-01","end":"2025-12-31"},"group":[{"population":[{"code":{"coding":[{"system":"http://terminology.hl7.org/CodeSystem/measure-population","code":"initial-population","display":"Initial Population"}]},"count":1},{"code":{"coding":[{"system":"http://terminology.hl7.org/CodeSystem/measure-population","code":"denominator","display":"Denominator"}]},"count":1},{"code":{"coding":[{"system":"http://terminology.hl7.org/CodeSystem/measure-population","code":"denominator-exclusion","display":"Denominator Exclusion"}]},"count":0},{"code":{"coding":[{"system":"http://terminology.hl7.org/CodeSystem/measure-population","code":"numerator","display":"Numerator"}]},"count":0},{"code":{"coding":[{"system":"http://terminology.hl7.org/CodeSystem/measure-population","code":"denominator-exception","display":"Denominator Exception"}]},"count":0}]}]},"request":{"method":"PUT","url":"MeasureReport/6f88ef16-1ccc-4e58-899b-4c4ea6a16f3d"}}]}