{"resourceType":"Bundle","id":"tests-12f5363d-fa3f-4a61-aad9-defc8583ca12-bundle","type":"transaction","entry":[{"fullUrl":"https://madie.cms.gov/Patient/7fd3aafc-98de-4182-a8cc-1828a8a84931","resource":{"resourceType":"Patient","id":"7fd3aafc-98de-4182-a8cc-1828a8a84931","meta":{"profile":["http://hl7.org/fhir/us/qicore/StructureDefinition/qicore-patient"]},"text":{"status":"generated","div":"<div xmlns=\"http://www.w3.org/1999/xhtml\"><div class=\"hapiHeaderText\">CMOdurED_ED=1hrNoObsBFEnc <b>DENEXPASS </b></div><table class=\"hapiPropertyTable\"><tbody><tr><td>Identifier</td><td>670854918483ca8b7894283bd5cddbcf5037c5392991b8777bf3c4f78ed05f0b</td></tr><tr><td>Date of birth</td><td><span>18 September 1985</span></td></tr></tbody></table></div>"},"extension":[{"url":"http://hl7.org/fhir/us/core/StructureDefinition/us-core-race","extension":[{"url":"ombCategory","valueCoding":{"system":"urn:oid:2.16.840.1.113883.6.238","code":"1002-5","display":"American Indian or Alaska Native","userSelected":true}},{"url":"text","valueString":"American Indian or Alaska Native"}]},{"url":"http://hl7.org/fhir/us/core/StructureDefinition/us-core-ethnicity","extension":[{"url":"ombCategory","valueCoding":{"system":"urn:oid:2.16.840.1.113883.6.238","code":"2135-2","display":"Hispanic or Latino","userSelected":true}},{"url":"text","valueString":"Hispanic or Latino"}]}],"identifier":[{"type":{"coding":[{"system":"http://terminology.hl7.org/CodeSystem/v2-0203","code":"MR"}]},"system":"https://bonnie-fhir.healthit.gov/","value":"633c9d040968f8012250fca3"}],"active":true,"name":[{"use":"usual","family":"DENEXPass","given":["CMOdurED_ED=1hrNoObsBFEnc"]}],"gender":"female","birthDate":"1985-09-18"},"request":{"method":"PUT","url":"Patient/7fd3aafc-98de-4182-a8cc-1828a8a84931"}},{"fullUrl":"https://madie.cms.gov/Condition/f21a6794-a713-42cf-ab29-8f5f06a1f021","resource":{"resourceType":"Condition","id":"f21a6794-a713-42cf-ab29-8f5f06a1f021","meta":{"profile":["http://hl7.org/fhir/us/qicore/StructureDefinition/qicore-condition"]},"clinicalStatus":{"coding":[{"system":"http://terminology.hl7.org/CodeSystem/condition-clinical","code":"inactive"}]},"verificationStatus":{"coding":[{"system":"http://terminology.hl7.org/CodeSystem/condition-ver-status","code":"confirmed"}]},"category":[{"coding":[{"system":"http://terminology.hl7.org/CodeSystem/condition-category","code":"encounter-diagnosis","display":"Encounter Diagnosis"}]}],"code":{"coding":[{"system":"http://hl7.org/fhir/sid/icd-10-cm","code":"I48.20"},{"system":"http://hl7.org/fhir/sid/icd-10-cm","code":"I48.0"},{"system":"http://snomed.info/sct","code":"5370000"}]},"subject":{"reference":"Patient/7fd3aafc-98de-4182-a8cc-1828a8a84931"},"onsetDateTime":"2025-10-01T09:01:00.000Z","abatementDateTime":"2025-10-12T00:15:00.000Z"},"request":{"method":"PUT","url":"Condition/f21a6794-a713-42cf-ab29-8f5f06a1f021"}},{"fullUrl":"https://madie.cms.gov/Encounter/94c97392-1d6d-4c99-8ff4-dc39c9e80e75","resource":{"resourceType":"Encounter","id":"94c97392-1d6d-4c99-8ff4-dc39c9e80e75","meta":{"profile":["http://hl7.org/fhir/us/qicore/StructureDefinition/qicore-encounter"]},"status":"finished","class":{"system":"http://terminology.hl7.org/CodeSystem/v3-ActCode","code":"EMER","display":"emergency"},"type":[{"coding":[{"system":"http://snomed.info/sct","code":"4525004"}]}],"subject":{"reference":"Patient/7fd3aafc-98de-4182-a8cc-1828a8a84931"},"period":{"start":"2025-10-01T09:01:00.000Z","end":"2025-10-01T12:15:00.000Z"},"length":{"value":0,"unit":"days"}},"request":{"method":"PUT","url":"Encounter/94c97392-1d6d-4c99-8ff4-dc39c9e80e75"}},{"fullUrl":"https://madie.cms.gov/Encounter/ffc22b15-4fc4-42ed-aa75-a7cbb62ebb85","resource":{"resourceType":"Encounter","id":"ffc22b15-4fc4-42ed-aa75-a7cbb62ebb85","meta":{"profile":["http://hl7.org/fhir/us/qicore/StructureDefinition/qicore-encounter"]},"status":"finished","class":{"system":"http://terminology.hl7.org/CodeSystem/v3-ActCode","code":"IMP","display":"inpatient encounter"},"type":[{"coding":[{"system":"http://snomed.info/sct","code":"32485007"}]}],"subject":{"reference":"Patient/7fd3aafc-98de-4182-a8cc-1828a8a84931"},"period":{"start":"2025-10-01T13:15:00.000Z","end":"2025-10-12T00:15:00.000Z"},"length":{"value":11,"unit":"days"},"diagnosis":[{"condition":{"reference":"Condition/add33385-0106-44a7-bdf7-026783cdde6c"},"use":{"coding":[{"system":"http://terminology.hl7.org/CodeSystem/diagnosis-role","code":"billing","display":"Billing"}]},"rank":1}]},"request":{"method":"PUT","url":"Encounter/ffc22b15-4fc4-42ed-aa75-a7cbb62ebb85"}},{"fullUrl":"https://madie.cms.gov/ServiceRequest/65add9a3-0e82-4d4e-bf1b-2350048c03e6","resource":{"resourceType":"ServiceRequest","id":"65add9a3-0e82-4d4e-bf1b-2350048c03e6","meta":{"profile":["http://hl7.org/fhir/us/qicore/StructureDefinition/qicore-servicerequest"]},"status":"active","intent":"order","code":{"coding":[{"system":"http://snomed.info/sct","code":"133918004"}]},"subject":{"reference":"Patient/7fd3aafc-98de-4182-a8cc-1828a8a84931"},"authoredOn":"2025-10-01T09:15:00.000+00:00"},"request":{"method":"PUT","url":"ServiceRequest/65add9a3-0e82-4d4e-bf1b-2350048c03e6"}},{"fullUrl":"https://madie.cms.gov/Coverage/f46b1780-9ce6-4422-a31d-b41dea980e68","resource":{"resourceType":"Coverage","id":"f46b1780-9ce6-4422-a31d-b41dea980e68","status":"active","beneficiary":{"reference":"Patient/7fd3aafc-98de-4182-a8cc-1828a8a84931"},"period":{"start":"1985-09-18T08:00:00.000Z"},"payor":[{"reference":"Organization/26111c91-b0e2-476c-a20b-e3f39799f8f5"}]},"request":{"method":"PUT","url":"Coverage/f46b1780-9ce6-4422-a31d-b41dea980e68"}},{"fullUrl":"https://madie.cms.gov/Condition/add33385-0106-44a7-bdf7-026783cdde6c","resource":{"resourceType":"Condition","id":"add33385-0106-44a7-bdf7-026783cdde6c","meta":{"profile":["http://hl7.org/fhir/us/qicore/StructureDefinition/qicore-condition"]},"clinicalStatus":{"coding":[{"system":"http://terminology.hl7.org/CodeSystem/condition-clinical","code":"active"}]},"verificationStatus":{"coding":[{"system":"http://terminology.hl7.org/CodeSystem/condition-ver-status","code":"confirmed"}]},"category":[{"coding":[{"system":"http://terminology.hl7.org/CodeSystem/condition-category","code":"encounter-diagnosis","display":"Encounter Diagnosis"}]}],"code":{"coding":[{"system":"http://snomed.info/sct","version":"2021-09","code":"111297002","display":"Nonparalytic stroke (disorder)","userSelected":true}]},"subject":{"reference":"Patient/7fd3aafc-98de-4182-a8cc-1828a8a84931"},"recordedDate":"2025-10-13T08:00:00.000+00:00"},"request":{"method":"PUT","url":"Condition/add33385-0106-44a7-bdf7-026783cdde6c"}},{"fullUrl":"https://madie.cms.gov/Organization/3ef38fc2-9b22-431d-ac9d-5310a1422bb9","resource":{"resourceType":"Organization","id":"26111c91-b0e2-476c-a20b-e3f39799f8f5","meta":{"profile":["http://hl7.org/fhir/us/qicore/StructureDefinition/qicore-organization"]},"identifier":[{"use":"temp","system":"urn:oid:2.16.840.1.113883.4.4","value":"21-3259825"}],"active":true,"type":[{"coding":[{"system":"http://terminology.hl7.org/CodeSystem/organization-type","code":"pay","display":"Payer"}]}],"name":"Blue Cross Blue Shield of Texas","telecom":[{"system":"phone","value":"(+1) 972-766-6900"}],"address":[{"use":"billing","type":"postal","line":["P.O. Box 660044"],"city":"Dallas","state":"TX","postalCode":"75266-0044","country":"USA"}]},"request":{"method":"PUT","url":"Organization/26111c91-b0e2-476c-a20b-e3f39799f8f5"}},{"fullUrl":"https://madie.cms.gov/Practitioner/10b69266-07e4-423e-884b-cc9650d6d31f","resource":{"resourceType":"Practitioner","id":"10b69266-07e4-423e-884b-cc9650d6d31f","identifier":[{"system":"http://hl7.org/fhir/sid/us-npi","value":"123456"}],"name":[{"family":"Evil","prefix":["Dr"]}]},"request":{"method":"PUT","url":"Practitioner/10b69266-07e4-423e-884b-cc9650d6d31f"}},{"fullUrl":"https://madie.cms.gov/MeasureReport/8e41e5f0-8834-4ff0-83b5-729cd68b5e1a","resource":{"resourceType":"MeasureReport","id":"8e41e5f0-8834-4ff0-83b5-729cd68b5e1a","meta":{"profile":["http://hl7.org/fhir/us/cqfmeasures/StructureDefinition/test-case-cqfm"]},"contained":[{"resourceType":"Parameters","id":"9f818949-5ab9-43eb-b349-86ff30498874-parameters","parameter":[{"name":"subject","valueString":"7fd3aafc-98de-4182-a8cc-1828a8a84931"}]}],"extension":[{"url":"http://hl7.org/fhir/us/cqfmeasures/StructureDefinition/cqfm-inputParameters","valueReference":{"reference":"#9f818949-5ab9-43eb-b349-86ff30498874-parameters"}},{"url":"http://hl7.org/fhir/us/cqfmeasures/StructureDefinition/cqfm-testCaseDescription","valueMarkdown":"\"Patient receives CMO during ED. ED ends 60 min before Inpatient start. No Observation. Testing day HospitalizationWithObservation function\n\"\n"}],"modifierExtension":[{"url":"http://hl7.org/fhir/us/cqfmeasures/StructureDefinition/cqfm-isTestCase","valueBoolean":true}],"status":"complete","type":"individual","measure":"https://madie.cms.gov/Measure/AnticoagulationTherapyforAtrialFibrillationFlutterFHIR","period":{"start":"2025-01-01","end":"2025-12-31"},"group":[{"population":[{"code":{"coding":[{"system":"http://terminology.hl7.org/CodeSystem/measure-population","code":"initial-population","display":"Initial Population"}]},"count":1},{"code":{"coding":[{"system":"http://terminology.hl7.org/CodeSystem/measure-population","code":"denominator","display":"Denominator"}]},"count":1},{"code":{"coding":[{"system":"http://terminology.hl7.org/CodeSystem/measure-population","code":"denominator-exclusion","display":"Denominator Exclusion"}]},"count":1},{"code":{"coding":[{"system":"http://terminology.hl7.org/CodeSystem/measure-population","code":"numerator","display":"Numerator"}]},"count":0},{"code":{"coding":[{"system":"http://terminology.hl7.org/CodeSystem/measure-population","code":"denominator-exception","display":"Denominator Exception"}]},"count":0}]}]},"request":{"method":"PUT","url":"MeasureReport/8e41e5f0-8834-4ff0-83b5-729cd68b5e1a"}}]}