{"resourceType":"Bundle","id":"tests-acdea97f-8a2e-4aa3-b51f-768c5ad5ead8-bundle","type":"transaction","entry":[{"fullUrl":"https://madie.cms.gov/Patient/1a31c88f-84ac-411f-b061-11c0efa5c9d7","resource":{"resourceType":"Patient","id":"1a31c88f-84ac-411f-b061-11c0efa5c9d7","meta":{"profile":["http://hl7.org/fhir/us/qicore/StructureDefinition/qicore-patient"]},"text":{"status":"generated","div":"<div xmlns=\"http://www.w3.org/1999/xhtml\"><div class=\"hapiHeaderText\">DCtoICU <b>DENEXFAIL </b></div><table class=\"hapiPropertyTable\"><tbody><tr><td>Identifier</td><td>a1386c36da1b287caf9fd1b8d75c10d3</td></tr><tr><td>Date of birth</td><td><span>31 July 1969</span></td></tr></tbody></table></div>"},"extension":[{"url":"http://hl7.org/fhir/us/core/StructureDefinition/us-core-race","extension":[{"url":"ombCategory","valueCoding":{"system":"urn:oid:2.16.840.1.113883.6.238","code":"1002-5","display":"American Indian or Alaska Native","userSelected":true}},{"url":"text","valueString":"American Indian or Alaska Native"}]},{"url":"http://hl7.org/fhir/us/core/StructureDefinition/us-core-ethnicity","extension":[{"url":"ombCategory","valueCoding":{"system":"urn:oid:2.16.840.1.113883.6.238","code":"2135-2","display":"Hispanic or Latino","userSelected":true}},{"url":"text","valueString":"Hispanic or Latino"}]}],"identifier":[{"type":{"coding":[{"system":"http://terminology.hl7.org/CodeSystem/v2-0203","code":"MR"}]},"system":"https://bonnie-fhir.healthit.gov/","value":"633c9d040968f8012250fcac"}],"active":true,"name":[{"use":"usual","family":"DENEXFail","given":["DCtoICU"]}],"gender":"male","birthDate":"1969-07-31"},"request":{"method":"PUT","url":"Patient/1a31c88f-84ac-411f-b061-11c0efa5c9d7"}},{"fullUrl":"https://madie.cms.gov/Encounter/d2d4be0d-6f5f-49dc-8177-cdfb582098c3","resource":{"resourceType":"Encounter","id":"d2d4be0d-6f5f-49dc-8177-cdfb582098c3","meta":{"profile":["http://hl7.org/fhir/us/qicore/StructureDefinition/qicore-encounter"]},"status":"finished","class":{"system":"http://terminology.hl7.org/CodeSystem/v3-ActCode","code":"EMER","display":"emergency"},"type":[{"coding":[{"system":"http://snomed.info/sct","code":"4525004"}]}],"subject":{"reference":"Patient/1a31c88f-84ac-411f-b061-11c0efa5c9d7"},"period":{"start":"2025-11-20T07:00:00.000Z","end":"2025-11-20T07:45:00.000Z"},"length":{"value":0,"unit":"days"}},"request":{"method":"PUT","url":"Encounter/d2d4be0d-6f5f-49dc-8177-cdfb582098c3"}},{"fullUrl":"https://madie.cms.gov/Encounter/4bb630fb-651f-4992-a856-155e06f7fe4b","resource":{"resourceType":"Encounter","id":"4bb630fb-651f-4992-a856-155e06f7fe4b","meta":{"profile":["http://hl7.org/fhir/us/qicore/StructureDefinition/qicore-encounter"]},"status":"finished","class":{"system":"http://terminology.hl7.org/CodeSystem/v3-ActCode","code":"IMP","display":"inpatient encounter"},"type":[{"coding":[{"system":"http://snomed.info/sct","code":"32485007"}]}],"subject":{"reference":"Patient/1a31c88f-84ac-411f-b061-11c0efa5c9d7"},"period":{"start":"2025-11-20T08:00:00.000Z","end":"2025-11-24T08:15:00.000Z"},"length":{"value":4,"unit":"days"},"diagnosis":[{"condition":{"reference":"Condition/fe2666e6-426f-4d03-b890-4a1346104820"},"use":{"coding":[{"system":"http://terminology.hl7.org/CodeSystem/diagnosis-role","code":"billing","display":"Billing"}]},"rank":1}],"hospitalization":{"dischargeDisposition":{"coding":[{"system":"http://cts.nlm.nih.gov/fhir/cs/hsloc","code":"1025-6","display":"Trauma Critical Care"}]}}},"request":{"method":"PUT","url":"Encounter/4bb630fb-651f-4992-a856-155e06f7fe4b"}},{"fullUrl":"https://madie.cms.gov/Coverage/e0857e51-a34e-45ee-9487-3d14d4199959","resource":{"resourceType":"Coverage","id":"e0857e51-a34e-45ee-9487-3d14d4199959","status":"active","beneficiary":{"reference":"Patient/1a31c88f-84ac-411f-b061-11c0efa5c9d7"},"period":{"start":"1969-07-31T08:00:00.000Z"},"payor":[{"reference":"Organization/26111c91-b0e2-476c-a20b-e3f39799f8f5"}]},"request":{"method":"PUT","url":"Coverage/e0857e51-a34e-45ee-9487-3d14d4199959"}},{"fullUrl":"https://madie.cms.gov/Procedure/356d2116-9a39-407d-bd2f-b33e4ae68106","resource":{"resourceType":"Procedure","id":"356d2116-9a39-407d-bd2f-b33e4ae68106","meta":{"profile":["http://hl7.org/fhir/us/qicore/StructureDefinition/qicore-procedure"]},"extension":[{"url":"http://hl7.org/fhir/us/qicore/StructureDefinition/qicore-recorded","valueDateTime":"2025-11-19T09:35:00-04:00"}],"status":"completed","code":{"coding":[{"system":"http://www.cms.gov/Medicare/Coding/ICD10","code":"02560ZZ"},{"system":"http://snomed.info/sct","code":"175095005"}]},"subject":{"reference":"Patient/1a31c88f-84ac-411f-b061-11c0efa5c9d7"},"performedPeriod":{"start":"2025-11-19T08:00:00.000Z","end":"2025-11-20T08:15:00.000Z"}},"request":{"method":"PUT","url":"Procedure/356d2116-9a39-407d-bd2f-b33e4ae68106"}},{"fullUrl":"https://madie.cms.gov/Condition/fe2666e6-426f-4d03-b890-4a1346104820","resource":{"resourceType":"Condition","id":"fe2666e6-426f-4d03-b890-4a1346104820","meta":{"profile":["http://hl7.org/fhir/us/qicore/StructureDefinition/qicore-condition"]},"clinicalStatus":{"coding":[{"system":"http://terminology.hl7.org/CodeSystem/condition-clinical","code":"active"}]},"verificationStatus":{"coding":[{"system":"http://terminology.hl7.org/CodeSystem/condition-ver-status","code":"confirmed"}]},"category":[{"coding":[{"system":"http://terminology.hl7.org/CodeSystem/condition-category","code":"encounter-diagnosis","display":"Encounter Diagnosis"}]}],"code":{"coding":[{"system":"http://snomed.info/sct","version":"2021-09","code":"111297002","display":"Nonparalytic stroke (disorder)","userSelected":true}]},"subject":{"reference":"Patient/1a31c88f-84ac-411f-b061-11c0efa5c9d7"},"recordedDate":"2025-10-13T08:00:00.000+00:00"},"request":{"method":"PUT","url":"Condition/fe2666e6-426f-4d03-b890-4a1346104820"}},{"fullUrl":"https://madie.cms.gov/Organization/f4f3151d-01e8-41a0-a29f-211bfe5b893b","resource":{"resourceType":"Organization","id":"26111c91-b0e2-476c-a20b-e3f39799f8f5","meta":{"profile":["http://hl7.org/fhir/us/qicore/StructureDefinition/qicore-organization"]},"identifier":[{"use":"temp","system":"urn:oid:2.16.840.1.113883.4.4","value":"21-3259825"}],"active":true,"type":[{"coding":[{"system":"http://terminology.hl7.org/CodeSystem/organization-type","code":"pay","display":"Payer"}]}],"name":"Blue Cross Blue Shield of Texas","telecom":[{"system":"phone","value":"(+1) 972-766-6900"}],"address":[{"use":"billing","type":"postal","line":["P.O. Box 660044"],"city":"Dallas","state":"TX","postalCode":"75266-0044","country":"USA"}]},"request":{"method":"PUT","url":"Organization/26111c91-b0e2-476c-a20b-e3f39799f8f5"}},{"fullUrl":"https://madie.cms.gov/Practitioner/4e420c31-5cd8-43d1-82c1-6ef6ce927f8a","resource":{"resourceType":"Practitioner","id":"4e420c31-5cd8-43d1-82c1-6ef6ce927f8a","identifier":[{"system":"http://hl7.org/fhir/sid/us-npi","value":"123456"}],"name":[{"family":"Evil","prefix":["Dr"]}]},"request":{"method":"PUT","url":"Practitioner/4e420c31-5cd8-43d1-82c1-6ef6ce927f8a"}},{"fullUrl":"https://madie.cms.gov/MeasureReport/02549975-0c9c-4943-ad7f-cc819525f1ee","resource":{"resourceType":"MeasureReport","id":"02549975-0c9c-4943-ad7f-cc819525f1ee","meta":{"profile":["http://hl7.org/fhir/us/cqfmeasures/StructureDefinition/test-case-cqfm"]},"contained":[{"resourceType":"Parameters","id":"30539ff1-2bad-4b12-8683-7df62c6f00a9-parameters","parameter":[{"name":"subject","valueString":"1a31c88f-84ac-411f-b061-11c0efa5c9d7"}]}],"extension":[{"url":"http://hl7.org/fhir/us/cqfmeasures/StructureDefinition/cqfm-inputParameters","valueReference":{"reference":"#30539ff1-2bad-4b12-8683-7df62c6f00a9-parameters"}},{"url":"http://hl7.org/fhir/us/cqfmeasures/StructureDefinition/cqfm-testCaseDescription","valueMarkdown":"No discharge status indicated. Testing DENEX logic (intentional fail) with disposition to ICD\n"}],"modifierExtension":[{"url":"http://hl7.org/fhir/us/cqfmeasures/StructureDefinition/cqfm-isTestCase","valueBoolean":true}],"status":"complete","type":"individual","measure":"https://madie.cms.gov/Measure/AnticoagulationTherapyforAtrialFibrillationFlutterFHIR","period":{"start":"2025-01-01","end":"2025-12-31"},"group":[{"population":[{"code":{"coding":[{"system":"http://terminology.hl7.org/CodeSystem/measure-population","code":"initial-population","display":"Initial Population"}]},"count":1},{"code":{"coding":[{"system":"http://terminology.hl7.org/CodeSystem/measure-population","code":"denominator","display":"Denominator"}]},"count":1},{"code":{"coding":[{"system":"http://terminology.hl7.org/CodeSystem/measure-population","code":"denominator-exclusion","display":"Denominator Exclusion"}]},"count":0},{"code":{"coding":[{"system":"http://terminology.hl7.org/CodeSystem/measure-population","code":"numerator","display":"Numerator"}]},"count":0},{"code":{"coding":[{"system":"http://terminology.hl7.org/CodeSystem/measure-population","code":"denominator-exception","display":"Denominator Exception"}]},"count":0}]}]},"request":{"method":"PUT","url":"MeasureReport/02549975-0c9c-4943-ad7f-cc819525f1ee"}}]}