{"resourceType":"Bundle","id":"tests-f0d3eb0e-a93c-4caf-8233-499a105906de-bundle","type":"transaction","entry":[{"fullUrl":"https://madie.cms.gov/Patient/255e01f6-897e-45f8-b9af-5f27f208451c","resource":{"resourceType":"Patient","id":"255e01f6-897e-45f8-b9af-5f27f208451c","meta":{"profile":["http://hl7.org/fhir/us/qicore/StructureDefinition/qicore-patient"]},"text":{"status":"generated","div":"<div xmlns=\"http://www.w3.org/1999/xhtml\"><div class=\"hapiHeaderText\">DischargeFacilityHospice <b>DENEXPASS </b></div><table class=\"hapiPropertyTable\"><tbody><tr><td>Identifier</td><td>86442f6b546c921f8332256ec26a4c93</td></tr><tr><td>Date of birth</td><td><span>31 July 1969</span></td></tr></tbody></table></div>"},"extension":[{"url":"http://hl7.org/fhir/us/core/StructureDefinition/us-core-race","extension":[{"url":"ombCategory","valueCoding":{"system":"urn:oid:2.16.840.1.113883.6.238","code":"1002-5","display":"American Indian or Alaska Native","userSelected":true}},{"url":"text","valueString":"American Indian or Alaska Native"}]},{"url":"http://hl7.org/fhir/us/core/StructureDefinition/us-core-ethnicity","extension":[{"url":"ombCategory","valueCoding":{"system":"urn:oid:2.16.840.1.113883.6.238","code":"2135-2","display":"Hispanic or Latino","userSelected":true}},{"url":"text","valueString":"Hispanic or Latino"}]}],"identifier":[{"type":{"coding":[{"system":"http://terminology.hl7.org/CodeSystem/v2-0203","code":"MR"}]},"system":"https://bonnie-fhir.healthit.gov/","value":"633c9d020968f8012250fc69"}],"active":true,"name":[{"use":"usual","family":"DENEXPass","given":["DischargeFacilityHospice"]}],"gender":"male","birthDate":"1969-07-31"},"request":{"method":"PUT","url":"Patient/255e01f6-897e-45f8-b9af-5f27f208451c"}},{"fullUrl":"https://madie.cms.gov/Encounter/18b67bcf-3499-4621-90c4-3a2dce5a8d2f","resource":{"resourceType":"Encounter","id":"18b67bcf-3499-4621-90c4-3a2dce5a8d2f","meta":{"profile":["http://hl7.org/fhir/us/qicore/StructureDefinition/qicore-encounter"]},"status":"finished","class":{"system":"http://terminology.hl7.org/CodeSystem/v3-ActCode","code":"IMP","display":"inpatient encounter"},"type":[{"coding":[{"system":"http://snomed.info/sct","code":"32485007"}]}],"subject":{"reference":"Patient/255e01f6-897e-45f8-b9af-5f27f208451c"},"period":{"start":"2025-11-20T08:00:00.000Z","end":"2025-11-24T08:15:00.000Z"},"length":{"value":4,"unit":"days"},"diagnosis":[{"condition":{"reference":"Condition/5c6bfc4d-599f-43a7-bcc4-ef05abbf3212"},"use":{"coding":[{"system":"http://terminology.hl7.org/CodeSystem/diagnosis-role","code":"billing","display":"Billing"}]},"rank":1}],"hospitalization":{"dischargeDisposition":{"coding":[{"system":"http://snomed.info/sct","code":"428371000124100","display":"Discharged to Health Care Facility for Hospice Care"}]}}},"request":{"method":"PUT","url":"Encounter/18b67bcf-3499-4621-90c4-3a2dce5a8d2f"}},{"fullUrl":"https://madie.cms.gov/Coverage/6bd02c96-0443-49ef-99a9-9fab77f6dce6","resource":{"resourceType":"Coverage","id":"6bd02c96-0443-49ef-99a9-9fab77f6dce6","status":"active","beneficiary":{"reference":"Patient/255e01f6-897e-45f8-b9af-5f27f208451c"},"period":{"start":"1969-07-31T08:00:00.000Z"},"payor":[{"reference":"Organization/26111c91-b0e2-476c-a20b-e3f39799f8f5"}]},"request":{"method":"PUT","url":"Coverage/6bd02c96-0443-49ef-99a9-9fab77f6dce6"}},{"fullUrl":"https://madie.cms.gov/Procedure/e3d53358-4b85-491b-af0f-3396b05e5158","resource":{"resourceType":"Procedure","id":"e3d53358-4b85-491b-af0f-3396b05e5158","meta":{"profile":["http://hl7.org/fhir/us/qicore/StructureDefinition/qicore-procedure"]},"extension":[{"url":"http://hl7.org/fhir/us/qicore/StructureDefinition/qicore-recorded","valueDateTime":"2025-11-19T09:35:00-04:00"}],"status":"completed","code":{"coding":[{"system":"http://www.cms.gov/Medicare/Coding/ICD10","code":"02560ZZ"},{"system":"http://snomed.info/sct","code":"175095005"}]},"subject":{"reference":"Patient/255e01f6-897e-45f8-b9af-5f27f208451c"},"performedPeriod":{"start":"2025-11-19T08:00:00.000Z","end":"2025-11-20T08:15:00.000Z"}},"request":{"method":"PUT","url":"Procedure/e3d53358-4b85-491b-af0f-3396b05e5158"}},{"fullUrl":"https://madie.cms.gov/Condition/5c6bfc4d-599f-43a7-bcc4-ef05abbf3212","resource":{"resourceType":"Condition","id":"5c6bfc4d-599f-43a7-bcc4-ef05abbf3212","meta":{"profile":["http://hl7.org/fhir/us/qicore/StructureDefinition/qicore-condition"]},"clinicalStatus":{"coding":[{"system":"http://terminology.hl7.org/CodeSystem/condition-clinical","code":"active"}]},"verificationStatus":{"coding":[{"system":"http://terminology.hl7.org/CodeSystem/condition-ver-status","code":"confirmed"}]},"category":[{"coding":[{"system":"http://terminology.hl7.org/CodeSystem/condition-category","code":"encounter-diagnosis","display":"Encounter Diagnosis"}]}],"code":{"coding":[{"system":"http://snomed.info/sct","version":"2021-09","code":"111297002","display":"Nonparalytic stroke (disorder)","userSelected":true}]},"subject":{"reference":"Patient/255e01f6-897e-45f8-b9af-5f27f208451c"},"recordedDate":"2025-10-13T08:00:00.000+00:00"},"request":{"method":"PUT","url":"Condition/5c6bfc4d-599f-43a7-bcc4-ef05abbf3212"}},{"fullUrl":"https://madie.cms.gov/Organization/fbb43dad-f084-4d43-ab85-9bfb5094baf3","resource":{"resourceType":"Organization","id":"26111c91-b0e2-476c-a20b-e3f39799f8f5","meta":{"profile":["http://hl7.org/fhir/us/qicore/StructureDefinition/qicore-organization"]},"identifier":[{"use":"temp","system":"urn:oid:2.16.840.1.113883.4.4","value":"21-3259825"}],"active":true,"type":[{"coding":[{"system":"http://terminology.hl7.org/CodeSystem/organization-type","code":"pay","display":"Payer"}]}],"name":"Blue Cross Blue Shield of Texas","telecom":[{"system":"phone","value":"(+1) 972-766-6900"}],"address":[{"use":"billing","type":"postal","line":["P.O. Box 660044"],"city":"Dallas","state":"TX","postalCode":"75266-0044","country":"USA"}]},"request":{"method":"PUT","url":"Organization/26111c91-b0e2-476c-a20b-e3f39799f8f5"}},{"fullUrl":"https://madie.cms.gov/Practitioner/80d8dba0-2ec7-459b-9d7b-b033c833f93d","resource":{"resourceType":"Practitioner","id":"80d8dba0-2ec7-459b-9d7b-b033c833f93d","identifier":[{"system":"http://hl7.org/fhir/sid/us-npi","value":"123456"}],"name":[{"family":"Evil","prefix":["Dr"]}]},"request":{"method":"PUT","url":"Practitioner/80d8dba0-2ec7-459b-9d7b-b033c833f93d"}},{"fullUrl":"https://madie.cms.gov/MeasureReport/48b065ef-8843-4dde-b39f-b98c4bb9c1df","resource":{"resourceType":"MeasureReport","id":"48b065ef-8843-4dde-b39f-b98c4bb9c1df","meta":{"profile":["http://hl7.org/fhir/us/cqfmeasures/StructureDefinition/test-case-cqfm"]},"contained":[{"resourceType":"Parameters","id":"1ad4ceee-5504-4ccb-b0f3-954d6db1d1fe-parameters","parameter":[{"name":"subject","valueString":"255e01f6-897e-45f8-b9af-5f27f208451c"}]}],"extension":[{"url":"http://hl7.org/fhir/us/cqfmeasures/StructureDefinition/cqfm-inputParameters","valueReference":{"reference":"#1ad4ceee-5504-4ccb-b0f3-954d6db1d1fe-parameters"}},{"url":"http://hl7.org/fhir/us/cqfmeasures/StructureDefinition/cqfm-testCaseDescription","valueMarkdown":"Discharge to health care facility for hospice.\n"}],"modifierExtension":[{"url":"http://hl7.org/fhir/us/cqfmeasures/StructureDefinition/cqfm-isTestCase","valueBoolean":true}],"status":"complete","type":"individual","measure":"https://madie.cms.gov/Measure/AnticoagulationTherapyforAtrialFibrillationFlutterFHIR","period":{"start":"2025-01-01","end":"2025-12-31"},"group":[{"population":[{"code":{"coding":[{"system":"http://terminology.hl7.org/CodeSystem/measure-population","code":"initial-population","display":"Initial Population"}]},"count":1},{"code":{"coding":[{"system":"http://terminology.hl7.org/CodeSystem/measure-population","code":"denominator","display":"Denominator"}]},"count":1},{"code":{"coding":[{"system":"http://terminology.hl7.org/CodeSystem/measure-population","code":"denominator-exclusion","display":"Denominator Exclusion"}]},"count":1},{"code":{"coding":[{"system":"http://terminology.hl7.org/CodeSystem/measure-population","code":"numerator","display":"Numerator"}]},"count":0},{"code":{"coding":[{"system":"http://terminology.hl7.org/CodeSystem/measure-population","code":"denominator-exception","display":"Denominator Exception"}]},"count":0}]}]},"request":{"method":"PUT","url":"MeasureReport/48b065ef-8843-4dde-b39f-b98c4bb9c1df"}}]}