{"resourceType":"Bundle","id":"tests-e695d66d-1f4e-4b69-acad-0861f1222d44-bundle","type":"transaction","entry":[{"fullUrl":"https://madie.cms.gov/Patient/ce3211b2-1b94-4eaf-b326-88cedbc072f7","resource":{"resourceType":"Patient","id":"ce3211b2-1b94-4eaf-b326-88cedbc072f7","meta":{"profile":["http://hl7.org/fhir/us/qicore/StructureDefinition/qicore-patient"]},"text":{"status":"generated","div":"<div xmlns=\"http://www.w3.org/1999/xhtml\"><div class=\"hapiHeaderText\">ProcAtrialAblB4EncDateTime <b>DENOMPASS </b></div><table class=\"hapiPropertyTable\"><tbody><tr><td>Identifier</td><td>1ebc7a8ec0c65913b7018969c7b50ead</td></tr><tr><td>Date of birth</td><td><span>01 December 1960</span></td></tr></tbody></table></div>"},"extension":[{"url":"http://hl7.org/fhir/us/core/StructureDefinition/us-core-race","extension":[{"url":"ombCategory","valueCoding":{"system":"urn:oid:2.16.840.1.113883.6.238","code":"1002-5","display":"American Indian or Alaska Native","userSelected":true}},{"url":"text","valueString":"American Indian or Alaska Native"}]},{"url":"http://hl7.org/fhir/us/core/StructureDefinition/us-core-ethnicity","extension":[{"url":"ombCategory","valueCoding":{"system":"urn:oid:2.16.840.1.113883.6.238","code":"2135-2","display":"Hispanic or Latino","userSelected":true}},{"url":"text","valueString":"Hispanic or Latino"}]}],"identifier":[{"type":{"coding":[{"system":"http://terminology.hl7.org/CodeSystem/v2-0203","code":"MR"}]},"system":"https://bonnie-fhir.healthit.gov/","value":"633c9d040968f8012250fcb2"}],"active":true,"name":[{"use":"usual","family":"DENOMPass","given":["ProcAtrialAblB4EncDateTime"]}],"gender":"male","birthDate":"1960-12-01"},"request":{"method":"PUT","url":"Patient/ce3211b2-1b94-4eaf-b326-88cedbc072f7"}},{"fullUrl":"https://madie.cms.gov/Encounter/499dde8b-3438-4e9d-8854-ece53f8d5ff6","resource":{"resourceType":"Encounter","id":"499dde8b-3438-4e9d-8854-ece53f8d5ff6","meta":{"profile":["http://hl7.org/fhir/us/qicore/StructureDefinition/qicore-encounter"]},"status":"finished","class":{"system":"http://terminology.hl7.org/CodeSystem/v3-ActCode","code":"IMP","display":"inpatient encounter"},"type":[{"coding":[{"system":"http://snomed.info/sct","code":"32485007"}]}],"subject":{"reference":"Patient/ce3211b2-1b94-4eaf-b326-88cedbc072f7"},"period":{"start":"2025-02-08T08:00:00.000Z","end":"2025-02-10T08:15:00.000Z"},"length":{"value":2,"unit":"days"},"diagnosis":[{"condition":{"reference":"Condition/f5a393cd-1c59-4b3f-b267-9a18ff07d33c"},"use":{"coding":[{"system":"http://terminology.hl7.org/CodeSystem/diagnosis-role","code":"billing","display":"Billing"}]},"rank":1}]},"request":{"method":"PUT","url":"Encounter/499dde8b-3438-4e9d-8854-ece53f8d5ff6"}},{"fullUrl":"https://madie.cms.gov/Coverage/cf8a9cb9-0cbf-4b02-a53c-dd5391826168","resource":{"resourceType":"Coverage","id":"cf8a9cb9-0cbf-4b02-a53c-dd5391826168","status":"active","beneficiary":{"reference":"Patient/ce3211b2-1b94-4eaf-b326-88cedbc072f7"},"period":{"start":"1960-12-01T08:00:00.000Z"},"payor":[{"reference":"Organization/26111c91-b0e2-476c-a20b-e3f39799f8f5"}]},"request":{"method":"PUT","url":"Coverage/cf8a9cb9-0cbf-4b02-a53c-dd5391826168"}},{"fullUrl":"https://madie.cms.gov/Procedure/b5d5e45f-fbab-410a-a22b-f612fe994fb3","resource":{"resourceType":"Procedure","id":"b5d5e45f-fbab-410a-a22b-f612fe994fb3","meta":{"profile":["http://hl7.org/fhir/us/qicore/StructureDefinition/qicore-procedure"]},"extension":[{"url":"http://hl7.org/fhir/us/qicore/StructureDefinition/qicore-recorded","valueDateTime":"2025-11-19T09:35:00-04:00"}],"status":"completed","code":{"coding":[{"system":"http://www.cms.gov/Medicare/Coding/ICD10","code":"02560ZZ"},{"system":"http://snomed.info/sct","code":"175095005"}]},"subject":{"reference":"Patient/ce3211b2-1b94-4eaf-b326-88cedbc072f7"},"performedDateTime":"2025-02-08T07:59:00.000+00:00"},"request":{"method":"PUT","url":"Procedure/b5d5e45f-fbab-410a-a22b-f612fe994fb3"}},{"fullUrl":"https://madie.cms.gov/Condition/f5a393cd-1c59-4b3f-b267-9a18ff07d33c","resource":{"resourceType":"Condition","id":"f5a393cd-1c59-4b3f-b267-9a18ff07d33c","meta":{"profile":["http://hl7.org/fhir/us/qicore/StructureDefinition/qicore-condition"]},"clinicalStatus":{"coding":[{"system":"http://terminology.hl7.org/CodeSystem/condition-clinical","code":"active"}]},"verificationStatus":{"coding":[{"system":"http://terminology.hl7.org/CodeSystem/condition-ver-status","code":"confirmed"}]},"category":[{"coding":[{"system":"http://terminology.hl7.org/CodeSystem/condition-category","code":"encounter-diagnosis","display":"Encounter Diagnosis"}]}],"code":{"coding":[{"system":"http://snomed.info/sct","version":"2021-09","code":"111297002","display":"Nonparalytic stroke (disorder)","userSelected":true}]},"subject":{"reference":"Patient/ce3211b2-1b94-4eaf-b326-88cedbc072f7"},"recordedDate":"2025-10-13T08:00:00.000+00:00"},"request":{"method":"PUT","url":"Condition/f5a393cd-1c59-4b3f-b267-9a18ff07d33c"}},{"fullUrl":"https://madie.cms.gov/Organization/7dbf0a23-e661-40b7-b944-0a1f8b562d0d","resource":{"resourceType":"Organization","id":"26111c91-b0e2-476c-a20b-e3f39799f8f5","meta":{"profile":["http://hl7.org/fhir/us/qicore/StructureDefinition/qicore-organization"]},"identifier":[{"use":"temp","system":"urn:oid:2.16.840.1.113883.4.4","value":"21-3259825"}],"active":true,"type":[{"coding":[{"system":"http://terminology.hl7.org/CodeSystem/organization-type","code":"pay","display":"Payer"}]}],"name":"Blue Cross Blue Shield of Texas","telecom":[{"system":"phone","value":"(+1) 972-766-6900"}],"address":[{"use":"billing","type":"postal","line":["P.O. Box 660044"],"city":"Dallas","state":"TX","postalCode":"75266-0044","country":"USA"}]},"request":{"method":"PUT","url":"Organization/26111c91-b0e2-476c-a20b-e3f39799f8f5"}},{"fullUrl":"https://madie.cms.gov/Practitioner/1410666c-92d3-4f9c-8251-42857d57737f","resource":{"resourceType":"Practitioner","id":"1410666c-92d3-4f9c-8251-42857d57737f","identifier":[{"system":"http://hl7.org/fhir/sid/us-npi","value":"123456"}],"name":[{"family":"Evil","prefix":["Dr"]}]},"request":{"method":"PUT","url":"Practitioner/1410666c-92d3-4f9c-8251-42857d57737f"}},{"fullUrl":"https://madie.cms.gov/MeasureReport/a889338c-2c6a-4ff0-905f-1b2bd67b113e","resource":{"resourceType":"MeasureReport","id":"a889338c-2c6a-4ff0-905f-1b2bd67b113e","meta":{"profile":["http://hl7.org/fhir/us/cqfmeasures/StructureDefinition/test-case-cqfm"]},"contained":[{"resourceType":"Parameters","id":"3995db08-fc79-4a42-a326-3b8d4d7e1151-parameters","parameter":[{"name":"subject","valueString":"ce3211b2-1b94-4eaf-b326-88cedbc072f7"}]}],"extension":[{"url":"http://hl7.org/fhir/us/cqfmeasures/StructureDefinition/cqfm-inputParameters","valueReference":{"reference":"#3995db08-fc79-4a42-a326-3b8d4d7e1151-parameters"}},{"url":"http://hl7.org/fhir/us/cqfmeasures/StructureDefinition/cqfm-testCaseDescription","valueMarkdown":"Proc performed Atrial Ablation starts before start of OccA by 1 minutes\n"}],"modifierExtension":[{"url":"http://hl7.org/fhir/us/cqfmeasures/StructureDefinition/cqfm-isTestCase","valueBoolean":true}],"status":"complete","type":"individual","measure":"https://madie.cms.gov/Measure/AnticoagulationTherapyforAtrialFibrillationFlutterFHIR","period":{"start":"2025-01-01","end":"2025-12-31"},"group":[{"population":[{"code":{"coding":[{"system":"http://terminology.hl7.org/CodeSystem/measure-population","code":"initial-population","display":"Initial Population"}]},"count":1},{"code":{"coding":[{"system":"http://terminology.hl7.org/CodeSystem/measure-population","code":"denominator","display":"Denominator"}]},"count":1},{"code":{"coding":[{"system":"http://terminology.hl7.org/CodeSystem/measure-population","code":"denominator-exclusion","display":"Denominator Exclusion"}]},"count":0},{"code":{"coding":[{"system":"http://terminology.hl7.org/CodeSystem/measure-population","code":"numerator","display":"Numerator"}]},"count":0},{"code":{"coding":[{"system":"http://terminology.hl7.org/CodeSystem/measure-population","code":"denominator-exception","display":"Denominator Exception"}]},"count":0}]}]},"request":{"method":"PUT","url":"MeasureReport/a889338c-2c6a-4ff0-905f-1b2bd67b113e"}}]}