{"resourceType":"Bundle","id":"tests-e73134ce-ad08-430e-b85e-d61e2d28d709-bundle","type":"transaction","entry":[{"fullUrl":"https://madie.cms.gov/Patient/fef35f51-89af-4555-b5b6-18e36fe9b567","resource":{"resourceType":"Patient","id":"fef35f51-89af-4555-b5b6-18e36fe9b567","meta":{"profile":["http://hl7.org/fhir/us/qicore/StructureDefinition/qicore-patient"]},"text":{"status":"generated","div":"<div xmlns=\"http://www.w3.org/1999/xhtml\"><div class=\"hapiHeaderText\">MedDCAnticoaStartsGT_EncEnd <b>NUMERFAIL </b></div><table class=\"hapiPropertyTable\"><tbody><tr><td>Identifier</td><td>6d1b15cdbf79b36506189ad344ceb30d</td></tr><tr><td>Date of birth</td><td><span>23 May 1954</span></td></tr></tbody></table></div>"},"extension":[{"url":"http://hl7.org/fhir/us/core/StructureDefinition/us-core-race","extension":[{"url":"ombCategory","valueCoding":{"system":"urn:oid:2.16.840.1.113883.6.238","code":"1002-5","display":"American Indian or Alaska Native","userSelected":true}},{"url":"text","valueString":"American Indian or Alaska Native"}]},{"url":"http://hl7.org/fhir/us/core/StructureDefinition/us-core-ethnicity","extension":[{"url":"ombCategory","valueCoding":{"system":"urn:oid:2.16.840.1.113883.6.238","code":"2135-2","display":"Hispanic or Latino","userSelected":true}},{"url":"text","valueString":"Hispanic or Latino"}]}],"identifier":[{"type":{"coding":[{"system":"http://terminology.hl7.org/CodeSystem/v2-0203","code":"MR"}]},"system":"https://bonnie-fhir.healthit.gov/","value":"633c9d030968f8012250fc8d"}],"active":true,"name":[{"use":"usual","family":"NUMERFail","given":["MedDCAnticoaStartsGT_EncEnd"]}],"gender":"female","birthDate":"1954-05-23"},"request":{"method":"PUT","url":"Patient/fef35f51-89af-4555-b5b6-18e36fe9b567"}},{"fullUrl":"https://madie.cms.gov/Encounter/4aba5f00-d8d1-4ac0-a60e-b365c0b9d8de","resource":{"resourceType":"Encounter","id":"4aba5f00-d8d1-4ac0-a60e-b365c0b9d8de","meta":{"profile":["http://hl7.org/fhir/us/qicore/StructureDefinition/qicore-encounter"]},"status":"finished","class":{"system":"http://terminology.hl7.org/CodeSystem/v3-ActCode","code":"IMP","display":"inpatient encounter"},"type":[{"coding":[{"system":"http://snomed.info/sct","code":"32485007"}]}],"subject":{"reference":"Patient/fef35f51-89af-4555-b5b6-18e36fe9b567"},"period":{"start":"2025-11-20T08:00:00.000Z","end":"2025-11-24T08:15:00.000Z"},"length":{"value":4,"unit":"days"},"diagnosis":[{"condition":{"reference":"Condition/e86edb9c-c8bb-4f65-a897-950a1e6e9195"},"use":{"coding":[{"system":"http://terminology.hl7.org/CodeSystem/diagnosis-role","code":"billing","display":"Billing"}]},"rank":1}]},"request":{"method":"PUT","url":"Encounter/4aba5f00-d8d1-4ac0-a60e-b365c0b9d8de"}},{"fullUrl":"https://madie.cms.gov/MedicationRequest/84285b0a-eb03-4b27-bf81-6ce4cf16a0d4","resource":{"resourceType":"MedicationRequest","id":"84285b0a-eb03-4b27-bf81-6ce4cf16a0d4","meta":{"profile":["http://hl7.org/fhir/us/qicore/StructureDefinition/qicore-medicationrequest"]},"status":"active","intent":"order","medicationCodeableConcept":{"coding":[{"system":"http://www.nlm.nih.gov/research/umls/rxnorm","code":"1037045"}]},"subject":{"reference":"Patient/fef35f51-89af-4555-b5b6-18e36fe9b567"},"authoredOn":"2025-11-24T08:16:00.000+00:00","requester":{"reference":"Practitioner/example"}},"request":{"method":"PUT","url":"MedicationRequest/84285b0a-eb03-4b27-bf81-6ce4cf16a0d4"}},{"fullUrl":"https://madie.cms.gov/Coverage/aece9446-115f-4d02-a4ae-ffef51d2a675","resource":{"resourceType":"Coverage","id":"aece9446-115f-4d02-a4ae-ffef51d2a675","status":"active","beneficiary":{"reference":"Patient/fef35f51-89af-4555-b5b6-18e36fe9b567"},"period":{"start":"1954-05-23T08:00:00.000Z"},"payor":[{"reference":"Organization/26111c91-b0e2-476c-a20b-e3f39799f8f5"}]},"request":{"method":"PUT","url":"Coverage/aece9446-115f-4d02-a4ae-ffef51d2a675"}},{"fullUrl":"https://madie.cms.gov/Procedure/9c680696-f17d-4197-aa69-2677d4a12e59","resource":{"resourceType":"Procedure","id":"9c680696-f17d-4197-aa69-2677d4a12e59","meta":{"profile":["http://hl7.org/fhir/us/qicore/StructureDefinition/qicore-procedure"]},"extension":[{"url":"http://hl7.org/fhir/us/qicore/StructureDefinition/qicore-recorded","valueDateTime":"2025-11-19T09:35:00-04:00"}],"status":"completed","code":{"coding":[{"system":"http://www.cms.gov/Medicare/Coding/ICD10","code":"02560ZZ"},{"system":"http://snomed.info/sct","code":"175095005"}]},"subject":{"reference":"Patient/fef35f51-89af-4555-b5b6-18e36fe9b567"},"performedPeriod":{"start":"2025-11-20T06:00:00.000Z","end":"2025-11-20T07:15:00.000Z"}},"request":{"method":"PUT","url":"Procedure/9c680696-f17d-4197-aa69-2677d4a12e59"}},{"fullUrl":"https://madie.cms.gov/Condition/e86edb9c-c8bb-4f65-a897-950a1e6e9195","resource":{"resourceType":"Condition","id":"e86edb9c-c8bb-4f65-a897-950a1e6e9195","meta":{"profile":["http://hl7.org/fhir/us/qicore/StructureDefinition/qicore-condition"]},"clinicalStatus":{"coding":[{"system":"http://terminology.hl7.org/CodeSystem/condition-clinical","code":"active"}]},"verificationStatus":{"coding":[{"system":"http://terminology.hl7.org/CodeSystem/condition-ver-status","code":"confirmed"}]},"category":[{"coding":[{"system":"http://terminology.hl7.org/CodeSystem/condition-category","code":"encounter-diagnosis","display":"Encounter Diagnosis"}]}],"code":{"coding":[{"system":"http://snomed.info/sct","version":"2021-09","code":"111297002","display":"Nonparalytic stroke (disorder)","userSelected":true}]},"subject":{"reference":"Patient/fef35f51-89af-4555-b5b6-18e36fe9b567"},"recordedDate":"2025-10-13T08:00:00.000+00:00"},"request":{"method":"PUT","url":"Condition/e86edb9c-c8bb-4f65-a897-950a1e6e9195"}},{"fullUrl":"https://madie.cms.gov/Organization/3d03e05d-90a6-47f6-ad92-366831ce6605","resource":{"resourceType":"Organization","id":"26111c91-b0e2-476c-a20b-e3f39799f8f5","meta":{"profile":["http://hl7.org/fhir/us/qicore/StructureDefinition/qicore-organization"]},"identifier":[{"use":"temp","system":"urn:oid:2.16.840.1.113883.4.4","value":"21-3259825"}],"active":true,"type":[{"coding":[{"system":"http://terminology.hl7.org/CodeSystem/organization-type","code":"pay","display":"Payer"}]}],"name":"Blue Cross Blue Shield of Texas","telecom":[{"system":"phone","value":"(+1) 972-766-6900"}],"address":[{"use":"billing","type":"postal","line":["P.O. Box 660044"],"city":"Dallas","state":"TX","postalCode":"75266-0044","country":"USA"}]},"request":{"method":"PUT","url":"Organization/26111c91-b0e2-476c-a20b-e3f39799f8f5"}},{"fullUrl":"https://madie.cms.gov/Practitioner/a0542679-8b74-45fb-a94a-849282112488","resource":{"resourceType":"Practitioner","id":"a0542679-8b74-45fb-a94a-849282112488","identifier":[{"system":"http://hl7.org/fhir/sid/us-npi","value":"123456"}],"name":[{"family":"Evil","prefix":["Dr"]}]},"request":{"method":"PUT","url":"Practitioner/a0542679-8b74-45fb-a94a-849282112488"}},{"fullUrl":"https://madie.cms.gov/MeasureReport/3030e14a-efb9-40e0-bc2f-54de27d09c32","resource":{"resourceType":"MeasureReport","id":"3030e14a-efb9-40e0-bc2f-54de27d09c32","meta":{"profile":["http://hl7.org/fhir/us/cqfmeasures/StructureDefinition/test-case-cqfm"]},"contained":[{"resourceType":"Parameters","id":"33740d5a-a983-42b8-bc11-843dbbd0cebd-parameters","parameter":[{"name":"subject","valueString":"fef35f51-89af-4555-b5b6-18e36fe9b567"}]}],"extension":[{"url":"http://hl7.org/fhir/us/cqfmeasures/StructureDefinition/cqfm-inputParameters","valueReference":{"reference":"#33740d5a-a983-42b8-bc11-843dbbd0cebd-parameters"}},{"url":"http://hl7.org/fhir/us/cqfmeasures/StructureDefinition/cqfm-testCaseDescription","valueMarkdown":"Pt. discharged on anticoagulant, starts after OccurA\n"}],"modifierExtension":[{"url":"http://hl7.org/fhir/us/cqfmeasures/StructureDefinition/cqfm-isTestCase","valueBoolean":true}],"status":"complete","type":"individual","measure":"https://madie.cms.gov/Measure/AnticoagulationTherapyforAtrialFibrillationFlutterFHIR","period":{"start":"2025-01-01","end":"2025-12-31"},"group":[{"population":[{"code":{"coding":[{"system":"http://terminology.hl7.org/CodeSystem/measure-population","code":"initial-population","display":"Initial Population"}]},"count":1},{"code":{"coding":[{"system":"http://terminology.hl7.org/CodeSystem/measure-population","code":"denominator","display":"Denominator"}]},"count":1},{"code":{"coding":[{"system":"http://terminology.hl7.org/CodeSystem/measure-population","code":"denominator-exclusion","display":"Denominator Exclusion"}]},"count":0},{"code":{"coding":[{"system":"http://terminology.hl7.org/CodeSystem/measure-population","code":"numerator","display":"Numerator"}]},"count":0},{"code":{"coding":[{"system":"http://terminology.hl7.org/CodeSystem/measure-population","code":"denominator-exception","display":"Denominator Exception"}]},"count":0}]}]},"request":{"method":"PUT","url":"MeasureReport/3030e14a-efb9-40e0-bc2f-54de27d09c32"}}]}