{"resourceType":"Bundle","id":"tests-56ae006d-ab1b-428d-8614-2ccd5d962650-bundle","type":"transaction","entry":[{"fullUrl":"https://madie.cms.gov/Patient/1ee6da1d-f2a4-4f00-a28a-3566e34b27ad","resource":{"resourceType":"Patient","id":"1ee6da1d-f2a4-4f00-a28a-3566e34b27ad","meta":{"profile":["http://hl7.org/fhir/us/qicore/StructureDefinition/qicore-patient"]},"text":{"status":"generated","div":"<div xmlns=\"http://www.w3.org/1999/xhtml\"><div class=\"hapiHeaderText\">MedDCAnticoaStartTmEQEncAdmTm <b>NUMERPASS </b></div><table class=\"hapiPropertyTable\"><tbody><tr><td>Identifier</td><td>31fcea6cd6f0c1c8b9c40622729fede7</td></tr><tr><td>Date of birth</td><td><span>23 May 1954</span></td></tr></tbody></table></div>"},"extension":[{"url":"http://hl7.org/fhir/us/core/StructureDefinition/us-core-race","extension":[{"url":"ombCategory","valueCoding":{"system":"urn:oid:2.16.840.1.113883.6.238","code":"1002-5","display":"American Indian or Alaska Native","userSelected":true}},{"url":"text","valueString":"American Indian or Alaska Native"}]},{"url":"http://hl7.org/fhir/us/core/StructureDefinition/us-core-ethnicity","extension":[{"url":"ombCategory","valueCoding":{"system":"urn:oid:2.16.840.1.113883.6.238","code":"2135-2","display":"Hispanic or Latino","userSelected":true}},{"url":"text","valueString":"Hispanic or Latino"}]}],"identifier":[{"type":{"coding":[{"system":"http://terminology.hl7.org/CodeSystem/v2-0203","code":"MR"}]},"system":"https://bonnie-fhir.healthit.gov/","value":"633c9d030968f8012250fc93"}],"active":true,"name":[{"use":"usual","family":"NUMERPass","given":["MedDCAnticoaStartTmEQEncAdmTm"]}],"gender":"female","birthDate":"1954-05-23"},"request":{"method":"PUT","url":"Patient/1ee6da1d-f2a4-4f00-a28a-3566e34b27ad"}},{"fullUrl":"https://madie.cms.gov/Condition/435e42c0-79ca-468d-927e-e60760bcb129","resource":{"resourceType":"Condition","id":"435e42c0-79ca-468d-927e-e60760bcb129","meta":{"profile":["http://hl7.org/fhir/us/qicore/StructureDefinition/qicore-condition"]},"verificationStatus":{"coding":[{"system":"http://terminology.hl7.org/CodeSystem/condition-ver-status","code":"confirmed"}]},"category":[{"coding":[{"system":"http://terminology.hl7.org/CodeSystem/condition-category","code":"encounter-diagnosis","display":"Encounter Diagnosis"}]}],"code":{"coding":[{"system":"http://snomed.info/sct","code":"429508000"}]},"subject":{"reference":"Patient/1ee6da1d-f2a4-4f00-a28a-3566e34b27ad"},"onsetDateTime":"2025-11-18T06:00:00.000Z"},"request":{"method":"PUT","url":"Condition/435e42c0-79ca-468d-927e-e60760bcb129"}},{"fullUrl":"https://madie.cms.gov/Encounter/57002a41-2699-421c-a7d1-2b5fb9f86864","resource":{"resourceType":"Encounter","id":"57002a41-2699-421c-a7d1-2b5fb9f86864","meta":{"profile":["http://hl7.org/fhir/us/qicore/StructureDefinition/qicore-encounter"]},"status":"finished","class":{"system":"http://terminology.hl7.org/CodeSystem/v3-ActCode","code":"IMP","display":"inpatient encounter"},"type":[{"coding":[{"system":"http://snomed.info/sct","code":"32485007"}]}],"subject":{"reference":"Patient/1ee6da1d-f2a4-4f00-a28a-3566e34b27ad"},"period":{"start":"2025-11-20T08:00:00.000Z","end":"2025-11-24T08:15:00.000Z"},"length":{"value":4,"unit":"days"},"diagnosis":[{"condition":{"reference":"Condition/dae5157f-406c-4146-b17e-fc971c5a4621"},"use":{"coding":[{"system":"http://terminology.hl7.org/CodeSystem/diagnosis-role","code":"billing","display":"Billing"}]},"rank":1}]},"request":{"method":"PUT","url":"Encounter/57002a41-2699-421c-a7d1-2b5fb9f86864"}},{"fullUrl":"https://madie.cms.gov/MedicationRequest/2dc04291-2d28-4909-81a9-0f6e8f279272","resource":{"resourceType":"MedicationRequest","id":"2dc04291-2d28-4909-81a9-0f6e8f279272","meta":{"profile":["http://hl7.org/fhir/us/qicore/StructureDefinition/qicore-medicationrequest"]},"status":"active","intent":"order","category":[{"coding":[{"system":"http://terminology.hl7.org/CodeSystem/medicationrequest-category","code":"community","display":"Community","userSelected":true}]}],"medicationCodeableConcept":{"coding":[{"system":"http://www.nlm.nih.gov/research/umls/rxnorm","code":"308351"}]},"subject":{"reference":"Patient/1ee6da1d-f2a4-4f00-a28a-3566e34b27ad"},"authoredOn":"2025-11-20T08:00:00.000+00:00","requester":{"reference":"Practitioner/example"}},"request":{"method":"PUT","url":"MedicationRequest/2dc04291-2d28-4909-81a9-0f6e8f279272"}},{"fullUrl":"https://madie.cms.gov/Coverage/c890a013-d7c9-45a3-9c79-ae6443507735","resource":{"resourceType":"Coverage","id":"c890a013-d7c9-45a3-9c79-ae6443507735","status":"active","beneficiary":{"reference":"Patient/1ee6da1d-f2a4-4f00-a28a-3566e34b27ad"},"period":{"start":"1954-05-23T08:00:00.000Z"},"payor":[{"reference":"Organization/26111c91-b0e2-476c-a20b-e3f39799f8f5"}]},"request":{"method":"PUT","url":"Coverage/c890a013-d7c9-45a3-9c79-ae6443507735"}},{"fullUrl":"https://madie.cms.gov/Condition/dae5157f-406c-4146-b17e-fc971c5a4621","resource":{"resourceType":"Condition","id":"dae5157f-406c-4146-b17e-fc971c5a4621","meta":{"profile":["http://hl7.org/fhir/us/qicore/StructureDefinition/qicore-condition"]},"clinicalStatus":{"coding":[{"system":"http://terminology.hl7.org/CodeSystem/condition-clinical","code":"active"}]},"verificationStatus":{"coding":[{"system":"http://terminology.hl7.org/CodeSystem/condition-ver-status","code":"confirmed"}]},"category":[{"coding":[{"system":"http://terminology.hl7.org/CodeSystem/condition-category","code":"encounter-diagnosis","display":"Encounter Diagnosis"}]}],"code":{"coding":[{"system":"http://snomed.info/sct","version":"2021-09","code":"111297002","display":"Nonparalytic stroke (disorder)","userSelected":true}]},"subject":{"reference":"Patient/1ee6da1d-f2a4-4f00-a28a-3566e34b27ad"},"recordedDate":"2025-10-13T08:00:00.000+00:00"},"request":{"method":"PUT","url":"Condition/dae5157f-406c-4146-b17e-fc971c5a4621"}},{"fullUrl":"https://madie.cms.gov/Organization/d3df1acf-c9de-46b9-a9b5-f9944fb321b8","resource":{"resourceType":"Organization","id":"26111c91-b0e2-476c-a20b-e3f39799f8f5","meta":{"profile":["http://hl7.org/fhir/us/qicore/StructureDefinition/qicore-organization"]},"identifier":[{"use":"temp","system":"urn:oid:2.16.840.1.113883.4.4","value":"21-3259825"}],"active":true,"type":[{"coding":[{"system":"http://terminology.hl7.org/CodeSystem/organization-type","code":"pay","display":"Payer"}]}],"name":"Blue Cross Blue Shield of Texas","telecom":[{"system":"phone","value":"(+1) 972-766-6900"}],"address":[{"use":"billing","type":"postal","line":["P.O. Box 660044"],"city":"Dallas","state":"TX","postalCode":"75266-0044","country":"USA"}]},"request":{"method":"PUT","url":"Organization/26111c91-b0e2-476c-a20b-e3f39799f8f5"}},{"fullUrl":"https://madie.cms.gov/Practitioner/acc57d63-f3ec-4d02-9ea4-10e5d9b05d43","resource":{"resourceType":"Practitioner","id":"acc57d63-f3ec-4d02-9ea4-10e5d9b05d43","identifier":[{"system":"http://hl7.org/fhir/sid/us-npi","value":"123456"}],"name":[{"family":"Evil","prefix":["Dr"]}]},"request":{"method":"PUT","url":"Practitioner/acc57d63-f3ec-4d02-9ea4-10e5d9b05d43"}},{"fullUrl":"https://madie.cms.gov/MeasureReport/658aee8f-348f-4b7f-9ac5-ef3ddafdb998","resource":{"resourceType":"MeasureReport","id":"658aee8f-348f-4b7f-9ac5-ef3ddafdb998","meta":{"profile":["http://hl7.org/fhir/us/cqfmeasures/StructureDefinition/test-case-cqfm"]},"contained":[{"resourceType":"Parameters","id":"af236ac7-ce27-48a8-8a80-6449f659aa33-parameters","parameter":[{"name":"subject","valueString":"1ee6da1d-f2a4-4f00-a28a-3566e34b27ad"}]}],"extension":[{"url":"http://hl7.org/fhir/us/cqfmeasures/StructureDefinition/cqfm-inputParameters","valueReference":{"reference":"#af236ac7-ce27-48a8-8a80-6449f659aa33-parameters"}},{"url":"http://hl7.org/fhir/us/cqfmeasures/StructureDefinition/cqfm-testCaseDescription","valueMarkdown":"Patient DC on Anticoagulant has a History of Atrial Ablation as confirmed"}],"modifierExtension":[{"url":"http://hl7.org/fhir/us/cqfmeasures/StructureDefinition/cqfm-isTestCase","valueBoolean":true}],"status":"complete","type":"individual","measure":"https://madie.cms.gov/Measure/AnticoagulationTherapyforAtrialFibrillationFlutterFHIR","period":{"start":"2025-01-01","end":"2025-12-31"},"group":[{"population":[{"code":{"coding":[{"system":"http://terminology.hl7.org/CodeSystem/measure-population","code":"initial-population","display":"Initial Population"}]},"count":1},{"code":{"coding":[{"system":"http://terminology.hl7.org/CodeSystem/measure-population","code":"denominator","display":"Denominator"}]},"count":1},{"code":{"coding":[{"system":"http://terminology.hl7.org/CodeSystem/measure-population","code":"denominator-exclusion","display":"Denominator Exclusion"}]},"count":0},{"code":{"coding":[{"system":"http://terminology.hl7.org/CodeSystem/measure-population","code":"numerator","display":"Numerator"}]},"count":1},{"code":{"coding":[{"system":"http://terminology.hl7.org/CodeSystem/measure-population","code":"denominator-exception","display":"Denominator Exception"}]},"count":0}]}]},"request":{"method":"PUT","url":"MeasureReport/658aee8f-348f-4b7f-9ac5-ef3ddafdb998"}}]}