{"resourceType":"Bundle","id":"tests-24ffee3e-9b5b-491e-8490-006d306e5f8a-bundle","type":"transaction","entry":[{"fullUrl":"https://madie.cms.gov/Patient/28e40b3d-b272-436b-a8c8-4e8550503201","resource":{"resourceType":"Patient","id":"28e40b3d-b272-436b-a8c8-4e8550503201","meta":{"profile":["http://hl7.org/fhir/us/qicore/StructureDefinition/qicore-patient"]},"text":{"status":"generated","div":"<div xmlns=\"http://www.w3.org/1999/xhtml\"><div class=\"hapiHeaderText\">EncEndsB4MP <b>IPPFAIL </b></div><table class=\"hapiPropertyTable\"><tbody><tr><td>Identifier</td><td>c151187f98af848f2ba9485fb72e98d1</td></tr><tr><td>Date of birth</td><td><span>01 December 1960</span></td></tr></tbody></table></div>"},"extension":[{"url":"http://hl7.org/fhir/us/core/StructureDefinition/us-core-race","extension":[{"url":"ombCategory","valueCoding":{"system":"urn:oid:2.16.840.1.113883.6.238","code":"1002-5","display":"American Indian or Alaska Native","userSelected":true}},{"url":"text","valueString":"American Indian or Alaska Native"}]},{"url":"http://hl7.org/fhir/us/core/StructureDefinition/us-core-ethnicity","extension":[{"url":"ombCategory","valueCoding":{"system":"urn:oid:2.16.840.1.113883.6.238","code":"2135-2","display":"Hispanic or Latino","userSelected":true}},{"url":"text","valueString":"Hispanic or Latino"}]}],"identifier":[{"type":{"coding":[{"system":"http://terminology.hl7.org/CodeSystem/v2-0203","code":"MR"}]},"system":"https://bonnie-fhir.healthit.gov/","value":"633c9d030968f8012250fc76"}],"active":true,"name":[{"use":"usual","family":"IPPFail","given":["EncEndsB4MP"]}],"gender":"male","birthDate":"1960-12-01"},"request":{"method":"PUT","url":"Patient/28e40b3d-b272-436b-a8c8-4e8550503201"}},{"fullUrl":"https://madie.cms.gov/Encounter/5c0afac3-97d2-4164-9c7c-bc330db75787","resource":{"resourceType":"Encounter","id":"5c0afac3-97d2-4164-9c7c-bc330db75787","meta":{"profile":["http://hl7.org/fhir/us/qicore/StructureDefinition/qicore-encounter"]},"status":"finished","class":{"system":"http://terminology.hl7.org/CodeSystem/v3-ActCode","code":"IMP","display":"inpatient encounter"},"type":[{"coding":[{"system":"http://snomed.info/sct","code":"32485007"}]}],"subject":{"reference":"Patient/28e40b3d-b272-436b-a8c8-4e8550503201"},"period":{"start":"2011-12-01T08:00:00.000Z","end":"2011-12-31T23:59:00.000Z"},"length":{"value":30,"unit":"days"},"diagnosis":[{"condition":{"reference":"Condition/afe4ddc1-64ef-4660-90a1-8ad43e185b33"},"use":{"coding":[{"system":"http://terminology.hl7.org/CodeSystem/diagnosis-role","code":"billing","display":"Billing"}]},"rank":1}]},"request":{"method":"PUT","url":"Encounter/5c0afac3-97d2-4164-9c7c-bc330db75787"}},{"fullUrl":"https://madie.cms.gov/Coverage/59253535-edbe-4d6d-92ab-4d096440c4e0","resource":{"resourceType":"Coverage","id":"59253535-edbe-4d6d-92ab-4d096440c4e0","status":"active","beneficiary":{"reference":"Patient/28e40b3d-b272-436b-a8c8-4e8550503201"},"period":{"start":"1960-12-01T08:00:00.000Z"},"payor":[{"reference":"Organization/26111c91-b0e2-476c-a20b-e3f39799f8f5"}]},"request":{"method":"PUT","url":"Coverage/59253535-edbe-4d6d-92ab-4d096440c4e0"}},{"fullUrl":"https://madie.cms.gov/Condition/afe4ddc1-64ef-4660-90a1-8ad43e185b33","resource":{"resourceType":"Condition","id":"afe4ddc1-64ef-4660-90a1-8ad43e185b33","meta":{"profile":["http://hl7.org/fhir/us/qicore/StructureDefinition/qicore-condition"]},"clinicalStatus":{"coding":[{"system":"http://terminology.hl7.org/CodeSystem/condition-clinical","code":"active"}]},"verificationStatus":{"coding":[{"system":"http://terminology.hl7.org/CodeSystem/condition-ver-status","code":"confirmed"}]},"category":[{"coding":[{"system":"http://terminology.hl7.org/CodeSystem/condition-category","code":"encounter-diagnosis","display":"Encounter Diagnosis"}]}],"code":{"coding":[{"system":"http://snomed.info/sct","version":"2021-09","code":"111297002","display":"Nonparalytic stroke (disorder)","userSelected":true}]},"subject":{"reference":"Patient/28e40b3d-b272-436b-a8c8-4e8550503201"},"recordedDate":"2025-10-13T08:00:00.000+00:00"},"request":{"method":"PUT","url":"Condition/afe4ddc1-64ef-4660-90a1-8ad43e185b33"}},{"fullUrl":"https://madie.cms.gov/Organization/87b6d228-f52b-4143-90d8-19b84f3813cd","resource":{"resourceType":"Organization","id":"26111c91-b0e2-476c-a20b-e3f39799f8f5","meta":{"profile":["http://hl7.org/fhir/us/qicore/StructureDefinition/qicore-organization"]},"identifier":[{"use":"temp","system":"urn:oid:2.16.840.1.113883.4.4","value":"21-3259825"}],"active":true,"type":[{"coding":[{"system":"http://terminology.hl7.org/CodeSystem/organization-type","code":"pay","display":"Payer"}]}],"name":"Blue Cross Blue Shield of Texas","telecom":[{"system":"phone","value":"(+1) 972-766-6900"}],"address":[{"use":"billing","type":"postal","line":["P.O. Box 660044"],"city":"Dallas","state":"TX","postalCode":"75266-0044","country":"USA"}]},"request":{"method":"PUT","url":"Organization/26111c91-b0e2-476c-a20b-e3f39799f8f5"}},{"fullUrl":"https://madie.cms.gov/Practitioner/a6ab39c2-f965-428e-94e8-67a724ecb252","resource":{"resourceType":"Practitioner","id":"a6ab39c2-f965-428e-94e8-67a724ecb252","identifier":[{"system":"http://hl7.org/fhir/sid/us-npi","value":"123456"}],"name":[{"family":"Evil","prefix":["Dr"]}]},"request":{"method":"PUT","url":"Practitioner/a6ab39c2-f965-428e-94e8-67a724ecb252"}},{"fullUrl":"https://madie.cms.gov/MeasureReport/2385b10e-32bd-4987-9afa-1f6c3383fe4a","resource":{"resourceType":"MeasureReport","id":"2385b10e-32bd-4987-9afa-1f6c3383fe4a","meta":{"profile":["http://hl7.org/fhir/us/cqfmeasures/StructureDefinition/test-case-cqfm"]},"contained":[{"resourceType":"Parameters","id":"4c9c9d1d-b036-42be-acf2-b1a3a1482df7-parameters","parameter":[{"name":"subject","valueString":"28e40b3d-b272-436b-a8c8-4e8550503201"}]}],"extension":[{"url":"http://hl7.org/fhir/us/cqfmeasures/StructureDefinition/cqfm-inputParameters","valueReference":{"reference":"#4c9c9d1d-b036-42be-acf2-b1a3a1482df7-parameters"}},{"url":"http://hl7.org/fhir/us/cqfmeasures/StructureDefinition/cqfm-testCaseDescription","valueMarkdown":"Principal diagnosis = ischemic stroke, age GE 18, encounter ends before MP\n"}],"modifierExtension":[{"url":"http://hl7.org/fhir/us/cqfmeasures/StructureDefinition/cqfm-isTestCase","valueBoolean":true}],"status":"complete","type":"individual","measure":"https://madie.cms.gov/Measure/AnticoagulationTherapyforAtrialFibrillationFlutterFHIR","period":{"start":"2025-01-01","end":"2025-12-31"},"group":[{"population":[{"code":{"coding":[{"system":"http://terminology.hl7.org/CodeSystem/measure-population","code":"initial-population","display":"Initial Population"}]},"count":0},{"code":{"coding":[{"system":"http://terminology.hl7.org/CodeSystem/measure-population","code":"denominator","display":"Denominator"}]},"count":0},{"code":{"coding":[{"system":"http://terminology.hl7.org/CodeSystem/measure-population","code":"denominator-exclusion","display":"Denominator Exclusion"}]},"count":0},{"code":{"coding":[{"system":"http://terminology.hl7.org/CodeSystem/measure-population","code":"numerator","display":"Numerator"}]},"count":0},{"code":{"coding":[{"system":"http://terminology.hl7.org/CodeSystem/measure-population","code":"denominator-exception","display":"Denominator Exception"}]},"count":0}]}]},"request":{"method":"PUT","url":"MeasureReport/2385b10e-32bd-4987-9afa-1f6c3383fe4a"}}]}