{"resourceType":"Bundle","id":"tests-f0de258a-3358-4f1d-a91d-e1c57a2cb61a-bundle","type":"transaction","entry":[{"fullUrl":"https://madie.cms.gov/Patient/d9a56fde-a23e-48b0-b795-ebb574eeb133","resource":{"resourceType":"Patient","id":"d9a56fde-a23e-48b0-b795-ebb574eeb133","meta":{"profile":["http://hl7.org/fhir/us/qicore/StructureDefinition/qicore-patient"]},"text":{"status":"generated","div":"<div xmlns=\"http://www.w3.org/1999/xhtml\"><div class=\"hapiHeaderText\">Dx=Afib/flutterStart=EncEnd <b>DENOMPASS </b></div><table class=\"hapiPropertyTable\"><tbody><tr><td>Identifier</td><td>eea63111353acebe4dc924bd86a7bec7</td></tr><tr><td>Date of birth</td><td><span>01 December 1960</span></td></tr></tbody></table></div>"},"extension":[{"url":"http://hl7.org/fhir/us/core/StructureDefinition/us-core-race","extension":[{"url":"ombCategory","valueCoding":{"system":"urn:oid:2.16.840.1.113883.6.238","code":"1002-5","display":"American Indian or Alaska Native","userSelected":true}},{"url":"text","valueString":"American Indian or Alaska Native"}]},{"url":"http://hl7.org/fhir/us/core/StructureDefinition/us-core-ethnicity","extension":[{"url":"ombCategory","valueCoding":{"system":"urn:oid:2.16.840.1.113883.6.238","code":"2135-2","display":"Hispanic or Latino","userSelected":true}},{"url":"text","valueString":"Hispanic or Latino"}]}],"identifier":[{"type":{"coding":[{"system":"http://terminology.hl7.org/CodeSystem/v2-0203","code":"MR"}]},"system":"https://bonnie-fhir.healthit.gov/","value":"633c9d030968f8012250fc99"}],"active":true,"name":[{"use":"usual","family":"DENOMPass","given":["Dx=Afib/flutterStart=EncEnd "]}],"gender":"male","birthDate":"1960-12-01"},"request":{"method":"PUT","url":"Patient/d9a56fde-a23e-48b0-b795-ebb574eeb133"}},{"fullUrl":"https://madie.cms.gov/Condition/b37dfbf8-0496-42b4-be67-68662aa219f9","resource":{"resourceType":"Condition","id":"b37dfbf8-0496-42b4-be67-68662aa219f9","meta":{"profile":["http://hl7.org/fhir/us/qicore/StructureDefinition/qicore-condition"]},"clinicalStatus":{"coding":[{"system":"http://terminology.hl7.org/CodeSystem/condition-clinical","code":"active"}]},"verificationStatus":{"coding":[{"system":"http://terminology.hl7.org/CodeSystem/condition-ver-status","code":"confirmed"}]},"category":[{"coding":[{"system":"http://terminology.hl7.org/CodeSystem/condition-category","code":"encounter-diagnosis","display":"Encounter Diagnosis"}]}],"code":{"coding":[{"system":"http://snomed.info/sct","code":"195080001"},{"system":"http://hl7.org/fhir/sid/icd-9-cm","code":"427.31"},{"system":"http://hl7.org/fhir/sid/icd-10-cm","code":"I48.0"}]},"subject":{"reference":"Patient/d9a56fde-a23e-48b0-b795-ebb574eeb133"},"onsetDateTime":"2025-02-10T08:15:00.000Z"},"request":{"method":"PUT","url":"Condition/b37dfbf8-0496-42b4-be67-68662aa219f9"}},{"fullUrl":"https://madie.cms.gov/Encounter/044be828-f183-4d9f-9724-217cadcfe978","resource":{"resourceType":"Encounter","id":"044be828-f183-4d9f-9724-217cadcfe978","meta":{"profile":["http://hl7.org/fhir/us/qicore/StructureDefinition/qicore-encounter"]},"status":"finished","class":{"system":"http://terminology.hl7.org/CodeSystem/v3-ActCode","code":"IMP","display":"inpatient encounter"},"type":[{"coding":[{"system":"http://snomed.info/sct","code":"183452005"}]}],"subject":{"reference":"Patient/d9a56fde-a23e-48b0-b795-ebb574eeb133"},"period":{"start":"2025-02-08T08:00:00.000Z","end":"2025-02-10T08:15:00.000Z"},"length":{"value":2,"unit":"days"},"diagnosis":[{"condition":{"reference":"Condition/f18b0a71-2ecc-49aa-bc36-4f0fa91468b5"},"use":{"coding":[{"system":"http://terminology.hl7.org/CodeSystem/diagnosis-role","code":"billing","display":"Billing"}]},"rank":1}]},"request":{"method":"PUT","url":"Encounter/044be828-f183-4d9f-9724-217cadcfe978"}},{"fullUrl":"https://madie.cms.gov/Coverage/6559c50d-e876-47bb-9e3a-fb77915271b1","resource":{"resourceType":"Coverage","id":"6559c50d-e876-47bb-9e3a-fb77915271b1","status":"active","beneficiary":{"reference":"Patient/d9a56fde-a23e-48b0-b795-ebb574eeb133"},"period":{"start":"1960-12-01T08:00:00.000Z"},"payor":[{"reference":"Organization/26111c91-b0e2-476c-a20b-e3f39799f8f5"}]},"request":{"method":"PUT","url":"Coverage/6559c50d-e876-47bb-9e3a-fb77915271b1"}},{"fullUrl":"https://madie.cms.gov/Condition/f18b0a71-2ecc-49aa-bc36-4f0fa91468b5","resource":{"resourceType":"Condition","id":"f18b0a71-2ecc-49aa-bc36-4f0fa91468b5","meta":{"profile":["http://hl7.org/fhir/us/qicore/StructureDefinition/qicore-condition"]},"clinicalStatus":{"coding":[{"system":"http://terminology.hl7.org/CodeSystem/condition-clinical","code":"active"}]},"verificationStatus":{"coding":[{"system":"http://terminology.hl7.org/CodeSystem/condition-ver-status","code":"confirmed"}]},"category":[{"coding":[{"system":"http://terminology.hl7.org/CodeSystem/condition-category","code":"encounter-diagnosis","display":"Encounter Diagnosis"}]}],"code":{"coding":[{"system":"http://snomed.info/sct","version":"2021-09","code":"111297002","display":"Nonparalytic stroke (disorder)","userSelected":true}]},"subject":{"reference":"Patient/d9a56fde-a23e-48b0-b795-ebb574eeb133"},"recordedDate":"2025-10-13T08:00:00.000+00:00"},"request":{"method":"PUT","url":"Condition/f18b0a71-2ecc-49aa-bc36-4f0fa91468b5"}},{"fullUrl":"https://madie.cms.gov/Organization/37cd6289-f3b7-4df4-88e4-64eda997c7a7","resource":{"resourceType":"Organization","id":"26111c91-b0e2-476c-a20b-e3f39799f8f5","meta":{"profile":["http://hl7.org/fhir/us/qicore/StructureDefinition/qicore-organization"]},"identifier":[{"use":"temp","system":"urn:oid:2.16.840.1.113883.4.4","value":"21-3259825"}],"active":true,"type":[{"coding":[{"system":"http://terminology.hl7.org/CodeSystem/organization-type","code":"pay","display":"Payer"}]}],"name":"Blue Cross Blue Shield of Texas","telecom":[{"system":"phone","value":"(+1) 972-766-6900"}],"address":[{"use":"billing","type":"postal","line":["P.O. Box 660044"],"city":"Dallas","state":"TX","postalCode":"75266-0044","country":"USA"}]},"request":{"method":"PUT","url":"Organization/26111c91-b0e2-476c-a20b-e3f39799f8f5"}},{"fullUrl":"https://madie.cms.gov/Practitioner/4a8633b8-f7d9-4dad-a5c1-6da1a7a5eee9","resource":{"resourceType":"Practitioner","id":"4a8633b8-f7d9-4dad-a5c1-6da1a7a5eee9","identifier":[{"system":"http://hl7.org/fhir/sid/us-npi","value":"123456"}],"name":[{"family":"Evil","prefix":["Dr"]}]},"request":{"method":"PUT","url":"Practitioner/4a8633b8-f7d9-4dad-a5c1-6da1a7a5eee9"}},{"fullUrl":"https://madie.cms.gov/MeasureReport/95a050b0-40ac-4cef-ae4c-a05577e81620","resource":{"resourceType":"MeasureReport","id":"95a050b0-40ac-4cef-ae4c-a05577e81620","meta":{"profile":["http://hl7.org/fhir/us/cqfmeasures/StructureDefinition/test-case-cqfm"]},"contained":[{"resourceType":"Parameters","id":"b2b8f52e-bbda-438e-8329-11d75e38c208-parameters","parameter":[{"name":"subject","valueString":"d9a56fde-a23e-48b0-b795-ebb574eeb133"}]}],"extension":[{"url":"http://hl7.org/fhir/us/cqfmeasures/StructureDefinition/cqfm-inputParameters","valueReference":{"reference":"#b2b8f52e-bbda-438e-8329-11d75e38c208-parameters"}},{"url":"http://hl7.org/fhir/us/cqfmeasures/StructureDefinition/cqfm-testCaseDescription","valueMarkdown":"with active flutter and abatement time removed"}],"modifierExtension":[{"url":"http://hl7.org/fhir/us/cqfmeasures/StructureDefinition/cqfm-isTestCase","valueBoolean":true}],"status":"complete","type":"individual","measure":"https://madie.cms.gov/Measure/AnticoagulationTherapyforAtrialFibrillationFlutterFHIR","period":{"start":"2025-01-01","end":"2025-12-31"},"group":[{"population":[{"code":{"coding":[{"system":"http://terminology.hl7.org/CodeSystem/measure-population","code":"initial-population","display":"Initial Population"}]},"count":1},{"code":{"coding":[{"system":"http://terminology.hl7.org/CodeSystem/measure-population","code":"denominator","display":"Denominator"}]},"count":1},{"code":{"coding":[{"system":"http://terminology.hl7.org/CodeSystem/measure-population","code":"denominator-exclusion","display":"Denominator Exclusion"}]},"count":0},{"code":{"coding":[{"system":"http://terminology.hl7.org/CodeSystem/measure-population","code":"numerator","display":"Numerator"}]},"count":0},{"code":{"coding":[{"system":"http://terminology.hl7.org/CodeSystem/measure-population","code":"denominator-exception","display":"Denominator Exception"}]},"count":0}]}]},"request":{"method":"PUT","url":"MeasureReport/95a050b0-40ac-4cef-ae4c-a05577e81620"}}]}