{"resourceType":"Bundle","id":"tests-856d71be-a360-47b3-a038-5cb3037bf1f2-bundle","type":"transaction","entry":[{"fullUrl":"https://madie.cms.gov/Patient/18673a56-6052-45cf-9aa0-69bd1c9e3711","resource":{"resourceType":"Patient","id":"18673a56-6052-45cf-9aa0-69bd1c9e3711","meta":{"profile":["http://hl7.org/fhir/us/qicore/StructureDefinition/qicore-patient"]},"text":{"status":"generated","div":"<div xmlns=\"http://www.w3.org/1999/xhtml\"><div class=\"hapiHeaderText\">NoStrokeDx <b>IPPFAIL </b></div><table class=\"hapiPropertyTable\"><tbody><tr><td>Identifier</td><td>07be0fe69d991ce770398b84f357fefa</td></tr><tr><td>Date of birth</td><td><span>16 January 1956</span></td></tr></tbody></table></div>"},"extension":[{"url":"http://hl7.org/fhir/us/core/StructureDefinition/us-core-race","extension":[{"url":"ombCategory","valueCoding":{"system":"urn:oid:2.16.840.1.113883.6.238","code":"1002-5","display":"American Indian or Alaska Native","userSelected":true}},{"url":"text","valueString":"American Indian or Alaska Native"}]},{"url":"http://hl7.org/fhir/us/core/StructureDefinition/us-core-ethnicity","extension":[{"url":"ombCategory","valueCoding":{"system":"urn:oid:2.16.840.1.113883.6.238","code":"2135-2","display":"Hispanic or Latino","userSelected":true}},{"url":"text","valueString":"Hispanic or Latino"}]}],"identifier":[{"type":{"coding":[{"system":"http://terminology.hl7.org/CodeSystem/v2-0203","code":"MR"}]},"system":"https://bonnie-fhir.healthit.gov/","value":"633c9d020968f8012250fc65"}],"active":true,"name":[{"use":"usual","family":"IPPFAIL","given":["NoStrokeDx"]}],"gender":"male","birthDate":"1956-01-16"},"request":{"method":"PUT","url":"Patient/18673a56-6052-45cf-9aa0-69bd1c9e3711"}},{"fullUrl":"https://madie.cms.gov/Encounter/0684eb23-1d8f-481b-ae76-534ecbbd481b","resource":{"resourceType":"Encounter","id":"0684eb23-1d8f-481b-ae76-534ecbbd481b","meta":{"profile":["http://hl7.org/fhir/us/qicore/StructureDefinition/qicore-encounter"]},"status":"finished","class":{"system":"http://terminology.hl7.org/CodeSystem/v3-ActCode","code":"IMP","display":"inpatient encounter"},"type":[{"coding":[{"system":"http://snomed.info/sct","code":"32485007"}]}],"subject":{"reference":"Patient/18673a56-6052-45cf-9aa0-69bd1c9e3711"},"period":{"start":"2025-11-20T08:00:00.000Z","end":"2025-11-24T08:15:00.000Z"},"length":{"value":4.0,"unit":"days"}},"request":{"method":"PUT","url":"Encounter/0684eb23-1d8f-481b-ae76-534ecbbd481b"}},{"fullUrl":"https://madie.cms.gov/Coverage/b63e90e2-bccc-45a3-b298-f93f39a262a2","resource":{"resourceType":"Coverage","id":"b63e90e2-bccc-45a3-b298-f93f39a262a2","status":"active","beneficiary":{"reference":"Patient/18673a56-6052-45cf-9aa0-69bd1c9e3711"},"period":{"start":"1956-01-16T08:00:00.000Z"},"payor":[{"reference":"Organization/26111c91-b0e2-476c-a20b-e3f39799f8f5"}]},"request":{"method":"PUT","url":"Coverage/b63e90e2-bccc-45a3-b298-f93f39a262a2"}},{"fullUrl":"https://madie.cms.gov/Organization/9ae024c3-c3dd-4ee4-8c46-cd7471004b4e","resource":{"resourceType":"Organization","id":"26111c91-b0e2-476c-a20b-e3f39799f8f5","meta":{"profile":["http://hl7.org/fhir/us/qicore/StructureDefinition/qicore-organization"]},"identifier":[{"use":"temp","system":"urn:oid:2.16.840.1.113883.4.4","value":"21-3259825"}],"active":true,"type":[{"coding":[{"system":"http://terminology.hl7.org/CodeSystem/organization-type","code":"pay","display":"Payer"}]}],"name":"Blue Cross Blue Shield of Texas","telecom":[{"system":"phone","value":"(+1) 972-766-6900"}],"address":[{"use":"billing","type":"postal","line":["P.O. Box 660044"],"city":"Dallas","state":"TX","postalCode":"75266-0044","country":"USA"}]},"request":{"method":"PUT","url":"Organization/26111c91-b0e2-476c-a20b-e3f39799f8f5"}},{"fullUrl":"https://madie.cms.gov/Practitioner/c9d4cf20-588a-499a-a0fa-afc57a48b620","resource":{"resourceType":"Practitioner","id":"c9d4cf20-588a-499a-a0fa-afc57a48b620","identifier":[{"system":"http://hl7.org/fhir/sid/us-npi","value":"123456"}],"name":[{"family":"Evil","prefix":["Dr"]}]},"request":{"method":"PUT","url":"Practitioner/c9d4cf20-588a-499a-a0fa-afc57a48b620"}},{"fullUrl":"https://madie.cms.gov/MeasureReport/8eba06f9-d676-4b91-a8f7-67daee55ae52","resource":{"resourceType":"MeasureReport","id":"8eba06f9-d676-4b91-a8f7-67daee55ae52","meta":{"profile":["http://hl7.org/fhir/us/cqfmeasures/StructureDefinition/test-case-cqfm"]},"contained":[{"resourceType":"Parameters","id":"39c3157d-9b6c-4c9c-94b0-f6c55f8af2f4-parameters","parameter":[{"name":"subject","valueString":"18673a56-6052-45cf-9aa0-69bd1c9e3711"}]}],"extension":[{"url":"http://hl7.org/fhir/us/cqfmeasures/StructureDefinition/cqfm-inputParameters","valueReference":{"reference":"#39c3157d-9b6c-4c9c-94b0-f6c55f8af2f4-parameters"}},{"url":"http://hl7.org/fhir/us/cqfmeasures/StructureDefinition/cqfm-testCaseDescription","valueMarkdown":"No Princ diagnois of stroke.\n"}],"modifierExtension":[{"url":"http://hl7.org/fhir/us/cqfmeasures/StructureDefinition/cqfm-isTestCase","valueBoolean":true}],"status":"complete","type":"individual","measure":"https://madie.cms.gov/Measure/AnticoagulationTherapyforAtrialFibrillationFlutterFHIR","period":{"start":"2025-01-01","end":"2025-12-31"},"group":[{"population":[{"code":{"coding":[{"system":"http://terminology.hl7.org/CodeSystem/measure-population","code":"initial-population","display":"Initial Population"}]},"count":0},{"code":{"coding":[{"system":"http://terminology.hl7.org/CodeSystem/measure-population","code":"denominator","display":"Denominator"}]},"count":0},{"code":{"coding":[{"system":"http://terminology.hl7.org/CodeSystem/measure-population","code":"denominator-exclusion","display":"Denominator Exclusion"}]},"count":0},{"code":{"coding":[{"system":"http://terminology.hl7.org/CodeSystem/measure-population","code":"numerator","display":"Numerator"}]},"count":0},{"code":{"coding":[{"system":"http://terminology.hl7.org/CodeSystem/measure-population","code":"denominator-exception","display":"Denominator Exception"}]},"count":0}]}]},"request":{"method":"PUT","url":"MeasureReport/8eba06f9-d676-4b91-a8f7-67daee55ae52"}}]}