{"resourceType":"Bundle","id":"tests-f7838ae4-6846-4bc0-a1e9-2002d5f5b357-bundle","type":"transaction","entry":[{"fullUrl":"https://madie.cms.gov/Patient/56a099ac-0b70-4fe7-aae1-c100780ca508","resource":{"resourceType":"Patient","id":"56a099ac-0b70-4fe7-aae1-c100780ca508","meta":{"profile":["http://hl7.org/fhir/us/qicore/StructureDefinition/qicore-patient"]},"text":{"status":"generated","div":"<div xmlns=\"http://www.w3.org/1999/xhtml\"><div class=\"hapiHeaderText\">DischargeHomeHospice <b>DENEXPASS </b></div><table class=\"hapiPropertyTable\"><tbody><tr><td>Identifier</td><td>1a0e2fe3bc737b1663e6e968cef6d8b3</td></tr><tr><td>Date of birth</td><td><span>31 July 1969</span></td></tr></tbody></table></div>"},"extension":[{"url":"http://hl7.org/fhir/us/core/StructureDefinition/us-core-race","extension":[{"url":"ombCategory","valueCoding":{"system":"urn:oid:2.16.840.1.113883.6.238","code":"1002-5","display":"American Indian or Alaska Native","userSelected":true}},{"url":"text","valueString":"American Indian or Alaska Native"}]},{"url":"http://hl7.org/fhir/us/core/StructureDefinition/us-core-ethnicity","extension":[{"url":"ombCategory","valueCoding":{"system":"urn:oid:2.16.840.1.113883.6.238","code":"2135-2","display":"Hispanic or Latino","userSelected":true}},{"url":"text","valueString":"Hispanic or Latino"}]}],"identifier":[{"type":{"coding":[{"system":"http://terminology.hl7.org/CodeSystem/v2-0203","code":"MR"}]},"system":"https://bonnie-fhir.healthit.gov/","value":"633c9d030968f8012250fc7d"}],"active":true,"name":[{"use":"usual","family":"DENEXPass","given":["DischargeHomeHospice"]}],"gender":"male","birthDate":"1969-07-31"},"request":{"method":"PUT","url":"Patient/56a099ac-0b70-4fe7-aae1-c100780ca508"}},{"fullUrl":"https://madie.cms.gov/Encounter/2ba72c92-d2ce-4e2d-89c8-a03c573081e5","resource":{"resourceType":"Encounter","id":"2ba72c92-d2ce-4e2d-89c8-a03c573081e5","meta":{"profile":["http://hl7.org/fhir/us/qicore/StructureDefinition/qicore-encounter"]},"status":"finished","class":{"system":"http://terminology.hl7.org/CodeSystem/v3-ActCode","code":"IMP","display":"inpatient encounter"},"type":[{"coding":[{"system":"http://snomed.info/sct","code":"32485007"}]}],"subject":{"reference":"Patient/56a099ac-0b70-4fe7-aae1-c100780ca508"},"period":{"start":"2025-11-20T08:00:00.000Z","end":"2025-11-24T08:15:00.000Z"},"length":{"value":4,"unit":"days"},"diagnosis":[{"condition":{"reference":"Condition/fda447d5-f338-4d56-9969-492ae534d89e"},"use":{"coding":[{"system":"http://terminology.hl7.org/CodeSystem/diagnosis-role","code":"billing","display":"Billing"}]},"rank":1}],"hospitalization":{"dischargeDisposition":{"coding":[{"system":"http://snomed.info/sct","code":"428361000124107","display":"Discharged to Home for Hospice Care"}]}}},"request":{"method":"PUT","url":"Encounter/2ba72c92-d2ce-4e2d-89c8-a03c573081e5"}},{"fullUrl":"https://madie.cms.gov/Coverage/cf36d4ad-65ab-4fe4-a804-4c97d2939b5c","resource":{"resourceType":"Coverage","id":"cf36d4ad-65ab-4fe4-a804-4c97d2939b5c","status":"active","beneficiary":{"reference":"Patient/56a099ac-0b70-4fe7-aae1-c100780ca508"},"period":{"start":"1969-07-31T08:00:00.000Z"},"payor":[{"reference":"Organization/26111c91-b0e2-476c-a20b-e3f39799f8f5"}]},"request":{"method":"PUT","url":"Coverage/cf36d4ad-65ab-4fe4-a804-4c97d2939b5c"}},{"fullUrl":"https://madie.cms.gov/Procedure/d0759c0c-30af-46cf-865a-cddb65f2ce35","resource":{"resourceType":"Procedure","id":"d0759c0c-30af-46cf-865a-cddb65f2ce35","meta":{"profile":["http://hl7.org/fhir/us/qicore/StructureDefinition/qicore-procedure"]},"extension":[{"url":"http://hl7.org/fhir/us/qicore/StructureDefinition/qicore-recorded","valueDateTime":"2025-11-19T09:35:00-04:00"}],"status":"completed","code":{"coding":[{"system":"http://www.cms.gov/Medicare/Coding/ICD10","code":"02560ZZ"},{"system":"http://snomed.info/sct","code":"175095005"}]},"subject":{"reference":"Patient/56a099ac-0b70-4fe7-aae1-c100780ca508"},"performedPeriod":{"start":"2025-11-19T08:00:00.000Z","end":"2025-11-20T08:15:00.000Z"}},"request":{"method":"PUT","url":"Procedure/d0759c0c-30af-46cf-865a-cddb65f2ce35"}},{"fullUrl":"https://madie.cms.gov/Condition/fda447d5-f338-4d56-9969-492ae534d89e","resource":{"resourceType":"Condition","id":"fda447d5-f338-4d56-9969-492ae534d89e","meta":{"profile":["http://hl7.org/fhir/us/qicore/StructureDefinition/qicore-condition"]},"clinicalStatus":{"coding":[{"system":"http://terminology.hl7.org/CodeSystem/condition-clinical","code":"active"}]},"verificationStatus":{"coding":[{"system":"http://terminology.hl7.org/CodeSystem/condition-ver-status","code":"confirmed"}]},"category":[{"coding":[{"system":"http://terminology.hl7.org/CodeSystem/condition-category","code":"encounter-diagnosis","display":"Encounter Diagnosis"}]}],"code":{"coding":[{"system":"http://snomed.info/sct","version":"2021-09","code":"111297002","display":"Nonparalytic stroke (disorder)","userSelected":true}]},"subject":{"reference":"Patient/56a099ac-0b70-4fe7-aae1-c100780ca508"},"recordedDate":"2025-10-13T08:00:00.000+00:00"},"request":{"method":"PUT","url":"Condition/fda447d5-f338-4d56-9969-492ae534d89e"}},{"fullUrl":"https://madie.cms.gov/Organization/dc2ab147-af7e-489a-90e7-8222d136ec06","resource":{"resourceType":"Organization","id":"26111c91-b0e2-476c-a20b-e3f39799f8f5","meta":{"profile":["http://hl7.org/fhir/us/qicore/StructureDefinition/qicore-organization"]},"identifier":[{"use":"temp","system":"urn:oid:2.16.840.1.113883.4.4","value":"21-3259825"}],"active":true,"type":[{"coding":[{"system":"http://terminology.hl7.org/CodeSystem/organization-type","code":"pay","display":"Payer"}]}],"name":"Blue Cross Blue Shield of Texas","telecom":[{"system":"phone","value":"(+1) 972-766-6900"}],"address":[{"use":"billing","type":"postal","line":["P.O. Box 660044"],"city":"Dallas","state":"TX","postalCode":"75266-0044","country":"USA"}]},"request":{"method":"PUT","url":"Organization/26111c91-b0e2-476c-a20b-e3f39799f8f5"}},{"fullUrl":"https://madie.cms.gov/Practitioner/8c64fa3e-954c-40c4-8f70-6268ace44ff3","resource":{"resourceType":"Practitioner","id":"8c64fa3e-954c-40c4-8f70-6268ace44ff3","identifier":[{"system":"http://hl7.org/fhir/sid/us-npi","value":"123456"}],"name":[{"family":"Evil","prefix":["Dr"]}]},"request":{"method":"PUT","url":"Practitioner/8c64fa3e-954c-40c4-8f70-6268ace44ff3"}},{"fullUrl":"https://madie.cms.gov/MeasureReport/c0fe9c6f-e834-43d7-93ec-87b05843c77f","resource":{"resourceType":"MeasureReport","id":"c0fe9c6f-e834-43d7-93ec-87b05843c77f","meta":{"profile":["http://hl7.org/fhir/us/cqfmeasures/StructureDefinition/test-case-cqfm"]},"contained":[{"resourceType":"Parameters","id":"402462ad-32d3-4030-a77c-df34242aa490-parameters","parameter":[{"name":"subject","valueString":"56a099ac-0b70-4fe7-aae1-c100780ca508"}]}],"extension":[{"url":"http://hl7.org/fhir/us/cqfmeasures/StructureDefinition/cqfm-inputParameters","valueReference":{"reference":"#402462ad-32d3-4030-a77c-df34242aa490-parameters"}},{"url":"http://hl7.org/fhir/us/cqfmeasures/StructureDefinition/cqfm-testCaseDescription","valueMarkdown":"Discharged to Home/Hospice\n"}],"modifierExtension":[{"url":"http://hl7.org/fhir/us/cqfmeasures/StructureDefinition/cqfm-isTestCase","valueBoolean":true}],"status":"complete","type":"individual","measure":"https://madie.cms.gov/Measure/AnticoagulationTherapyforAtrialFibrillationFlutterFHIR","period":{"start":"2025-01-01","end":"2025-12-31"},"group":[{"population":[{"code":{"coding":[{"system":"http://terminology.hl7.org/CodeSystem/measure-population","code":"initial-population","display":"Initial Population"}]},"count":1},{"code":{"coding":[{"system":"http://terminology.hl7.org/CodeSystem/measure-population","code":"denominator","display":"Denominator"}]},"count":1},{"code":{"coding":[{"system":"http://terminology.hl7.org/CodeSystem/measure-population","code":"denominator-exclusion","display":"Denominator Exclusion"}]},"count":1},{"code":{"coding":[{"system":"http://terminology.hl7.org/CodeSystem/measure-population","code":"numerator","display":"Numerator"}]},"count":0},{"code":{"coding":[{"system":"http://terminology.hl7.org/CodeSystem/measure-population","code":"denominator-exception","display":"Denominator Exception"}]},"count":0}]}]},"request":{"method":"PUT","url":"MeasureReport/c0fe9c6f-e834-43d7-93ec-87b05843c77f"}}]}