{"resourceType":"Bundle","id":"tests-e73d1055-c564-4663-9af0-d3ccabeb49c8-bundle","type":"transaction","entry":[{"fullUrl":"https://madie.cms.gov/Patient/f8998ee3-ffae-4717-adb1-64a04e4a8176","resource":{"resourceType":"Patient","id":"f8998ee3-ffae-4717-adb1-64a04e4a8176","meta":{"profile":["http://hl7.org/fhir/us/qicore/StructureDefinition/qicore-patient"]},"text":{"status":"generated","div":"<div xmlns=\"http://www.w3.org/1999/xhtml\"><div class=\"hapiHeaderText\">CMOdurED_ED=1hrObs=1hrBFEnc <b>DENEXPASS </b></div><table class=\"hapiPropertyTable\"><tbody><tr><td>Identifier</td><td>6154ed3e6029d496bda5b35d3515afbbdc41984dd4c9181d132c9b1c15092843</td></tr><tr><td>Date of birth</td><td><span>18 September 1985</span></td></tr></tbody></table></div>"},"extension":[{"url":"http://hl7.org/fhir/us/core/StructureDefinition/us-core-race","extension":[{"url":"ombCategory","valueCoding":{"system":"urn:oid:2.16.840.1.113883.6.238","code":"1002-5","display":"American Indian or Alaska Native","userSelected":true}},{"url":"text","valueString":"American Indian or Alaska Native"}]},{"url":"http://hl7.org/fhir/us/core/StructureDefinition/us-core-ethnicity","extension":[{"url":"ombCategory","valueCoding":{"system":"urn:oid:2.16.840.1.113883.6.238","code":"2135-2","display":"Hispanic or Latino","userSelected":true}},{"url":"text","valueString":"Hispanic or Latino"}]}],"identifier":[{"type":{"coding":[{"system":"http://terminology.hl7.org/CodeSystem/v2-0203","code":"MR"}]},"system":"https://bonnie-fhir.healthit.gov/","value":"633c9d040968f8012250fca6"}],"active":true,"name":[{"use":"usual","family":"DENEXPass","given":["CMOdurED_ED=1hrObs=1hrBFEnc"]}],"gender":"female","birthDate":"1985-09-18"},"request":{"method":"PUT","url":"Patient/f8998ee3-ffae-4717-adb1-64a04e4a8176"}},{"fullUrl":"https://madie.cms.gov/Condition/859dcc74-efd3-4498-b4c9-94f6f05ce750","resource":{"resourceType":"Condition","id":"859dcc74-efd3-4498-b4c9-94f6f05ce750","meta":{"profile":["http://hl7.org/fhir/us/qicore/StructureDefinition/qicore-condition"]},"clinicalStatus":{"coding":[{"system":"http://terminology.hl7.org/CodeSystem/condition-clinical","code":"inactive"}]},"verificationStatus":{"coding":[{"system":"http://terminology.hl7.org/CodeSystem/condition-ver-status","code":"confirmed"}]},"category":[{"coding":[{"system":"http://terminology.hl7.org/CodeSystem/condition-category","code":"encounter-diagnosis","display":"Encounter Diagnosis"}]}],"code":{"coding":[{"system":"http://hl7.org/fhir/sid/icd-10-cm","code":"I48.20"},{"system":"http://hl7.org/fhir/sid/icd-10-cm","code":"I48.0"},{"system":"http://snomed.info/sct","code":"5370000"}]},"subject":{"reference":"Patient/f8998ee3-ffae-4717-adb1-64a04e4a8176"},"onsetDateTime":"2025-10-01T09:00:00.000Z","abatementDateTime":"2025-10-12T00:15:00.000Z"},"request":{"method":"PUT","url":"Condition/859dcc74-efd3-4498-b4c9-94f6f05ce750"}},{"fullUrl":"https://madie.cms.gov/Encounter/b60decd9-eef3-4ac4-bcb6-18932075b150","resource":{"resourceType":"Encounter","id":"b60decd9-eef3-4ac4-bcb6-18932075b150","meta":{"profile":["http://hl7.org/fhir/us/qicore/StructureDefinition/qicore-encounter"]},"status":"finished","class":{"system":"http://terminology.hl7.org/CodeSystem/v3-ActCode","code":"EMER","display":"emergency"},"type":[{"coding":[{"system":"http://snomed.info/sct","code":"4525004"}]}],"subject":{"reference":"Patient/f8998ee3-ffae-4717-adb1-64a04e4a8176"},"period":{"start":"2025-09-30T07:59:00.000Z","end":"2025-09-30T08:00:00.000Z"},"length":{"value":0,"unit":"days"}},"request":{"method":"PUT","url":"Encounter/b60decd9-eef3-4ac4-bcb6-18932075b150"}},{"fullUrl":"https://madie.cms.gov/Encounter/1027fe29-a856-4d81-b035-501ebbe14da3","resource":{"resourceType":"Encounter","id":"1027fe29-a856-4d81-b035-501ebbe14da3","meta":{"profile":["http://hl7.org/fhir/us/qicore/StructureDefinition/qicore-encounter"]},"status":"finished","class":{"system":"http://terminology.hl7.org/CodeSystem/v3-ActCode","code":"OBSENC","display":"observation encounter"},"type":[{"coding":[{"system":"http://snomed.info/sct","code":"448951000124107"}]}],"subject":{"reference":"Patient/f8998ee3-ffae-4717-adb1-64a04e4a8176"},"period":{"start":"2025-09-30T09:00:00.000Z","end":"2025-09-30T09:01:00.000Z"},"length":{"value":0,"unit":"days"}},"request":{"method":"PUT","url":"Encounter/1027fe29-a856-4d81-b035-501ebbe14da3"}},{"fullUrl":"https://madie.cms.gov/Encounter/1aee2bb5-ec92-4139-95c2-735e26a777ba","resource":{"resourceType":"Encounter","id":"1aee2bb5-ec92-4139-95c2-735e26a777ba","meta":{"profile":["http://hl7.org/fhir/us/qicore/StructureDefinition/qicore-encounter"]},"status":"finished","class":{"system":"http://terminology.hl7.org/CodeSystem/v3-ActCode","code":"IMP","display":"inpatient encounter"},"type":[{"coding":[{"system":"http://snomed.info/sct","code":"32485007"}]}],"subject":{"reference":"Patient/f8998ee3-ffae-4717-adb1-64a04e4a8176"},"period":{"start":"2025-09-30T10:01:00.000Z","end":"2025-10-12T00:15:00.000Z"},"length":{"value":12,"unit":"days"},"diagnosis":[{"condition":{"reference":"Condition/4af7a349-6d6d-43a6-837f-5060be1fa4de"},"use":{"coding":[{"system":"http://terminology.hl7.org/CodeSystem/diagnosis-role","code":"billing","display":"Billing"}]},"rank":1}]},"request":{"method":"PUT","url":"Encounter/1aee2bb5-ec92-4139-95c2-735e26a777ba"}},{"fullUrl":"https://madie.cms.gov/ServiceRequest/cf00aefb-d8f3-40c7-b80f-79ba5aa7002b","resource":{"resourceType":"ServiceRequest","id":"cf00aefb-d8f3-40c7-b80f-79ba5aa7002b","meta":{"profile":["http://hl7.org/fhir/us/qicore/StructureDefinition/qicore-servicerequest"]},"status":"active","intent":"order","code":{"coding":[{"system":"http://snomed.info/sct","code":"133918004"}]},"subject":{"reference":"Patient/f8998ee3-ffae-4717-adb1-64a04e4a8176"},"authoredOn":"2025-09-30T08:00:00.000+00:00"},"request":{"method":"PUT","url":"ServiceRequest/cf00aefb-d8f3-40c7-b80f-79ba5aa7002b"}},{"fullUrl":"https://madie.cms.gov/Coverage/00e6de7c-a831-44c3-9f80-6248edd8c0ec","resource":{"resourceType":"Coverage","id":"00e6de7c-a831-44c3-9f80-6248edd8c0ec","status":"active","beneficiary":{"reference":"Patient/f8998ee3-ffae-4717-adb1-64a04e4a8176"},"period":{"start":"1985-09-18T08:00:00.000Z"},"payor":[{"reference":"Organization/26111c91-b0e2-476c-a20b-e3f39799f8f5"}]},"request":{"method":"PUT","url":"Coverage/00e6de7c-a831-44c3-9f80-6248edd8c0ec"}},{"fullUrl":"https://madie.cms.gov/Condition/4af7a349-6d6d-43a6-837f-5060be1fa4de","resource":{"resourceType":"Condition","id":"4af7a349-6d6d-43a6-837f-5060be1fa4de","meta":{"profile":["http://hl7.org/fhir/us/qicore/StructureDefinition/qicore-condition"]},"clinicalStatus":{"coding":[{"system":"http://terminology.hl7.org/CodeSystem/condition-clinical","code":"active"}]},"verificationStatus":{"coding":[{"system":"http://terminology.hl7.org/CodeSystem/condition-ver-status","code":"confirmed"}]},"category":[{"coding":[{"system":"http://terminology.hl7.org/CodeSystem/condition-category","code":"encounter-diagnosis","display":"Encounter Diagnosis"}]}],"code":{"coding":[{"system":"http://snomed.info/sct","version":"2021-09","code":"111297002","display":"Nonparalytic stroke (disorder)","userSelected":true}]},"subject":{"reference":"Patient/f8998ee3-ffae-4717-adb1-64a04e4a8176"},"recordedDate":"2025-10-13T08:00:00.000+00:00"},"request":{"method":"PUT","url":"Condition/4af7a349-6d6d-43a6-837f-5060be1fa4de"}},{"fullUrl":"https://madie.cms.gov/Organization/6df9b98c-b84f-4ee4-8d64-37434fbd979b","resource":{"resourceType":"Organization","id":"26111c91-b0e2-476c-a20b-e3f39799f8f5","meta":{"profile":["http://hl7.org/fhir/us/qicore/StructureDefinition/qicore-organization"]},"identifier":[{"use":"temp","system":"urn:oid:2.16.840.1.113883.4.4","value":"21-3259825"}],"active":true,"type":[{"coding":[{"system":"http://terminology.hl7.org/CodeSystem/organization-type","code":"pay","display":"Payer"}]}],"name":"Blue Cross Blue Shield of Texas","telecom":[{"system":"phone","value":"(+1) 972-766-6900"}],"address":[{"use":"billing","type":"postal","line":["P.O. Box 660044"],"city":"Dallas","state":"TX","postalCode":"75266-0044","country":"USA"}]},"request":{"method":"PUT","url":"Organization/26111c91-b0e2-476c-a20b-e3f39799f8f5"}},{"fullUrl":"https://madie.cms.gov/Practitioner/afe45c29-0eaf-4523-8b82-5e8a0f44e3d0","resource":{"resourceType":"Practitioner","id":"afe45c29-0eaf-4523-8b82-5e8a0f44e3d0","identifier":[{"system":"http://hl7.org/fhir/sid/us-npi","value":"123456"}],"name":[{"family":"Evil","prefix":["Dr"]}]},"request":{"method":"PUT","url":"Practitioner/afe45c29-0eaf-4523-8b82-5e8a0f44e3d0"}},{"fullUrl":"https://madie.cms.gov/MeasureReport/980f78fc-cce7-4864-ae7b-b146092d13e1","resource":{"resourceType":"MeasureReport","id":"980f78fc-cce7-4864-ae7b-b146092d13e1","meta":{"profile":["http://hl7.org/fhir/us/cqfmeasures/StructureDefinition/test-case-cqfm"]},"contained":[{"resourceType":"Parameters","id":"d200fbb2-4b1d-4811-bd00-3e2abe0e590e-parameters","parameter":[{"name":"subject","valueString":"f8998ee3-ffae-4717-adb1-64a04e4a8176"}]}],"extension":[{"url":"http://hl7.org/fhir/us/cqfmeasures/StructureDefinition/cqfm-inputParameters","valueReference":{"reference":"#d200fbb2-4b1d-4811-bd00-3e2abe0e590e-parameters"}},{"url":"http://hl7.org/fhir/us/cqfmeasures/StructureDefinition/cqfm-testCaseDescription","valueMarkdown":"Patient receives CMO during ED. ED ends 60 min before Obs start and Obs ends 60 min before  inpatient start.  Testing HospitalizationWithObservation function\n"}],"modifierExtension":[{"url":"http://hl7.org/fhir/us/cqfmeasures/StructureDefinition/cqfm-isTestCase","valueBoolean":true}],"status":"complete","type":"individual","measure":"https://madie.cms.gov/Measure/AnticoagulationTherapyforAtrialFibrillationFlutterFHIR","period":{"start":"2025-01-01","end":"2025-12-31"},"group":[{"population":[{"code":{"coding":[{"system":"http://terminology.hl7.org/CodeSystem/measure-population","code":"initial-population","display":"Initial Population"}]},"count":1},{"code":{"coding":[{"system":"http://terminology.hl7.org/CodeSystem/measure-population","code":"denominator","display":"Denominator"}]},"count":1},{"code":{"coding":[{"system":"http://terminology.hl7.org/CodeSystem/measure-population","code":"denominator-exclusion","display":"Denominator Exclusion"}]},"count":1},{"code":{"coding":[{"system":"http://terminology.hl7.org/CodeSystem/measure-population","code":"numerator","display":"Numerator"}]},"count":0},{"code":{"coding":[{"system":"http://terminology.hl7.org/CodeSystem/measure-population","code":"denominator-exception","display":"Denominator Exception"}]},"count":0}]}]},"request":{"method":"PUT","url":"MeasureReport/980f78fc-cce7-4864-ae7b-b146092d13e1"}}]}