{"resourceType":"Bundle","id":"tests-d9dc15b7-bf03-4b72-8dd5-3e4db21f052d-bundle","type":"transaction","entry":[{"fullUrl":"https://madie.cms.gov/Patient/52000554-a254-47c1-bbce-c428dfcf9de5","resource":{"resourceType":"Patient","id":"52000554-a254-47c1-bbce-c428dfcf9de5","meta":{"profile":["http://hl7.org/fhir/us/qicore/StructureDefinition/qicore-patient"]},"text":{"status":"generated","div":"<div xmlns=\"http://www.w3.org/1999/xhtml\"><div class=\"hapiHeaderText\">CMOdurObs_ED&lt;1hrObs=1hrBFEnc <b>DENEXPASS </b></div><table class=\"hapiPropertyTable\"><tbody><tr><td>Identifier</td><td>d7110924d65a531d7c4ff727f0066c38</td></tr><tr><td>Date of birth</td><td><span>18 September 1985</span></td></tr></tbody></table></div>"},"extension":[{"url":"http://hl7.org/fhir/us/core/StructureDefinition/us-core-race","extension":[{"url":"ombCategory","valueCoding":{"system":"urn:oid:2.16.840.1.113883.6.238","code":"1002-5","display":"American Indian or Alaska Native","userSelected":true}},{"url":"text","valueString":"American Indian or Alaska Native"}]},{"url":"http://hl7.org/fhir/us/core/StructureDefinition/us-core-ethnicity","extension":[{"url":"ombCategory","valueCoding":{"system":"urn:oid:2.16.840.1.113883.6.238","code":"2135-2","display":"Hispanic or Latino","userSelected":true}},{"url":"text","valueString":"Hispanic or Latino"}]}],"identifier":[{"type":{"coding":[{"system":"http://terminology.hl7.org/CodeSystem/v2-0203","code":"MR"}]},"system":"https://bonnie-fhir.healthit.gov/","value":"633c9d030968f8012250fc86"}],"active":true,"name":[{"use":"usual","family":"DENEXPass","given":["CMOdurObs_ED<1hrObs=1hrBFEnc"]}],"gender":"female","birthDate":"1985-09-18"},"request":{"method":"PUT","url":"Patient/52000554-a254-47c1-bbce-c428dfcf9de5"}},{"fullUrl":"https://madie.cms.gov/Condition/57951096-0dd4-4aed-bd5a-f722d14d9fb1","resource":{"resourceType":"Condition","id":"57951096-0dd4-4aed-bd5a-f722d14d9fb1","meta":{"profile":["http://hl7.org/fhir/us/qicore/StructureDefinition/qicore-condition"]},"clinicalStatus":{"coding":[{"system":"http://terminology.hl7.org/CodeSystem/condition-clinical","code":"inactive"}]},"verificationStatus":{"coding":[{"system":"http://terminology.hl7.org/CodeSystem/condition-ver-status","code":"confirmed"}]},"category":[{"coding":[{"system":"http://terminology.hl7.org/CodeSystem/condition-category","code":"encounter-diagnosis","display":"Encounter Diagnosis"}]}],"code":{"coding":[{"system":"http://hl7.org/fhir/sid/icd-10-cm","code":"I48.20"},{"system":"http://hl7.org/fhir/sid/icd-10-cm","code":"I48.0"},{"system":"http://snomed.info/sct","code":"5370000"}]},"subject":{"reference":"Patient/52000554-a254-47c1-bbce-c428dfcf9de5"},"onsetDateTime":"2025-09-30T09:00:00.000Z","abatementDateTime":"2025-10-12T00:15:00.000Z"},"request":{"method":"PUT","url":"Condition/57951096-0dd4-4aed-bd5a-f722d14d9fb1"}},{"fullUrl":"https://madie.cms.gov/Encounter/a0c9c290-e98d-4f6f-9ab8-d026b36b5cd5","resource":{"resourceType":"Encounter","id":"a0c9c290-e98d-4f6f-9ab8-d026b36b5cd5","meta":{"profile":["http://hl7.org/fhir/us/qicore/StructureDefinition/qicore-encounter"]},"status":"finished","class":{"system":"http://terminology.hl7.org/CodeSystem/v3-ActCode","code":"EMER","display":"emergency"},"type":[{"coding":[{"system":"http://snomed.info/sct","code":"4525004"}]}],"subject":{"reference":"Patient/52000554-a254-47c1-bbce-c428dfcf9de5"},"period":{"start":"2025-09-30T07:59:00.000Z","end":"2025-09-30T08:00:00.000Z"},"length":{"value":0,"unit":"days"}},"request":{"method":"PUT","url":"Encounter/a0c9c290-e98d-4f6f-9ab8-d026b36b5cd5"}},{"fullUrl":"https://madie.cms.gov/Encounter/20fd1b0d-18fb-4195-a546-209f9416c026","resource":{"resourceType":"Encounter","id":"20fd1b0d-18fb-4195-a546-209f9416c026","meta":{"profile":["http://hl7.org/fhir/us/qicore/StructureDefinition/qicore-encounter"]},"status":"finished","class":{"system":"http://terminology.hl7.org/CodeSystem/v3-ActCode","code":"OBSENC","display":"observation encounter"},"type":[{"coding":[{"system":"http://snomed.info/sct","code":"448951000124107"}]}],"subject":{"reference":"Patient/52000554-a254-47c1-bbce-c428dfcf9de5"},"period":{"start":"2025-09-30T08:01:00.000Z","end":"2025-09-30T10:00:00.000Z"},"length":{"value":0,"unit":"days"}},"request":{"method":"PUT","url":"Encounter/20fd1b0d-18fb-4195-a546-209f9416c026"}},{"fullUrl":"https://madie.cms.gov/Encounter/f31c2e59-c4d9-4ae8-8f41-77f4998fbec4","resource":{"resourceType":"Encounter","id":"f31c2e59-c4d9-4ae8-8f41-77f4998fbec4","meta":{"profile":["http://hl7.org/fhir/us/qicore/StructureDefinition/qicore-encounter"]},"status":"finished","class":{"system":"http://terminology.hl7.org/CodeSystem/v3-ActCode","code":"IMP","display":"inpatient encounter"},"type":[{"coding":[{"system":"http://snomed.info/sct","code":"32485007"}]}],"subject":{"reference":"Patient/52000554-a254-47c1-bbce-c428dfcf9de5"},"period":{"start":"2025-09-30T11:00:00.000Z","end":"2025-10-12T00:15:00.000Z"},"length":{"value":12,"unit":"days"},"diagnosis":[{"condition":{"reference":"Condition/cd76939b-196e-4253-b483-c603a816b9ad"},"use":{"coding":[{"system":"http://terminology.hl7.org/CodeSystem/diagnosis-role","code":"billing","display":"Billing"}]},"rank":1}]},"request":{"method":"PUT","url":"Encounter/f31c2e59-c4d9-4ae8-8f41-77f4998fbec4"}},{"fullUrl":"https://madie.cms.gov/ServiceRequest/c55ae603-4b17-4fe8-becc-2173524cce2f","resource":{"resourceType":"ServiceRequest","id":"c55ae603-4b17-4fe8-becc-2173524cce2f","meta":{"profile":["http://hl7.org/fhir/us/qicore/StructureDefinition/qicore-servicerequest"]},"status":"active","intent":"order","code":{"coding":[{"system":"http://snomed.info/sct","code":"133918004"}]},"subject":{"reference":"Patient/52000554-a254-47c1-bbce-c428dfcf9de5"},"authoredOn":"2025-09-30T08:01:00.000+00:00"},"request":{"method":"PUT","url":"ServiceRequest/c55ae603-4b17-4fe8-becc-2173524cce2f"}},{"fullUrl":"https://madie.cms.gov/Coverage/c2a2a278-4e23-434a-a572-edb054f06a16","resource":{"resourceType":"Coverage","id":"c2a2a278-4e23-434a-a572-edb054f06a16","status":"active","beneficiary":{"reference":"Patient/52000554-a254-47c1-bbce-c428dfcf9de5"},"period":{"start":"1985-09-18T08:00:00.000Z"},"payor":[{"reference":"Organization/26111c91-b0e2-476c-a20b-e3f39799f8f5"}]},"request":{"method":"PUT","url":"Coverage/c2a2a278-4e23-434a-a572-edb054f06a16"}},{"fullUrl":"https://madie.cms.gov/Condition/cd76939b-196e-4253-b483-c603a816b9ad","resource":{"resourceType":"Condition","id":"cd76939b-196e-4253-b483-c603a816b9ad","meta":{"profile":["http://hl7.org/fhir/us/qicore/StructureDefinition/qicore-condition"]},"clinicalStatus":{"coding":[{"system":"http://terminology.hl7.org/CodeSystem/condition-clinical","code":"active"}]},"verificationStatus":{"coding":[{"system":"http://terminology.hl7.org/CodeSystem/condition-ver-status","code":"confirmed"}]},"category":[{"coding":[{"system":"http://terminology.hl7.org/CodeSystem/condition-category","code":"encounter-diagnosis","display":"Encounter Diagnosis"}]}],"code":{"coding":[{"system":"http://snomed.info/sct","version":"2021-09","code":"111297002","display":"Nonparalytic stroke (disorder)","userSelected":true}]},"subject":{"reference":"Patient/52000554-a254-47c1-bbce-c428dfcf9de5"},"recordedDate":"2025-10-13T08:00:00.000+00:00"},"request":{"method":"PUT","url":"Condition/cd76939b-196e-4253-b483-c603a816b9ad"}},{"fullUrl":"https://madie.cms.gov/Organization/e94a9d4e-9cc9-41ba-91a1-dd3855dcd0f6","resource":{"resourceType":"Organization","id":"26111c91-b0e2-476c-a20b-e3f39799f8f5","meta":{"profile":["http://hl7.org/fhir/us/qicore/StructureDefinition/qicore-organization"]},"identifier":[{"use":"temp","system":"urn:oid:2.16.840.1.113883.4.4","value":"21-3259825"}],"active":true,"type":[{"coding":[{"system":"http://terminology.hl7.org/CodeSystem/organization-type","code":"pay","display":"Payer"}]}],"name":"Blue Cross Blue Shield of Texas","telecom":[{"system":"phone","value":"(+1) 972-766-6900"}],"address":[{"use":"billing","type":"postal","line":["P.O. Box 660044"],"city":"Dallas","state":"TX","postalCode":"75266-0044","country":"USA"}]},"request":{"method":"PUT","url":"Organization/26111c91-b0e2-476c-a20b-e3f39799f8f5"}},{"fullUrl":"https://madie.cms.gov/Practitioner/e55ceacd-6a8c-42ce-acaf-b292c06838b2","resource":{"resourceType":"Practitioner","id":"e55ceacd-6a8c-42ce-acaf-b292c06838b2","identifier":[{"system":"http://hl7.org/fhir/sid/us-npi","value":"123456"}],"name":[{"family":"Evil","prefix":["Dr"]}]},"request":{"method":"PUT","url":"Practitioner/e55ceacd-6a8c-42ce-acaf-b292c06838b2"}},{"fullUrl":"https://madie.cms.gov/MeasureReport/d7a561f4-8a79-4304-8881-d2cd4cdb4aaa","resource":{"resourceType":"MeasureReport","id":"d7a561f4-8a79-4304-8881-d2cd4cdb4aaa","meta":{"profile":["http://hl7.org/fhir/us/cqfmeasures/StructureDefinition/test-case-cqfm"]},"contained":[{"resourceType":"Parameters","id":"2e109867-f950-410b-96d1-6c25d2029b38-parameters","parameter":[{"name":"subject","valueString":"52000554-a254-47c1-bbce-c428dfcf9de5"}]}],"extension":[{"url":"http://hl7.org/fhir/us/cqfmeasures/StructureDefinition/cqfm-inputParameters","valueReference":{"reference":"#2e109867-f950-410b-96d1-6c25d2029b38-parameters"}},{"url":"http://hl7.org/fhir/us/cqfmeasures/StructureDefinition/cqfm-testCaseDescription","valueMarkdown":"\"Patient receives CMO order during Observation, ED visit ends 1 minute before Obs starts, Obs ends 60 min before inpatient start. Testing HospitalizationWithObservation function.\n\n\"\n"}],"modifierExtension":[{"url":"http://hl7.org/fhir/us/cqfmeasures/StructureDefinition/cqfm-isTestCase","valueBoolean":true}],"status":"complete","type":"individual","measure":"https://madie.cms.gov/Measure/AnticoagulationTherapyforAtrialFibrillationFlutterFHIR","period":{"start":"2025-01-01","end":"2025-12-31"},"group":[{"population":[{"code":{"coding":[{"system":"http://terminology.hl7.org/CodeSystem/measure-population","code":"initial-population","display":"Initial Population"}]},"count":1},{"code":{"coding":[{"system":"http://terminology.hl7.org/CodeSystem/measure-population","code":"denominator","display":"Denominator"}]},"count":1},{"code":{"coding":[{"system":"http://terminology.hl7.org/CodeSystem/measure-population","code":"denominator-exclusion","display":"Denominator Exclusion"}]},"count":1},{"code":{"coding":[{"system":"http://terminology.hl7.org/CodeSystem/measure-population","code":"numerator","display":"Numerator"}]},"count":0},{"code":{"coding":[{"system":"http://terminology.hl7.org/CodeSystem/measure-population","code":"denominator-exception","display":"Denominator Exception"}]},"count":0}]}]},"request":{"method":"PUT","url":"MeasureReport/d7a561f4-8a79-4304-8881-d2cd4cdb4aaa"}}]}