{"resourceType":"Bundle","id":"tests-e8df70c5-74a8-4a26-871c-0301bcf9fd45-bundle","type":"transaction","entry":[{"fullUrl":"https://madie.cms.gov/Patient/9f2d3569-06a0-4fb4-8417-eb335f5ce99f","resource":{"resourceType":"Patient","id":"9f2d3569-06a0-4fb4-8417-eb335f5ce99f","meta":{"profile":["http://hl7.org/fhir/us/qicore/StructureDefinition/qicore-patient"]},"text":{"status":"generated","div":"<div xmlns=\"http://www.w3.org/1999/xhtml\"><div class=\"hapiHeaderText\">DENEXPass CMOdurEnc_ED&lt;1hrNoObsBFEnc <b>DENEXPASS </b></div><table class=\"hapiPropertyTable\"><tbody><tr><td>Identifier</td><td>49d4dc38463db4c2b58eeaff86ecd8cb</td></tr><tr><td>Date of birth</td><td><span>18 September 1985</span></td></tr></tbody></table></div>"},"extension":[{"url":"http://hl7.org/fhir/us/core/StructureDefinition/us-core-race","extension":[{"url":"ombCategory","valueCoding":{"system":"urn:oid:2.16.840.1.113883.6.238","code":"1002-5","display":"American Indian or Alaska Native","userSelected":true}},{"url":"text","valueString":"American Indian or Alaska Native"}]},{"url":"http://hl7.org/fhir/us/core/StructureDefinition/us-core-ethnicity","extension":[{"url":"ombCategory","valueCoding":{"system":"urn:oid:2.16.840.1.113883.6.238","code":"2135-2","display":"Hispanic or Latino","userSelected":true}},{"url":"text","valueString":"Hispanic or Latino"}]}],"identifier":[{"type":{"coding":[{"system":"http://terminology.hl7.org/CodeSystem/v2-0203","code":"MR"}]},"system":"https://bonnie-fhir.healthit.gov/","value":"633c9d030968f8012250fc84"}],"active":true,"name":[{"use":"usual","family":"DENEXPass","given":["DENEXPass CMOdurEnc_ED<1hrNoObsBFEnc"]}],"gender":"female","birthDate":"1985-09-18"},"request":{"method":"PUT","url":"Patient/9f2d3569-06a0-4fb4-8417-eb335f5ce99f"}},{"fullUrl":"https://madie.cms.gov/Condition/f5abe415-fe5d-4d49-8b84-dddd2b44451d","resource":{"resourceType":"Condition","id":"f5abe415-fe5d-4d49-8b84-dddd2b44451d","meta":{"profile":["http://hl7.org/fhir/us/qicore/StructureDefinition/qicore-condition"]},"clinicalStatus":{"coding":[{"system":"http://terminology.hl7.org/CodeSystem/condition-clinical","code":"inactive"}]},"verificationStatus":{"coding":[{"system":"http://terminology.hl7.org/CodeSystem/condition-ver-status","code":"confirmed"}]},"category":[{"coding":[{"system":"http://terminology.hl7.org/CodeSystem/condition-category","code":"encounter-diagnosis","display":"Encounter Diagnosis"}]}],"code":{"coding":[{"system":"http://hl7.org/fhir/sid/icd-10-cm","code":"I48.20"},{"system":"http://hl7.org/fhir/sid/icd-10-cm","code":"I48.0"},{"system":"http://snomed.info/sct","code":"5370000"}]},"subject":{"reference":"Patient/9f2d3569-06a0-4fb4-8417-eb335f5ce99f"},"onsetDateTime":"2025-10-01T09:00:00.000Z","abatementDateTime":"2025-10-12T00:15:00.000Z"},"request":{"method":"PUT","url":"Condition/f5abe415-fe5d-4d49-8b84-dddd2b44451d"}},{"fullUrl":"https://madie.cms.gov/Encounter/818a31cc-88c1-4e7a-98e4-e6e6c224ad83","resource":{"resourceType":"Encounter","id":"818a31cc-88c1-4e7a-98e4-e6e6c224ad83","meta":{"profile":["http://hl7.org/fhir/us/qicore/StructureDefinition/qicore-encounter"]},"status":"finished","class":{"system":"http://terminology.hl7.org/CodeSystem/v3-ActCode","code":"EMER","display":"emergency"},"type":[{"coding":[{"system":"http://snomed.info/sct","code":"4525004"}]}],"subject":{"reference":"Patient/9f2d3569-06a0-4fb4-8417-eb335f5ce99f"},"period":{"start":"2025-10-01T09:00:00.000Z","end":"2025-10-01T11:00:00.000Z"},"length":{"value":0,"unit":"days"}},"request":{"method":"PUT","url":"Encounter/818a31cc-88c1-4e7a-98e4-e6e6c224ad83"}},{"fullUrl":"https://madie.cms.gov/Encounter/893156a1-f5c5-4997-9c15-a8948abe8b32","resource":{"resourceType":"Encounter","id":"893156a1-f5c5-4997-9c15-a8948abe8b32","meta":{"profile":["http://hl7.org/fhir/us/qicore/StructureDefinition/qicore-encounter"]},"status":"finished","class":{"system":"http://terminology.hl7.org/CodeSystem/v3-ActCode","code":"IMP","display":"inpatient encounter"},"type":[{"coding":[{"system":"http://snomed.info/sct","code":"32485007"}]}],"subject":{"reference":"Patient/9f2d3569-06a0-4fb4-8417-eb335f5ce99f"},"period":{"start":"2025-10-01T11:59:00.000Z","end":"2025-10-12T00:15:00.000Z"},"length":{"value":11,"unit":"days"},"diagnosis":[{"condition":{"reference":"Condition/b75f553e-7206-4ccb-afe6-66389c5efd83"},"use":{"coding":[{"system":"http://terminology.hl7.org/CodeSystem/diagnosis-role","code":"billing","display":"Billing"}]},"rank":1}]},"request":{"method":"PUT","url":"Encounter/893156a1-f5c5-4997-9c15-a8948abe8b32"}},{"fullUrl":"https://madie.cms.gov/ServiceRequest/699799de-fc6f-4084-8181-7f6e58041f8d","resource":{"resourceType":"ServiceRequest","id":"699799de-fc6f-4084-8181-7f6e58041f8d","meta":{"profile":["http://hl7.org/fhir/us/qicore/StructureDefinition/qicore-servicerequest"]},"status":"active","intent":"order","code":{"coding":[{"system":"http://snomed.info/sct","code":"133918004"}]},"subject":{"reference":"Patient/9f2d3569-06a0-4fb4-8417-eb335f5ce99f"},"authoredOn":"2025-10-01T11:30:00.000+00:00"},"request":{"method":"PUT","url":"ServiceRequest/699799de-fc6f-4084-8181-7f6e58041f8d"}},{"fullUrl":"https://madie.cms.gov/Coverage/afb7fb17-2f8a-4727-be81-7c9ae12e0763","resource":{"resourceType":"Coverage","id":"afb7fb17-2f8a-4727-be81-7c9ae12e0763","status":"active","beneficiary":{"reference":"Patient/9f2d3569-06a0-4fb4-8417-eb335f5ce99f"},"period":{"start":"1985-09-18T08:00:00.000Z"},"payor":[{"reference":"Organization/26111c91-b0e2-476c-a20b-e3f39799f8f5"}]},"request":{"method":"PUT","url":"Coverage/afb7fb17-2f8a-4727-be81-7c9ae12e0763"}},{"fullUrl":"https://madie.cms.gov/Condition/b75f553e-7206-4ccb-afe6-66389c5efd83","resource":{"resourceType":"Condition","id":"b75f553e-7206-4ccb-afe6-66389c5efd83","meta":{"profile":["http://hl7.org/fhir/us/qicore/StructureDefinition/qicore-condition"]},"clinicalStatus":{"coding":[{"system":"http://terminology.hl7.org/CodeSystem/condition-clinical","code":"active"}]},"verificationStatus":{"coding":[{"system":"http://terminology.hl7.org/CodeSystem/condition-ver-status","code":"confirmed"}]},"category":[{"coding":[{"system":"http://terminology.hl7.org/CodeSystem/condition-category","code":"encounter-diagnosis","display":"Encounter Diagnosis"}]}],"code":{"coding":[{"system":"http://snomed.info/sct","version":"2021-09","code":"111297002","display":"Nonparalytic stroke (disorder)","userSelected":true}]},"subject":{"reference":"Patient/9f2d3569-06a0-4fb4-8417-eb335f5ce99f"},"recordedDate":"2025-10-13T08:00:00.000+00:00"},"request":{"method":"PUT","url":"Condition/b75f553e-7206-4ccb-afe6-66389c5efd83"}},{"fullUrl":"https://madie.cms.gov/Organization/e9db0427-5176-48a2-bea8-5e44164ec6f8","resource":{"resourceType":"Organization","id":"26111c91-b0e2-476c-a20b-e3f39799f8f5","meta":{"profile":["http://hl7.org/fhir/us/qicore/StructureDefinition/qicore-organization"]},"identifier":[{"use":"temp","system":"urn:oid:2.16.840.1.113883.4.4","value":"21-3259825"}],"active":true,"type":[{"coding":[{"system":"http://terminology.hl7.org/CodeSystem/organization-type","code":"pay","display":"Payer"}]}],"name":"Blue Cross Blue Shield of Texas","telecom":[{"system":"phone","value":"(+1) 972-766-6900"}],"address":[{"use":"billing","type":"postal","line":["P.O. Box 660044"],"city":"Dallas","state":"TX","postalCode":"75266-0044","country":"USA"}]},"request":{"method":"PUT","url":"Organization/26111c91-b0e2-476c-a20b-e3f39799f8f5"}},{"fullUrl":"https://madie.cms.gov/Practitioner/3fb778a4-73bd-41fe-962d-4b8ef6f10048","resource":{"resourceType":"Practitioner","id":"3fb778a4-73bd-41fe-962d-4b8ef6f10048","identifier":[{"system":"http://hl7.org/fhir/sid/us-npi","value":"123456"}],"name":[{"family":"Evil","prefix":["Dr"]}]},"request":{"method":"PUT","url":"Practitioner/3fb778a4-73bd-41fe-962d-4b8ef6f10048"}},{"fullUrl":"https://madie.cms.gov/MeasureReport/6e39bcb9-f73a-482b-85f6-115d4426a16d","resource":{"resourceType":"MeasureReport","id":"6e39bcb9-f73a-482b-85f6-115d4426a16d","meta":{"profile":["http://hl7.org/fhir/us/cqfmeasures/StructureDefinition/test-case-cqfm"]},"contained":[{"resourceType":"Parameters","id":"0bdf3f83-a5ca-4e43-bd22-e1e8aeb47659-parameters","parameter":[{"name":"subject","valueString":"9f2d3569-06a0-4fb4-8417-eb335f5ce99f"}]}],"extension":[{"url":"http://hl7.org/fhir/us/cqfmeasures/StructureDefinition/cqfm-inputParameters","valueReference":{"reference":"#0bdf3f83-a5ca-4e43-bd22-e1e8aeb47659-parameters"}},{"url":"http://hl7.org/fhir/us/cqfmeasures/StructureDefinition/cqfm-testCaseDescription","valueMarkdown":"Patient receives CMO during inpatient encounter. ED starts 59 minutes before inpatient encounter start on the same day. No Observation. Testing day of operator with HospitalizationWithObservation function.\n"}],"modifierExtension":[{"url":"http://hl7.org/fhir/us/cqfmeasures/StructureDefinition/cqfm-isTestCase","valueBoolean":true}],"status":"complete","type":"individual","measure":"https://madie.cms.gov/Measure/AnticoagulationTherapyforAtrialFibrillationFlutterFHIR","period":{"start":"2025-01-01","end":"2025-12-31"},"group":[{"population":[{"code":{"coding":[{"system":"http://terminology.hl7.org/CodeSystem/measure-population","code":"initial-population","display":"Initial Population"}]},"count":1},{"code":{"coding":[{"system":"http://terminology.hl7.org/CodeSystem/measure-population","code":"denominator","display":"Denominator"}]},"count":1},{"code":{"coding":[{"system":"http://terminology.hl7.org/CodeSystem/measure-population","code":"denominator-exclusion","display":"Denominator Exclusion"}]},"count":1},{"code":{"coding":[{"system":"http://terminology.hl7.org/CodeSystem/measure-population","code":"numerator","display":"Numerator"}]},"count":0},{"code":{"coding":[{"system":"http://terminology.hl7.org/CodeSystem/measure-population","code":"denominator-exception","display":"Denominator Exception"}]},"count":0}]}]},"request":{"method":"PUT","url":"MeasureReport/6e39bcb9-f73a-482b-85f6-115d4426a16d"}}]}