{"resourceType":"Bundle","id":"tests-bfa4b097-4c27-4046-a036-d97267e94113-bundle","type":"transaction","entry":[{"fullUrl":"https://madie.cms.gov/Patient/c9dc6257-85ef-45ec-a930-7827d5df4a93","resource":{"resourceType":"Patient","id":"c9dc6257-85ef-45ec-a930-7827d5df4a93","meta":{"profile":["http://hl7.org/fhir/us/qicore/StructureDefinition/qicore-patient"]},"text":{"status":"generated","div":"<div xmlns=\"http://www.w3.org/1999/xhtml\"><div class=\"hapiHeaderText\">CMOdurED_ED&lt;1hrNoObsBFEnc <b>DENEXPASS </b></div><table class=\"hapiPropertyTable\"><tbody><tr><td>Identifier</td><td>cd0066a23b25d0eb7377a3fb55c6a2f4</td></tr><tr><td>Date of birth</td><td><span>18 September 1985</span></td></tr></tbody></table></div>"},"extension":[{"url":"http://hl7.org/fhir/us/core/StructureDefinition/us-core-race","extension":[{"url":"ombCategory","valueCoding":{"system":"urn:oid:2.16.840.1.113883.6.238","code":"1002-5","display":"American Indian or Alaska Native","userSelected":true}},{"url":"text","valueString":"American Indian or Alaska Native"}]},{"url":"http://hl7.org/fhir/us/core/StructureDefinition/us-core-ethnicity","extension":[{"url":"ombCategory","valueCoding":{"system":"urn:oid:2.16.840.1.113883.6.238","code":"2135-2","display":"Hispanic or Latino","userSelected":true}},{"url":"text","valueString":"Hispanic or Latino"}]}],"identifier":[{"type":{"coding":[{"system":"http://terminology.hl7.org/CodeSystem/v2-0203","code":"MR"}]},"system":"https://bonnie-fhir.healthit.gov/","value":"633c9d030968f8012250fc88"}],"active":true,"name":[{"use":"usual","family":"DENEXPass","given":["CMOdurED_ED<1hrNoObsBFEnc"]}],"gender":"female","birthDate":"1985-09-18"},"request":{"method":"PUT","url":"Patient/c9dc6257-85ef-45ec-a930-7827d5df4a93"}},{"fullUrl":"https://madie.cms.gov/Condition/60d1a403-016e-4810-94e2-fd3475aec81f","resource":{"resourceType":"Condition","id":"60d1a403-016e-4810-94e2-fd3475aec81f","meta":{"profile":["http://hl7.org/fhir/us/qicore/StructureDefinition/qicore-condition"]},"clinicalStatus":{"coding":[{"system":"http://terminology.hl7.org/CodeSystem/condition-clinical","code":"inactive"}]},"verificationStatus":{"coding":[{"system":"http://terminology.hl7.org/CodeSystem/condition-ver-status","code":"confirmed"}]},"category":[{"coding":[{"system":"http://terminology.hl7.org/CodeSystem/condition-category","code":"encounter-diagnosis","display":"Encounter Diagnosis"}]}],"code":{"coding":[{"system":"http://hl7.org/fhir/sid/icd-10-cm","code":"I48.20"},{"system":"http://hl7.org/fhir/sid/icd-10-cm","code":"I48.0"},{"system":"http://snomed.info/sct","code":"5370000"}]},"subject":{"reference":"Patient/c9dc6257-85ef-45ec-a930-7827d5df4a93"},"onsetDateTime":"2025-10-01T09:01:00.000Z","abatementDateTime":"2025-10-12T00:15:00.000Z"},"request":{"method":"PUT","url":"Condition/60d1a403-016e-4810-94e2-fd3475aec81f"}},{"fullUrl":"https://madie.cms.gov/Encounter/2dc3e23c-e732-4a54-a804-211bfdf659a8","resource":{"resourceType":"Encounter","id":"2dc3e23c-e732-4a54-a804-211bfdf659a8","meta":{"profile":["http://hl7.org/fhir/us/qicore/StructureDefinition/qicore-encounter"]},"status":"finished","class":{"system":"http://terminology.hl7.org/CodeSystem/v3-ActCode","code":"EMER","display":"emergency"},"type":[{"coding":[{"system":"http://snomed.info/sct","code":"4525004"}]}],"subject":{"reference":"Patient/c9dc6257-85ef-45ec-a930-7827d5df4a93"},"period":{"start":"2025-10-01T09:01:00.000Z","end":"2025-10-01T12:15:00.000Z"},"length":{"value":0,"unit":"days"}},"request":{"method":"PUT","url":"Encounter/2dc3e23c-e732-4a54-a804-211bfdf659a8"}},{"fullUrl":"https://madie.cms.gov/Encounter/2ddb6a67-82e9-455a-bdbd-d5b0a076fcb1","resource":{"resourceType":"Encounter","id":"2ddb6a67-82e9-455a-bdbd-d5b0a076fcb1","meta":{"profile":["http://hl7.org/fhir/us/qicore/StructureDefinition/qicore-encounter"]},"status":"finished","class":{"system":"http://terminology.hl7.org/CodeSystem/v3-ActCode","code":"IMP","display":"inpatient encounter"},"type":[{"coding":[{"system":"http://snomed.info/sct","code":"32485007"}]}],"subject":{"reference":"Patient/c9dc6257-85ef-45ec-a930-7827d5df4a93"},"period":{"start":"2025-10-01T12:16:00.000Z","end":"2025-10-12T00:15:00.000Z"},"length":{"value":11,"unit":"days"},"diagnosis":[{"condition":{"reference":"Condition/90aa2f64-01e9-4a2b-956c-5974e559cfc9"},"use":{"coding":[{"system":"http://terminology.hl7.org/CodeSystem/diagnosis-role","code":"billing","display":"Billing"}]},"rank":1}]},"request":{"method":"PUT","url":"Encounter/2ddb6a67-82e9-455a-bdbd-d5b0a076fcb1"}},{"fullUrl":"https://madie.cms.gov/ServiceRequest/940a7dec-5a9c-4c89-9ee5-e1934d7cfb84","resource":{"resourceType":"ServiceRequest","id":"940a7dec-5a9c-4c89-9ee5-e1934d7cfb84","meta":{"profile":["http://hl7.org/fhir/us/qicore/StructureDefinition/qicore-servicerequest"]},"status":"active","intent":"order","code":{"coding":[{"system":"http://snomed.info/sct","code":"133918004"}]},"subject":{"reference":"Patient/c9dc6257-85ef-45ec-a930-7827d5df4a93"},"authoredOn":"2025-10-01T09:15:00.000+00:00"},"request":{"method":"PUT","url":"ServiceRequest/940a7dec-5a9c-4c89-9ee5-e1934d7cfb84"}},{"fullUrl":"https://madie.cms.gov/Coverage/b9bc643a-d7bd-4f7c-bc5e-9141192e3225","resource":{"resourceType":"Coverage","id":"b9bc643a-d7bd-4f7c-bc5e-9141192e3225","status":"active","beneficiary":{"reference":"Patient/c9dc6257-85ef-45ec-a930-7827d5df4a93"},"period":{"start":"1985-09-18T08:00:00.000Z"},"payor":[{"reference":"Organization/26111c91-b0e2-476c-a20b-e3f39799f8f5"}]},"request":{"method":"PUT","url":"Coverage/b9bc643a-d7bd-4f7c-bc5e-9141192e3225"}},{"fullUrl":"https://madie.cms.gov/Condition/90aa2f64-01e9-4a2b-956c-5974e559cfc9","resource":{"resourceType":"Condition","id":"90aa2f64-01e9-4a2b-956c-5974e559cfc9","meta":{"profile":["http://hl7.org/fhir/us/qicore/StructureDefinition/qicore-condition"]},"clinicalStatus":{"coding":[{"system":"http://terminology.hl7.org/CodeSystem/condition-clinical","code":"active"}]},"verificationStatus":{"coding":[{"system":"http://terminology.hl7.org/CodeSystem/condition-ver-status","code":"confirmed"}]},"category":[{"coding":[{"system":"http://terminology.hl7.org/CodeSystem/condition-category","code":"encounter-diagnosis","display":"Encounter Diagnosis"}]}],"code":{"coding":[{"system":"http://snomed.info/sct","version":"2021-09","code":"111297002","display":"Nonparalytic stroke (disorder)","userSelected":true}]},"subject":{"reference":"Patient/c9dc6257-85ef-45ec-a930-7827d5df4a93"},"recordedDate":"2025-10-13T08:00:00.000+00:00"},"request":{"method":"PUT","url":"Condition/90aa2f64-01e9-4a2b-956c-5974e559cfc9"}},{"fullUrl":"https://madie.cms.gov/Organization/4e0d785f-d0b1-4082-b0ab-c5bdc561fc06","resource":{"resourceType":"Organization","id":"26111c91-b0e2-476c-a20b-e3f39799f8f5","meta":{"profile":["http://hl7.org/fhir/us/qicore/StructureDefinition/qicore-organization"]},"identifier":[{"use":"temp","system":"urn:oid:2.16.840.1.113883.4.4","value":"21-3259825"}],"active":true,"type":[{"coding":[{"system":"http://terminology.hl7.org/CodeSystem/organization-type","code":"pay","display":"Payer"}]}],"name":"Blue Cross Blue Shield of Texas","telecom":[{"system":"phone","value":"(+1) 972-766-6900"}],"address":[{"use":"billing","type":"postal","line":["P.O. Box 660044"],"city":"Dallas","state":"TX","postalCode":"75266-0044","country":"USA"}]},"request":{"method":"PUT","url":"Organization/26111c91-b0e2-476c-a20b-e3f39799f8f5"}},{"fullUrl":"https://madie.cms.gov/Practitioner/f34beb0d-4e92-4dae-b15a-6a2bc090e110","resource":{"resourceType":"Practitioner","id":"f34beb0d-4e92-4dae-b15a-6a2bc090e110","identifier":[{"system":"http://hl7.org/fhir/sid/us-npi","value":"123456"}],"name":[{"family":"Evil","prefix":["Dr"]}]},"request":{"method":"PUT","url":"Practitioner/f34beb0d-4e92-4dae-b15a-6a2bc090e110"}},{"fullUrl":"https://madie.cms.gov/MeasureReport/2eb4f39b-eb1a-4de8-8a10-e95ee64839be","resource":{"resourceType":"MeasureReport","id":"2eb4f39b-eb1a-4de8-8a10-e95ee64839be","meta":{"profile":["http://hl7.org/fhir/us/cqfmeasures/StructureDefinition/test-case-cqfm"]},"contained":[{"resourceType":"Parameters","id":"4af920b9-6356-4144-a65b-11666fc43aef-parameters","parameter":[{"name":"subject","valueString":"c9dc6257-85ef-45ec-a930-7827d5df4a93"}]}],"extension":[{"url":"http://hl7.org/fhir/us/cqfmeasures/StructureDefinition/cqfm-inputParameters","valueReference":{"reference":"#4af920b9-6356-4144-a65b-11666fc43aef-parameters"}},{"url":"http://hl7.org/fhir/us/cqfmeasures/StructureDefinition/cqfm-testCaseDescription","valueMarkdown":"Patient receives CMO during ED. ED ends 1 min before Obs start and Obs ends 1 min before inpatient start.  Testing HospitalizationWithObservation function"}],"modifierExtension":[{"url":"http://hl7.org/fhir/us/cqfmeasures/StructureDefinition/cqfm-isTestCase","valueBoolean":true}],"status":"complete","type":"individual","measure":"https://madie.cms.gov/Measure/AnticoagulationTherapyforAtrialFibrillationFlutterFHIR","period":{"start":"2025-01-01","end":"2025-12-31"},"group":[{"population":[{"code":{"coding":[{"system":"http://terminology.hl7.org/CodeSystem/measure-population","code":"initial-population","display":"Initial Population"}]},"count":1},{"code":{"coding":[{"system":"http://terminology.hl7.org/CodeSystem/measure-population","code":"denominator","display":"Denominator"}]},"count":1},{"code":{"coding":[{"system":"http://terminology.hl7.org/CodeSystem/measure-population","code":"denominator-exclusion","display":"Denominator Exclusion"}]},"count":1},{"code":{"coding":[{"system":"http://terminology.hl7.org/CodeSystem/measure-population","code":"numerator","display":"Numerator"}]},"count":0},{"code":{"coding":[{"system":"http://terminology.hl7.org/CodeSystem/measure-population","code":"denominator-exception","display":"Denominator Exception"}]},"count":0}]}]},"request":{"method":"PUT","url":"MeasureReport/2eb4f39b-eb1a-4de8-8a10-e95ee64839be"}}]}