{"resourceType":"Bundle","id":"tests-b29204ac-96ce-4be0-90ad-ae8ecfa4f245-bundle","type":"transaction","entry":[{"fullUrl":"https://madie.cms.gov/Patient/01c6e17a-c8da-4a75-a992-4f40ac8e8a50","resource":{"resourceType":"Patient","id":"01c6e17a-c8da-4a75-a992-4f40ac8e8a50","meta":{"profile":["http://hl7.org/fhir/us/qicore/StructureDefinition/qicore-patient"]},"text":{"status":"generated","div":"<div xmlns=\"http://www.w3.org/1999/xhtml\"><div class=\"hapiHeaderText\">MedDCMedReason <b>DENEXCEPPASS </b></div><table class=\"hapiPropertyTable\"><tbody><tr><td>Identifier</td><td>a74a3b413f99bbe600a1f178896a0083</td></tr><tr><td>Date of birth</td><td><span>23 May 1954</span></td></tr></tbody></table></div>"},"extension":[{"url":"http://hl7.org/fhir/us/core/StructureDefinition/us-core-race","extension":[{"url":"ombCategory","valueCoding":{"system":"urn:oid:2.16.840.1.113883.6.238","code":"1002-5","display":"American Indian or Alaska Native","userSelected":true}},{"url":"text","valueString":"American Indian or Alaska Native"}]},{"url":"http://hl7.org/fhir/us/core/StructureDefinition/us-core-ethnicity","extension":[{"url":"ombCategory","valueCoding":{"system":"urn:oid:2.16.840.1.113883.6.238","code":"2135-2","display":"Hispanic or Latino","userSelected":true}},{"url":"text","valueString":"Hispanic or Latino"}]}],"identifier":[{"type":{"coding":[{"system":"http://terminology.hl7.org/CodeSystem/v2-0203","code":"MR"}]},"system":"https://bonnie-fhir.healthit.gov/","value":"633c9d030968f8012250fc6f"}],"active":true,"name":[{"use":"usual","family":"DENEXCEPPass","given":["MedDCMedReason"]}],"gender":"female","birthDate":"1954-05-23"},"request":{"method":"PUT","url":"Patient/01c6e17a-c8da-4a75-a992-4f40ac8e8a50"}},{"fullUrl":"https://madie.cms.gov/Encounter/d7c2370c-eda6-4d78-a22d-2f1fba97bbaa","resource":{"resourceType":"Encounter","id":"d7c2370c-eda6-4d78-a22d-2f1fba97bbaa","meta":{"profile":["http://hl7.org/fhir/us/qicore/StructureDefinition/qicore-encounter"]},"status":"finished","class":{"system":"http://terminology.hl7.org/CodeSystem/v3-ActCode","code":"IMP","display":"inpatient encounter"},"type":[{"coding":[{"system":"http://snomed.info/sct","code":"32485007"}]}],"subject":{"reference":"Patient/01c6e17a-c8da-4a75-a992-4f40ac8e8a50"},"period":{"start":"2025-11-20T08:00:00.000Z","end":"2025-11-24T08:15:00.000Z"},"length":{"value":4,"unit":"days"},"diagnosis":[{"condition":{"reference":"Condition/99ae67b7-4000-4003-913e-7a1c956207ad"},"use":{"coding":[{"system":"http://terminology.hl7.org/CodeSystem/diagnosis-role","code":"billing","display":"Billing"}]},"rank":1}]},"request":{"method":"PUT","url":"Encounter/d7c2370c-eda6-4d78-a22d-2f1fba97bbaa"}},{"fullUrl":"https://madie.cms.gov/MedicationRequest/a1143479-e62e-4d89-9c84-68effda001d0","resource":{"resourceType":"MedicationRequest","id":"a1143479-e62e-4d89-9c84-68effda001d0","meta":{"profile":["http://hl7.org/fhir/us/qicore/StructureDefinition/qicore-mednotrequested"]},"status":"completed","intent":"order","category":[{"coding":[{"system":"http://terminology.hl7.org/CodeSystem/medicationrequest-category","code":"community"}]}],"doNotPerform":true,"medicationCodeableConcept":{"coding":[{"system":"http://www.nlm.nih.gov/research/umls/rxnorm","code":"308351"}]},"subject":{"reference":"Patient/01c6e17a-c8da-4a75-a992-4f40ac8e8a50"},"authoredOn":"2025-11-24T08:10:00.000+00:00","requester":{"reference":"Practitioner/example"},"reasonCode":[{"coding":[{"system":"http://snomed.info/sct","code":"183932001"}]}]},"request":{"method":"PUT","url":"MedicationRequest/a1143479-e62e-4d89-9c84-68effda001d0"}},{"fullUrl":"https://madie.cms.gov/Coverage/4b5b7a77-c954-4d01-92e0-73cd12af3a78","resource":{"resourceType":"Coverage","id":"4b5b7a77-c954-4d01-92e0-73cd12af3a78","status":"active","beneficiary":{"reference":"Patient/01c6e17a-c8da-4a75-a992-4f40ac8e8a50"},"period":{"start":"1954-05-23T08:00:00.000Z"},"payor":[{"reference":"Organization/26111c91-b0e2-476c-a20b-e3f39799f8f5"}]},"request":{"method":"PUT","url":"Coverage/4b5b7a77-c954-4d01-92e0-73cd12af3a78"}},{"fullUrl":"https://madie.cms.gov/Procedure/64b433c2-4fb3-4dd9-8867-a603b283efd1","resource":{"resourceType":"Procedure","id":"64b433c2-4fb3-4dd9-8867-a603b283efd1","meta":{"profile":["http://hl7.org/fhir/us/qicore/StructureDefinition/qicore-procedure"]},"extension":[{"url":"http://hl7.org/fhir/us/qicore/StructureDefinition/qicore-recorded","valueDateTime":"2013-04-05T09:35:00-04:00"}],"status":"completed","code":{"coding":[{"system":"http://www.cms.gov/Medicare/Coding/ICD10","code":"02560ZZ"},{"system":"http://snomed.info/sct","code":"175095005"}]},"subject":{"reference":"Patient/01c6e17a-c8da-4a75-a992-4f40ac8e8a50"},"performedPeriod":{"start":"2025-11-20T06:00:00.000Z","end":"2025-11-20T07:15:00.000Z"}},"request":{"method":"PUT","url":"Procedure/64b433c2-4fb3-4dd9-8867-a603b283efd1"}},{"fullUrl":"https://madie.cms.gov/Condition/99ae67b7-4000-4003-913e-7a1c956207ad","resource":{"resourceType":"Condition","id":"99ae67b7-4000-4003-913e-7a1c956207ad","meta":{"profile":["http://hl7.org/fhir/us/qicore/StructureDefinition/qicore-condition"]},"clinicalStatus":{"coding":[{"system":"http://terminology.hl7.org/CodeSystem/condition-clinical","code":"active"}]},"verificationStatus":{"coding":[{"system":"http://terminology.hl7.org/CodeSystem/condition-ver-status","code":"confirmed"}]},"category":[{"coding":[{"system":"http://terminology.hl7.org/CodeSystem/condition-category","code":"encounter-diagnosis","display":"Encounter Diagnosis"}]}],"code":{"coding":[{"system":"http://snomed.info/sct","version":"2021-09","code":"111297002","display":"Nonparalytic stroke (disorder)","userSelected":true}]},"subject":{"reference":"Patient/01c6e17a-c8da-4a75-a992-4f40ac8e8a50"},"recordedDate":"2025-10-13T08:00:00.000+00:00"},"request":{"method":"PUT","url":"Condition/99ae67b7-4000-4003-913e-7a1c956207ad"}},{"fullUrl":"https://madie.cms.gov/Organization/9cb59b1d-4b10-40cd-9a02-8908aa0703d0","resource":{"resourceType":"Organization","id":"26111c91-b0e2-476c-a20b-e3f39799f8f5","meta":{"profile":["http://hl7.org/fhir/us/qicore/StructureDefinition/qicore-organization"]},"identifier":[{"use":"temp","system":"urn:oid:2.16.840.1.113883.4.4","value":"21-3259825"}],"active":true,"type":[{"coding":[{"system":"http://terminology.hl7.org/CodeSystem/organization-type","code":"pay","display":"Payer"}]}],"name":"Blue Cross Blue Shield of Texas","telecom":[{"system":"phone","value":"(+1) 972-766-6900"}],"address":[{"use":"billing","type":"postal","line":["P.O. Box 660044"],"city":"Dallas","state":"TX","postalCode":"75266-0044","country":"USA"}]},"request":{"method":"PUT","url":"Organization/26111c91-b0e2-476c-a20b-e3f39799f8f5"}},{"fullUrl":"https://madie.cms.gov/MeasureReport/13329e18-c0ba-4eb2-981a-f428b3dadabb","resource":{"resourceType":"MeasureReport","id":"13329e18-c0ba-4eb2-981a-f428b3dadabb","meta":{"profile":["http://hl7.org/fhir/us/cqfmeasures/StructureDefinition/test-case-cqfm"]},"contained":[{"resourceType":"Parameters","id":"fe3ca51c-5ff5-43dc-a031-0c0b0b16adb2-parameters","parameter":[{"name":"subject","valueString":"01c6e17a-c8da-4a75-a992-4f40ac8e8a50"}]}],"extension":[{"url":"http://hl7.org/fhir/us/cqfmeasures/StructureDefinition/cqfm-inputParameters","valueReference":{"reference":"#fe3ca51c-5ff5-43dc-a031-0c0b0b16adb2-parameters"}},{"url":"http://hl7.org/fhir/us/cqfmeasures/StructureDefinition/cqfm-testCaseDescription","valueMarkdown":"Patient did not receive anticoagulant on dc due to medical reason\n"}],"modifierExtension":[{"url":"http://hl7.org/fhir/us/cqfmeasures/StructureDefinition/cqfm-isTestCase","valueBoolean":true}],"status":"complete","type":"individual","measure":"https://madie.cms.gov/Measure/AnticoagulationTherapyforAtrialFibrillationFlutterFHIR","period":{"start":"2025-01-01","end":"2025-12-31"},"group":[{"population":[{"code":{"coding":[{"system":"http://terminology.hl7.org/CodeSystem/measure-population","code":"initial-population","display":"Initial Population"}]},"count":1},{"code":{"coding":[{"system":"http://terminology.hl7.org/CodeSystem/measure-population","code":"denominator","display":"Denominator"}]},"count":1},{"code":{"coding":[{"system":"http://terminology.hl7.org/CodeSystem/measure-population","code":"denominator-exclusion","display":"Denominator Exclusion"}]},"count":0},{"code":{"coding":[{"system":"http://terminology.hl7.org/CodeSystem/measure-population","code":"numerator","display":"Numerator"}]},"count":0},{"code":{"coding":[{"system":"http://terminology.hl7.org/CodeSystem/measure-population","code":"denominator-exception","display":"Denominator Exception"}]},"count":1}]}]},"request":{"method":"PUT","url":"MeasureReport/13329e18-c0ba-4eb2-981a-f428b3dadabb"}}]}