{"resourceType":"Bundle","id":"tests-a8856231-e110-4811-ac95-3f65c3d440fa-bundle","type":"transaction","entry":[{"fullUrl":"https://madie.cms.gov/Patient/82bb6cab-09d2-4493-b3a1-100a8da76c38","resource":{"resourceType":"Patient","id":"82bb6cab-09d2-4493-b3a1-100a8da76c38","meta":{"profile":["http://hl7.org/fhir/us/qicore/StructureDefinition/qicore-patient"]},"text":{"status":"generated","div":"<div xmlns=\"http://www.w3.org/1999/xhtml\"><div class=\"hapiHeaderText\">CMOdurED_ED&lt;1hrObs&lt;1hrBFEnc <b>DENEXPASS </b></div><table class=\"hapiPropertyTable\"><tbody><tr><td>Identifier</td><td>0b5c2e2db5c7f9518d6eb2bf44cd7df8817ff6b8521c862f9878d999f0ab28a2</td></tr><tr><td>Date of birth</td><td><span>18 September 1985</span></td></tr></tbody></table></div>"},"extension":[{"url":"http://hl7.org/fhir/us/core/StructureDefinition/us-core-race","extension":[{"url":"ombCategory","valueCoding":{"system":"urn:oid:2.16.840.1.113883.6.238","code":"1002-5","display":"American Indian or Alaska Native","userSelected":true}},{"url":"text","valueString":"American Indian or Alaska Native"}]},{"url":"http://hl7.org/fhir/us/core/StructureDefinition/us-core-ethnicity","extension":[{"url":"ombCategory","valueCoding":{"system":"urn:oid:2.16.840.1.113883.6.238","code":"2135-2","display":"Hispanic or Latino","userSelected":true}},{"url":"text","valueString":"Hispanic or Latino"}]}],"identifier":[{"type":{"coding":[{"system":"http://terminology.hl7.org/CodeSystem/v2-0203","code":"MR"}]},"system":"https://bonnie-fhir.healthit.gov/","value":"633c9d040968f8012250fca4"}],"active":true,"name":[{"use":"usual","family":"DENEXPass","given":["CMOdurED_ED<1hrObs<1hrBFEnc"]}],"gender":"female","birthDate":"1985-09-18"},"request":{"method":"PUT","url":"Patient/82bb6cab-09d2-4493-b3a1-100a8da76c38"}},{"fullUrl":"https://madie.cms.gov/Condition/909fb0ed-ccd5-4dea-8d90-83f4fc821f22","resource":{"resourceType":"Condition","id":"909fb0ed-ccd5-4dea-8d90-83f4fc821f22","meta":{"profile":["http://hl7.org/fhir/us/qicore/StructureDefinition/qicore-condition"]},"clinicalStatus":{"coding":[{"system":"http://terminology.hl7.org/CodeSystem/condition-clinical","code":"inactive"}]},"verificationStatus":{"coding":[{"system":"http://terminology.hl7.org/CodeSystem/condition-ver-status","code":"confirmed"}]},"category":[{"coding":[{"system":"http://terminology.hl7.org/CodeSystem/condition-category","code":"encounter-diagnosis","display":"Encounter Diagnosis"}]}],"code":{"coding":[{"system":"http://hl7.org/fhir/sid/icd-10-cm","code":"I48.20"},{"system":"http://hl7.org/fhir/sid/icd-10-cm","code":"I48.0"},{"system":"http://snomed.info/sct","code":"5370000"}]},"subject":{"reference":"Patient/82bb6cab-09d2-4493-b3a1-100a8da76c38"},"onsetDateTime":"2025-10-01T09:00:00.000Z","abatementDateTime":"2025-10-12T00:15:00.000Z"},"request":{"method":"PUT","url":"Condition/909fb0ed-ccd5-4dea-8d90-83f4fc821f22"}},{"fullUrl":"https://madie.cms.gov/Encounter/9c2291b4-6317-4b5d-99d8-1af38377212b","resource":{"resourceType":"Encounter","id":"9c2291b4-6317-4b5d-99d8-1af38377212b","meta":{"profile":["http://hl7.org/fhir/us/qicore/StructureDefinition/qicore-encounter"]},"status":"finished","class":{"system":"http://terminology.hl7.org/CodeSystem/v3-ActCode","code":"EMER","display":"emergency"},"type":[{"coding":[{"system":"http://snomed.info/sct","code":"4525004"}]}],"subject":{"reference":"Patient/82bb6cab-09d2-4493-b3a1-100a8da76c38"},"period":{"start":"2025-09-30T07:59:00.000Z","end":"2025-09-30T09:00:00.000Z"},"length":{"value":0,"unit":"days"}},"request":{"method":"PUT","url":"Encounter/9c2291b4-6317-4b5d-99d8-1af38377212b"}},{"fullUrl":"https://madie.cms.gov/Encounter/4b874051-68d1-444c-9155-485f8eeed7d1","resource":{"resourceType":"Encounter","id":"4b874051-68d1-444c-9155-485f8eeed7d1","meta":{"profile":["http://hl7.org/fhir/us/qicore/StructureDefinition/qicore-encounter"]},"status":"finished","class":{"system":"http://terminology.hl7.org/CodeSystem/v3-ActCode","code":"OBSENC","display":"observation encounter"},"type":[{"coding":[{"system":"http://snomed.info/sct","code":"448851000124103"}]}],"subject":{"reference":"Patient/82bb6cab-09d2-4493-b3a1-100a8da76c38"},"period":{"start":"2025-09-30T09:01:00.000Z","end":"2025-09-30T09:05:00.000Z"},"length":{"value":0,"unit":"days"}},"request":{"method":"PUT","url":"Encounter/4b874051-68d1-444c-9155-485f8eeed7d1"}},{"fullUrl":"https://madie.cms.gov/Encounter/cdf03a84-4bb7-4c43-9020-5364ce5db68a","resource":{"resourceType":"Encounter","id":"cdf03a84-4bb7-4c43-9020-5364ce5db68a","meta":{"profile":["http://hl7.org/fhir/us/qicore/StructureDefinition/qicore-encounter"]},"status":"finished","class":{"system":"http://terminology.hl7.org/CodeSystem/v3-ActCode","code":"IMP","display":"inpatient encounter"},"type":[{"coding":[{"system":"http://snomed.info/sct","code":"32485007"}]}],"subject":{"reference":"Patient/82bb6cab-09d2-4493-b3a1-100a8da76c38"},"period":{"start":"2025-09-30T09:06:00.000Z","end":"2025-10-12T00:15:00.000Z"},"length":{"value":12,"unit":"days"},"diagnosis":[{"condition":{"reference":"Condition/e892eb09-b646-4f3e-9138-dc56e1be0cb6"},"use":{"coding":[{"system":"http://terminology.hl7.org/CodeSystem/diagnosis-role","code":"billing","display":"Billing"}]},"rank":1}]},"request":{"method":"PUT","url":"Encounter/cdf03a84-4bb7-4c43-9020-5364ce5db68a"}},{"fullUrl":"https://madie.cms.gov/Condition/e892eb09-b646-4f3e-9138-dc56e1be0cb6","resource":{"resourceType":"Condition","id":"e892eb09-b646-4f3e-9138-dc56e1be0cb6","meta":{"profile":["http://hl7.org/fhir/us/qicore/StructureDefinition/qicore-condition"]},"clinicalStatus":{"coding":[{"system":"http://terminology.hl7.org/CodeSystem/condition-clinical","code":"active"}]},"verificationStatus":{"coding":[{"system":"http://terminology.hl7.org/CodeSystem/condition-ver-status","code":"confirmed"}]},"category":[{"coding":[{"system":"http://terminology.hl7.org/CodeSystem/condition-category","code":"encounter-diagnosis","display":"Encounter Diagnosis"}]}],"code":{"coding":[{"system":"http://snomed.info/sct","version":"2021-09","code":"111297002","display":"Nonparalytic stroke (disorder)","userSelected":true}]},"subject":{"reference":"Patient/82bb6cab-09d2-4493-b3a1-100a8da76c38"},"recordedDate":"2025-09-30T09:06:00.000Z"},"request":{"method":"PUT","url":"Condition/e892eb09-b646-4f3e-9138-dc56e1be0cb6"}},{"fullUrl":"https://madie.cms.gov/ServiceRequest/b4ee3567-12fe-48e4-8f6a-ddc6fab3460e","resource":{"resourceType":"ServiceRequest","id":"b4ee3567-12fe-48e4-8f6a-ddc6fab3460e","meta":{"profile":["http://hl7.org/fhir/us/qicore/StructureDefinition/qicore-servicerequest"]},"status":"active","intent":"order","code":{"coding":[{"system":"http://snomed.info/sct","code":"133918004"}]},"subject":{"reference":"Patient/82bb6cab-09d2-4493-b3a1-100a8da76c38"},"authoredOn":"2025-09-30T08:01:00.000+00:00"},"request":{"method":"PUT","url":"ServiceRequest/b4ee3567-12fe-48e4-8f6a-ddc6fab3460e"}},{"fullUrl":"https://madie.cms.gov/Coverage/5143aaf4-7cea-4996-87de-672f6beddbd3","resource":{"resourceType":"Coverage","id":"5143aaf4-7cea-4996-87de-672f6beddbd3","status":"active","beneficiary":{"reference":"Patient/82bb6cab-09d2-4493-b3a1-100a8da76c38"},"period":{"start":"1985-09-18T08:00:00.000Z"},"payor":[{"reference":"Organization/26111c91-b0e2-476c-a20b-e3f39799f8f5"}]},"request":{"method":"PUT","url":"Coverage/5143aaf4-7cea-4996-87de-672f6beddbd3"}},{"fullUrl":"https://madie.cms.gov/Organization/e59e2f6e-d5cf-44d8-867d-341c59d7ded2","resource":{"resourceType":"Organization","id":"26111c91-b0e2-476c-a20b-e3f39799f8f5","meta":{"profile":["http://hl7.org/fhir/us/qicore/StructureDefinition/qicore-organization"]},"identifier":[{"use":"temp","system":"urn:oid:2.16.840.1.113883.4.4","value":"21-3259825"}],"active":true,"type":[{"coding":[{"system":"http://terminology.hl7.org/CodeSystem/organization-type","code":"pay","display":"Payer"}]}],"name":"Blue Cross Blue Shield of Texas","telecom":[{"system":"phone","value":"(+1) 972-766-6900"}],"address":[{"use":"billing","type":"postal","line":["P.O. Box 660044"],"city":"Dallas","state":"TX","postalCode":"75266-0044","country":"USA"}]},"request":{"method":"PUT","url":"Organization/26111c91-b0e2-476c-a20b-e3f39799f8f5"}},{"fullUrl":"https://madie.cms.gov/Practitioner/a5895dca-44bc-4a1a-9a36-a1aec0ca7430","resource":{"resourceType":"Practitioner","id":"a5895dca-44bc-4a1a-9a36-a1aec0ca7430","identifier":[{"system":"http://hl7.org/fhir/sid/us-npi","value":"123456"}],"name":[{"family":"Evil","prefix":["Dr"]}]},"request":{"method":"PUT","url":"Practitioner/a5895dca-44bc-4a1a-9a36-a1aec0ca7430"}},{"fullUrl":"https://madie.cms.gov/MeasureReport/5bc1851f-b366-4a6f-be7d-b6c8d9521cc0","resource":{"resourceType":"MeasureReport","id":"5bc1851f-b366-4a6f-be7d-b6c8d9521cc0","meta":{"profile":["http://hl7.org/fhir/us/cqfmeasures/StructureDefinition/test-case-cqfm"]},"contained":[{"resourceType":"Parameters","id":"670965e7-f2b3-4314-b606-2f083a95e166-parameters","parameter":[{"name":"subject","valueString":"82bb6cab-09d2-4493-b3a1-100a8da76c38"}]}],"extension":[{"url":"http://hl7.org/fhir/us/cqfmeasures/StructureDefinition/cqfm-inputParameters","valueReference":{"reference":"#670965e7-f2b3-4314-b606-2f083a95e166-parameters"}},{"url":"http://hl7.org/fhir/us/cqfmeasures/StructureDefinition/cqfm-testCaseDescription","valueMarkdown":"Patient receives CMO during ED. ED ends 1 min before Obs start and Obs ends 1 min before inpatient start.  Testing HospitalizationWithObservation function\n"}],"modifierExtension":[{"url":"http://hl7.org/fhir/us/cqfmeasures/StructureDefinition/cqfm-isTestCase","valueBoolean":true}],"status":"complete","type":"individual","measure":"https://madie.cms.gov/Measure/AnticoagulationTherapyforAtrialFibrillationFlutterFHIR","period":{"start":"2025-01-01","end":"2025-12-31"},"group":[{"population":[{"code":{"coding":[{"system":"http://terminology.hl7.org/CodeSystem/measure-population","code":"initial-population","display":"Initial Population"}]},"count":1},{"code":{"coding":[{"system":"http://terminology.hl7.org/CodeSystem/measure-population","code":"denominator","display":"Denominator"}]},"count":1},{"code":{"coding":[{"system":"http://terminology.hl7.org/CodeSystem/measure-population","code":"denominator-exclusion","display":"Denominator Exclusion"}]},"count":1},{"code":{"coding":[{"system":"http://terminology.hl7.org/CodeSystem/measure-population","code":"numerator","display":"Numerator"}]},"count":0},{"code":{"coding":[{"system":"http://terminology.hl7.org/CodeSystem/measure-population","code":"denominator-exception","display":"Denominator Exception"}]},"count":0}]}]},"request":{"method":"PUT","url":"MeasureReport/5bc1851f-b366-4a6f-be7d-b6c8d9521cc0"}}]}