{"resourceType":"Bundle","id":"tests-fd13e14c-cd97-4e81-9a69-e638b0a1fa58-bundle","type":"transaction","entry":[{"fullUrl":"https://madie.cms.gov/Patient/ee8574b0-a5be-4f2b-9ff0-68cdbda42e10","resource":{"resourceType":"Patient","id":"ee8574b0-a5be-4f2b-9ff0-68cdbda42e10","meta":{"profile":["http://hl7.org/fhir/us/qicore/StructureDefinition/qicore-patient"]},"text":{"status":"generated","div":"<div xmlns=\"http://www.w3.org/1999/xhtml\"><div class=\"hapiHeaderText\">MultipleIPEncounter <b>IPPFAIL </b></div><table class=\"hapiPropertyTable\"><tbody><tr><td>Identifier</td><td>946910ea4598e45468b2565ed3cdbc9e</td></tr><tr><td>Date of birth</td><td><span>01 December 1960</span></td></tr></tbody></table></div>"},"extension":[{"url":"http://hl7.org/fhir/us/core/StructureDefinition/us-core-race","extension":[{"url":"ombCategory","valueCoding":{"system":"urn:oid:2.16.840.1.113883.6.238","code":"1002-5","display":"American Indian or Alaska Native","userSelected":true}},{"url":"text","valueString":"American Indian or Alaska Native"}]},{"url":"http://hl7.org/fhir/us/core/StructureDefinition/us-core-ethnicity","extension":[{"url":"ombCategory","valueCoding":{"system":"urn:oid:2.16.840.1.113883.6.238","code":"2135-2","display":"Hispanic or Latino","userSelected":true}},{"url":"text","valueString":"Hispanic or Latino"}]}],"identifier":[{"type":{"coding":[{"system":"http://terminology.hl7.org/CodeSystem/v2-0203","code":"MR"}]},"system":"https://bonnie-fhir.healthit.gov/","value":"633c9d040968f8012250fcad"}],"active":true,"name":[{"use":"usual","family":"IPPFail","given":["MultipleIPEncounter"]}],"gender":"male","birthDate":"1960-12-01"},"request":{"method":"PUT","url":"Patient/ee8574b0-a5be-4f2b-9ff0-68cdbda42e10"}},{"fullUrl":"https://madie.cms.gov/Encounter/2ef178ea-658f-4024-8191-05563e8baa0a","resource":{"resourceType":"Encounter","id":"2ef178ea-658f-4024-8191-05563e8baa0a","meta":{"profile":["http://hl7.org/fhir/us/qicore/StructureDefinition/qicore-encounter"]},"status":"finished","class":{"system":"http://terminology.hl7.org/CodeSystem/v3-ActCode","code":"EMER","display":"emergency"},"type":[{"coding":[{"system":"http://snomed.info/sct","code":"4525004"}]}],"subject":{"reference":"Patient/ee8574b0-a5be-4f2b-9ff0-68cdbda42e10"},"period":{"start":"2025-02-08T08:00:00.000Z","end":"2025-02-08T08:15:00.000Z"},"length":{"value":0.0,"unit":"days"},"diagnosis":[{"condition":{"reference":"Condition/d08d7cef-f610-4656-b84d-305e0bce7311"},"rank":1}]},"request":{"method":"PUT","url":"Encounter/2ef178ea-658f-4024-8191-05563e8baa0a"}},{"fullUrl":"https://madie.cms.gov/Encounter/bd1ee8b4-b356-45a9-a4e3-1c8905684b8c","resource":{"resourceType":"Encounter","id":"bd1ee8b4-b356-45a9-a4e3-1c8905684b8c","meta":{"profile":["http://hl7.org/fhir/us/qicore/StructureDefinition/qicore-encounter"]},"status":"finished","class":{"system":"http://terminology.hl7.org/CodeSystem/v3-ActCode","code":"IMP","display":"inpatient encounter"},"type":[{"coding":[{"system":"http://snomed.info/sct","code":"183452005"}]}],"subject":{"reference":"Patient/ee8574b0-a5be-4f2b-9ff0-68cdbda42e10"},"period":{"start":"2025-02-08T08:20:00.000Z","end":"2025-02-10T08:15:00.000Z"},"diagnosis":[{"condition":{"reference":"Condition/f361dcdb-c933-4663-976e-537ca4f9c53c"},"rank":1}]},"request":{"method":"PUT","url":"Encounter/bd1ee8b4-b356-45a9-a4e3-1c8905684b8c"}},{"fullUrl":"https://madie.cms.gov/Encounter/c2eeb028-8c9b-4d14-bffe-1cec58ade156","resource":{"resourceType":"Encounter","id":"c2eeb028-8c9b-4d14-bffe-1cec58ade156","meta":{"profile":["http://hl7.org/fhir/us/qicore/StructureDefinition/qicore-encounter"]},"status":"finished","class":{"system":"http://terminology.hl7.org/CodeSystem/v3-ActCode","code":"IMP","display":"inpatient encounter"},"type":[{"coding":[{"system":"http://snomed.info/sct","code":"183452005"}]}],"subject":{"reference":"Patient/ee8574b0-a5be-4f2b-9ff0-68cdbda42e10"},"period":{"start":"2025-02-07T08:00:00.000Z","end":"2025-02-11T08:15:00.000Z"}},"request":{"method":"PUT","url":"Encounter/c2eeb028-8c9b-4d14-bffe-1cec58ade156"}},{"fullUrl":"https://madie.cms.gov/Coverage/c1316016-44bf-407e-91a8-9ae3836f94c0","resource":{"resourceType":"Coverage","id":"c1316016-44bf-407e-91a8-9ae3836f94c0","status":"active","beneficiary":{"reference":"Patient/ee8574b0-a5be-4f2b-9ff0-68cdbda42e10"},"period":{"start":"1960-12-01T01:00:00.000Z"},"payor":[{"reference":"Organization/26111c91-b0e2-476c-a20b-e3f39799f8f5"}]},"request":{"method":"PUT","url":"Coverage/c1316016-44bf-407e-91a8-9ae3836f94c0"}},{"fullUrl":"https://madie.cms.gov/Condition/f361dcdb-c933-4663-976e-537ca4f9c53c","resource":{"resourceType":"Condition","id":"f361dcdb-c933-4663-976e-537ca4f9c53c","meta":{"profile":["http://hl7.org/fhir/us/qicore/StructureDefinition/qicore-condition"]},"clinicalStatus":{"coding":[{"system":"http://terminology.hl7.org/CodeSystem/condition-clinical","code":"active"}]},"verificationStatus":{"coding":[{"system":"http://terminology.hl7.org/CodeSystem/condition-ver-status","code":"confirmed"}]},"category":[{"coding":[{"system":"http://terminology.hl7.org/CodeSystem/condition-category","code":"encounter-diagnosis","display":"Encounter Diagnosis"}]}],"code":{"coding":[{"system":"http://snomed.info/sct","version":"2021-09","code":"120041000119109","display":"Atrial fibrillation with rapid ventricular response (disorder)","userSelected":true}]},"subject":{"reference":"Patient/ee8574b0-a5be-4f2b-9ff0-68cdbda42e10"},"recordedDate":"2025-10-13T08:00:00.000+00:00"},"request":{"method":"PUT","url":"Condition/f361dcdb-c933-4663-976e-537ca4f9c53c"}},{"fullUrl":"https://madie.cms.gov/Condition/d08d7cef-f610-4656-b84d-305e0bce7311","resource":{"resourceType":"Condition","id":"d08d7cef-f610-4656-b84d-305e0bce7311","meta":{"profile":["http://hl7.org/fhir/us/qicore/StructureDefinition/qicore-condition"]},"clinicalStatus":{"coding":[{"system":"http://terminology.hl7.org/CodeSystem/condition-clinical","code":"active"}]},"verificationStatus":{"coding":[{"system":"http://terminology.hl7.org/CodeSystem/condition-ver-status","code":"confirmed"}]},"category":[{"coding":[{"system":"http://terminology.hl7.org/CodeSystem/condition-category","code":"encounter-diagnosis","display":"Encounter Diagnosis"}]}],"code":{"coding":[{"system":"http://snomed.info/sct","version":"2021-09","code":"111297002","display":"Nonparalytic stroke (disorder)","userSelected":true}]},"subject":{"reference":"Patient/ee8574b0-a5be-4f2b-9ff0-68cdbda42e10"},"recordedDate":"2025-10-13T08:00:00.000+00:00"},"request":{"method":"PUT","url":"Condition/d08d7cef-f610-4656-b84d-305e0bce7311"}},{"fullUrl":"https://madie.cms.gov/Organization/3b0ae97f-96a8-4ff7-9caf-b1dc36399351","resource":{"resourceType":"Organization","id":"26111c91-b0e2-476c-a20b-e3f39799f8f5","meta":{"profile":["http://hl7.org/fhir/us/qicore/StructureDefinition/qicore-organization"]},"identifier":[{"use":"temp","system":"urn:oid:2.16.840.1.113883.4.4","value":"21-3259825"}],"active":true,"type":[{"coding":[{"system":"http://terminology.hl7.org/CodeSystem/organization-type","code":"pay","display":"Payer"}]}],"name":"Blue Cross Blue Shield of Texas","telecom":[{"system":"phone","value":"(+1) 972-766-6900"}],"address":[{"use":"billing","type":"postal","line":["P.O. Box 660044"],"city":"Dallas","state":"TX","postalCode":"75266-0044","country":"USA"}]},"request":{"method":"PUT","url":"Organization/26111c91-b0e2-476c-a20b-e3f39799f8f5"}},{"fullUrl":"https://madie.cms.gov/Practitioner/07c6941b-3852-4cc3-82a2-968594b27dd1","resource":{"resourceType":"Practitioner","id":"07c6941b-3852-4cc3-82a2-968594b27dd1","identifier":[{"system":"http://hl7.org/fhir/sid/us-npi","value":"123456"}],"name":[{"family":"Evil","prefix":["Dr"]}]},"request":{"method":"PUT","url":"Practitioner/07c6941b-3852-4cc3-82a2-968594b27dd1"}},{"fullUrl":"https://madie.cms.gov/MeasureReport/661404bb-7748-4fcd-82e0-70fc2c3a9f38","resource":{"resourceType":"MeasureReport","id":"661404bb-7748-4fcd-82e0-70fc2c3a9f38","meta":{"profile":["http://hl7.org/fhir/us/cqfmeasures/StructureDefinition/test-case-cqfm"]},"contained":[{"resourceType":"Parameters","id":"bb4f2760-9b27-4ef6-9f24-c667837e2a94-parameters","parameter":[{"name":"subject","valueString":"ee8574b0-a5be-4f2b-9ff0-68cdbda42e10"}]}],"extension":[{"url":"http://hl7.org/fhir/us/cqfmeasures/StructureDefinition/cqfm-inputParameters","valueReference":{"reference":"#bb4f2760-9b27-4ef6-9f24-c667837e2a94-parameters"}},{"url":"http://hl7.org/fhir/us/cqfmeasures/StructureDefinition/cqfm-testCaseDescription","valueMarkdown":"ED visit with Principal Dx = Ischemic Stroke. No inpatient encounter \n"}],"modifierExtension":[{"url":"http://hl7.org/fhir/us/cqfmeasures/StructureDefinition/cqfm-isTestCase","valueBoolean":true}],"status":"complete","type":"individual","measure":"https://madie.cms.gov/Measure/AnticoagulationTherapyforAtrialFibrillationFlutterFHIR","period":{"start":"2025-01-01","end":"2025-12-31"},"group":[{"population":[{"code":{"coding":[{"system":"http://terminology.hl7.org/CodeSystem/measure-population","code":"initial-population","display":"Initial Population"}]},"count":0},{"code":{"coding":[{"system":"http://terminology.hl7.org/CodeSystem/measure-population","code":"denominator","display":"Denominator"}]},"count":0},{"code":{"coding":[{"system":"http://terminology.hl7.org/CodeSystem/measure-population","code":"denominator-exclusion","display":"Denominator Exclusion"}]},"count":0},{"code":{"coding":[{"system":"http://terminology.hl7.org/CodeSystem/measure-population","code":"numerator","display":"Numerator"}]},"count":0},{"code":{"coding":[{"system":"http://terminology.hl7.org/CodeSystem/measure-population","code":"denominator-exception","display":"Denominator Exception"}]},"count":0}]}]},"request":{"method":"PUT","url":"MeasureReport/661404bb-7748-4fcd-82e0-70fc2c3a9f38"}}]}