{"resourceType":"Bundle","id":"tests-5370c25e-ca3c-4575-95c2-e23c783ff4c6-bundle","type":"transaction","entry":[{"fullUrl":"https://madie.cms.gov/Patient/dcc4820d-d9c9-46e3-b918-4aa39995ff15","resource":{"resourceType":"Patient","id":"dcc4820d-d9c9-46e3-b918-4aa39995ff15","meta":{"profile":["http://hl7.org/fhir/us/qicore/StructureDefinition/qicore-patient"]},"text":{"status":"generated","div":"<div xmlns=\"http://www.w3.org/1999/xhtml\"><div class=\"hapiHeaderText\">ProcAtrialAblB4EncRelePer <b>DENOMPASS </b></div><table class=\"hapiPropertyTable\"><tbody><tr><td>Identifier</td><td>1ebc7a8ec0c65913b7018969c7b50ead</td></tr><tr><td>Date of birth</td><td><span>01 December 1960</span></td></tr></tbody></table></div>"},"extension":[{"url":"http://hl7.org/fhir/us/core/StructureDefinition/us-core-race","extension":[{"url":"ombCategory","valueCoding":{"system":"urn:oid:2.16.840.1.113883.6.238","code":"1002-5","display":"American Indian or Alaska Native","userSelected":true}},{"url":"text","valueString":"American Indian or Alaska Native"}]},{"url":"http://hl7.org/fhir/us/core/StructureDefinition/us-core-ethnicity","extension":[{"url":"ombCategory","valueCoding":{"system":"urn:oid:2.16.840.1.113883.6.238","code":"2135-2","display":"Hispanic or Latino","userSelected":true}},{"url":"text","valueString":"Hispanic or Latino"}]}],"identifier":[{"type":{"coding":[{"system":"http://terminology.hl7.org/CodeSystem/v2-0203","code":"MR"}]},"system":"https://bonnie-fhir.healthit.gov/","value":"633c9d040968f8012250fcb1"}],"active":true,"name":[{"use":"usual","family":"DENOMPass","given":["ProcAtrialAblB4EncRelePer"]}],"gender":"male","birthDate":"1960-12-01"},"request":{"method":"PUT","url":"Patient/dcc4820d-d9c9-46e3-b918-4aa39995ff15"}},{"fullUrl":"https://madie.cms.gov/Encounter/b0058f2a-5449-4415-8786-c25a68b20612","resource":{"resourceType":"Encounter","id":"b0058f2a-5449-4415-8786-c25a68b20612","meta":{"profile":["http://hl7.org/fhir/us/qicore/StructureDefinition/qicore-encounter"]},"status":"finished","class":{"system":"http://terminology.hl7.org/CodeSystem/v3-ActCode","code":"IMP","display":"inpatient encounter"},"type":[{"coding":[{"system":"http://snomed.info/sct","code":"32485007"}]}],"subject":{"reference":"Patient/dcc4820d-d9c9-46e3-b918-4aa39995ff15"},"period":{"start":"2025-02-08T08:00:00.000Z","end":"2025-02-10T08:15:00.000Z"},"length":{"value":2,"unit":"days"},"diagnosis":[{"condition":{"reference":"Condition/cfe99c8c-4933-4657-a238-40902f2c61fd"},"use":{"coding":[{"system":"http://terminology.hl7.org/CodeSystem/diagnosis-role","code":"billing","display":"Billing"}]},"rank":1}]},"request":{"method":"PUT","url":"Encounter/b0058f2a-5449-4415-8786-c25a68b20612"}},{"fullUrl":"https://madie.cms.gov/Coverage/654d4763-5790-4e95-9f8a-27639ff37636","resource":{"resourceType":"Coverage","id":"654d4763-5790-4e95-9f8a-27639ff37636","status":"active","beneficiary":{"reference":"Patient/dcc4820d-d9c9-46e3-b918-4aa39995ff15"},"period":{"start":"1960-12-01T08:00:00.000Z"},"payor":[{"reference":"Organization/26111c91-b0e2-476c-a20b-e3f39799f8f5"}]},"request":{"method":"PUT","url":"Coverage/654d4763-5790-4e95-9f8a-27639ff37636"}},{"fullUrl":"https://madie.cms.gov/Procedure/4faf8324-aaba-4fad-bbf2-789c4dc52358","resource":{"resourceType":"Procedure","id":"4faf8324-aaba-4fad-bbf2-789c4dc52358","meta":{"profile":["http://hl7.org/fhir/us/qicore/StructureDefinition/qicore-procedure"]},"extension":[{"url":"http://hl7.org/fhir/us/qicore/StructureDefinition/qicore-recorded","valueDateTime":"2025-11-19T09:35:00-04:00"}],"status":"completed","code":{"coding":[{"system":"http://www.cms.gov/Medicare/Coding/ICD10","code":"02560ZZ"},{"system":"http://snomed.info/sct","code":"175095005"}]},"subject":{"reference":"Patient/dcc4820d-d9c9-46e3-b918-4aa39995ff15"},"performedPeriod":{"start":"2025-02-08T07:59:00.000Z","end":"2025-02-10T08:15:00.000Z"}},"request":{"method":"PUT","url":"Procedure/4faf8324-aaba-4fad-bbf2-789c4dc52358"}},{"fullUrl":"https://madie.cms.gov/Condition/cfe99c8c-4933-4657-a238-40902f2c61fd","resource":{"resourceType":"Condition","id":"cfe99c8c-4933-4657-a238-40902f2c61fd","meta":{"profile":["http://hl7.org/fhir/us/qicore/StructureDefinition/qicore-condition"]},"clinicalStatus":{"coding":[{"system":"http://terminology.hl7.org/CodeSystem/condition-clinical","code":"active"}]},"verificationStatus":{"coding":[{"system":"http://terminology.hl7.org/CodeSystem/condition-ver-status","code":"confirmed"}]},"category":[{"coding":[{"system":"http://terminology.hl7.org/CodeSystem/condition-category","code":"encounter-diagnosis","display":"Encounter Diagnosis"}]}],"code":{"coding":[{"system":"http://snomed.info/sct","version":"2021-09","code":"111297002","display":"Nonparalytic stroke (disorder)","userSelected":true}]},"subject":{"reference":"Patient/dcc4820d-d9c9-46e3-b918-4aa39995ff15"},"recordedDate":"2025-10-13T08:00:00.000+00:00"},"request":{"method":"PUT","url":"Condition/cfe99c8c-4933-4657-a238-40902f2c61fd"}},{"fullUrl":"https://madie.cms.gov/Organization/8ca6cee2-794b-40cc-9e1f-5d732927db60","resource":{"resourceType":"Organization","id":"26111c91-b0e2-476c-a20b-e3f39799f8f5","meta":{"profile":["http://hl7.org/fhir/us/qicore/StructureDefinition/qicore-organization"]},"identifier":[{"use":"temp","system":"urn:oid:2.16.840.1.113883.4.4","value":"21-3259825"}],"active":true,"type":[{"coding":[{"system":"http://terminology.hl7.org/CodeSystem/organization-type","code":"pay","display":"Payer"}]}],"name":"Blue Cross Blue Shield of Texas","telecom":[{"system":"phone","value":"(+1) 972-766-6900"}],"address":[{"use":"billing","type":"postal","line":["P.O. Box 660044"],"city":"Dallas","state":"TX","postalCode":"75266-0044","country":"USA"}]},"request":{"method":"PUT","url":"Organization/26111c91-b0e2-476c-a20b-e3f39799f8f5"}},{"fullUrl":"https://madie.cms.gov/Practitioner/70106427-afde-46c2-880a-c51b93d3d462","resource":{"resourceType":"Practitioner","id":"70106427-afde-46c2-880a-c51b93d3d462","identifier":[{"system":"http://hl7.org/fhir/sid/us-npi","value":"123456"}],"name":[{"family":"Evil","prefix":["Dr"]}]},"request":{"method":"PUT","url":"Practitioner/70106427-afde-46c2-880a-c51b93d3d462"}},{"fullUrl":"https://madie.cms.gov/MeasureReport/62e8c407-cb7e-4d16-a4b3-47fa57c3c08b","resource":{"resourceType":"MeasureReport","id":"62e8c407-cb7e-4d16-a4b3-47fa57c3c08b","meta":{"profile":["http://hl7.org/fhir/us/cqfmeasures/StructureDefinition/test-case-cqfm"]},"contained":[{"resourceType":"Parameters","id":"6f432082-4c6e-482d-b6ca-ef5107b8cb31-parameters","parameter":[{"name":"subject","valueString":"dcc4820d-d9c9-46e3-b918-4aa39995ff15"}]}],"extension":[{"url":"http://hl7.org/fhir/us/cqfmeasures/StructureDefinition/cqfm-inputParameters","valueReference":{"reference":"#6f432082-4c6e-482d-b6ca-ef5107b8cb31-parameters"}},{"url":"http://hl7.org/fhir/us/cqfmeasures/StructureDefinition/cqfm-testCaseDescription","valueMarkdown":"Proc performed Atrial Ablation starts before start of OccA by 1 minutes\n"}],"modifierExtension":[{"url":"http://hl7.org/fhir/us/cqfmeasures/StructureDefinition/cqfm-isTestCase","valueBoolean":true}],"status":"complete","type":"individual","measure":"https://madie.cms.gov/Measure/AnticoagulationTherapyforAtrialFibrillationFlutterFHIR","period":{"start":"2025-01-01","end":"2025-12-31"},"group":[{"population":[{"code":{"coding":[{"system":"http://terminology.hl7.org/CodeSystem/measure-population","code":"initial-population","display":"Initial Population"}]},"count":1},{"code":{"coding":[{"system":"http://terminology.hl7.org/CodeSystem/measure-population","code":"denominator","display":"Denominator"}]},"count":1},{"code":{"coding":[{"system":"http://terminology.hl7.org/CodeSystem/measure-population","code":"denominator-exclusion","display":"Denominator Exclusion"}]},"count":0},{"code":{"coding":[{"system":"http://terminology.hl7.org/CodeSystem/measure-population","code":"numerator","display":"Numerator"}]},"count":0},{"code":{"coding":[{"system":"http://terminology.hl7.org/CodeSystem/measure-population","code":"denominator-exception","display":"Denominator Exception"}]},"count":0}]}]},"request":{"method":"PUT","url":"MeasureReport/62e8c407-cb7e-4d16-a4b3-47fa57c3c08b"}}]}