{"resourceType":"Bundle","id":"tests-5dd3cb00-eb9b-42ba-9af5-9cafa1475528-bundle","type":"transaction","entry":[{"fullUrl":"https://madie.cms.gov/Patient/44093fed-94e9-4ed7-8749-9c6e92f229bd","resource":{"resourceType":"Patient","id":"44093fed-94e9-4ed7-8749-9c6e92f229bd","meta":{"profile":["http://hl7.org/fhir/us/qicore/StructureDefinition/qicore-patient"]},"text":{"status":"generated","div":"<div xmlns=\"http://www.w3.org/1999/xhtml\"><div class=\"hapiHeaderText\">AtrialAblStartTM=EncStartTM <b>DENOMFAIL </b></div><table class=\"hapiPropertyTable\"><tbody><tr><td>Identifier</td><td>17e7285219c0bb5f087df79f6dd558b0</td></tr><tr><td>Date of birth</td><td><span>01 December 1960</span></td></tr></tbody></table></div>"},"extension":[{"url":"http://hl7.org/fhir/us/core/StructureDefinition/us-core-race","extension":[{"url":"ombCategory","valueCoding":{"system":"urn:oid:2.16.840.1.113883.6.238","code":"1002-5","display":"American Indian or Alaska Native","userSelected":true}},{"url":"text","valueString":"American Indian or Alaska Native"}]},{"url":"http://hl7.org/fhir/us/core/StructureDefinition/us-core-ethnicity","extension":[{"url":"ombCategory","valueCoding":{"system":"urn:oid:2.16.840.1.113883.6.238","code":"2135-2","display":"Hispanic or Latino","userSelected":true}},{"url":"text","valueString":"Hispanic or Latino"}]}],"identifier":[{"type":{"coding":[{"system":"http://terminology.hl7.org/CodeSystem/v2-0203","code":"MR"}]},"system":"https://bonnie-fhir.healthit.gov/","value":"633c9d030968f8012250fc7a"}],"active":true,"name":[{"use":"usual","family":"DENOMFail","given":["AtrialAblStartTM=EncStartTM"]}],"gender":"male","birthDate":"1960-12-01"},"request":{"method":"PUT","url":"Patient/44093fed-94e9-4ed7-8749-9c6e92f229bd"}},{"fullUrl":"https://madie.cms.gov/Encounter/3df2ab56-9bfa-42a1-be52-eb5953299389","resource":{"resourceType":"Encounter","id":"3df2ab56-9bfa-42a1-be52-eb5953299389","meta":{"profile":["http://hl7.org/fhir/us/qicore/StructureDefinition/qicore-encounter"]},"status":"finished","class":{"system":"http://terminology.hl7.org/CodeSystem/v3-ActCode","code":"IMP","display":"inpatient encounter"},"type":[{"coding":[{"system":"http://snomed.info/sct","code":"32485007"}]}],"subject":{"reference":"Patient/44093fed-94e9-4ed7-8749-9c6e92f229bd"},"period":{"start":"2025-02-08T08:00:00.000Z","end":"2025-02-10T08:15:00.000Z"},"length":{"value":2,"unit":"days"},"diagnosis":[{"condition":{"reference":"Condition/cb55f3cd-5835-40d2-97e7-1ef2ee08bf56"},"use":{"coding":[{"system":"http://terminology.hl7.org/CodeSystem/diagnosis-role","code":"billing","display":"Billing"}]},"rank":1}]},"request":{"method":"PUT","url":"Encounter/3df2ab56-9bfa-42a1-be52-eb5953299389"}},{"fullUrl":"https://madie.cms.gov/Coverage/221019f3-f382-473e-b2f5-889af4530023","resource":{"resourceType":"Coverage","id":"221019f3-f382-473e-b2f5-889af4530023","status":"active","beneficiary":{"reference":"Patient/44093fed-94e9-4ed7-8749-9c6e92f229bd"},"period":{"start":"1960-12-01T08:00:00.000Z"},"payor":[{"reference":"Organization/26111c91-b0e2-476c-a20b-e3f39799f8f5"}]},"request":{"method":"PUT","url":"Coverage/221019f3-f382-473e-b2f5-889af4530023"}},{"fullUrl":"https://madie.cms.gov/Procedure/c9142a11-99d4-4148-b14d-cd795001b576","resource":{"resourceType":"Procedure","id":"c9142a11-99d4-4148-b14d-cd795001b576","meta":{"profile":["http://hl7.org/fhir/us/qicore/StructureDefinition/qicore-procedure"]},"extension":[{"url":"http://hl7.org/fhir/us/qicore/StructureDefinition/qicore-recorded","valueDateTime":"2025-11-19T09:35:00-04:00"}],"status":"completed","code":{"coding":[{"system":"http://www.cms.gov/Medicare/Coding/ICD10","code":"02560ZZ"},{"system":"http://snomed.info/sct","code":"175095005"}]},"subject":{"reference":"Patient/44093fed-94e9-4ed7-8749-9c6e92f229bd"},"performedPeriod":{"start":"2025-02-08T08:00:00.000Z"}},"request":{"method":"PUT","url":"Procedure/c9142a11-99d4-4148-b14d-cd795001b576"}},{"fullUrl":"https://madie.cms.gov/Condition/cb55f3cd-5835-40d2-97e7-1ef2ee08bf56","resource":{"resourceType":"Condition","id":"cb55f3cd-5835-40d2-97e7-1ef2ee08bf56","meta":{"profile":["http://hl7.org/fhir/us/qicore/StructureDefinition/qicore-condition"]},"clinicalStatus":{"coding":[{"system":"http://terminology.hl7.org/CodeSystem/condition-clinical","code":"active"}]},"verificationStatus":{"coding":[{"system":"http://terminology.hl7.org/CodeSystem/condition-ver-status","code":"confirmed"}]},"category":[{"coding":[{"system":"http://terminology.hl7.org/CodeSystem/condition-category","code":"encounter-diagnosis","display":"Encounter Diagnosis"}]}],"code":{"coding":[{"system":"http://snomed.info/sct","version":"2021-09","code":"111297002","display":"Nonparalytic stroke (disorder)","userSelected":true}]},"subject":{"reference":"Patient/44093fed-94e9-4ed7-8749-9c6e92f229bd"},"recordedDate":"2025-10-13T08:00:00.000+00:00"},"request":{"method":"PUT","url":"Condition/cb55f3cd-5835-40d2-97e7-1ef2ee08bf56"}},{"fullUrl":"https://madie.cms.gov/Organization/eec81b01-b20c-407d-be50-39db98048060","resource":{"resourceType":"Organization","id":"26111c91-b0e2-476c-a20b-e3f39799f8f5","meta":{"profile":["http://hl7.org/fhir/us/qicore/StructureDefinition/qicore-organization"]},"identifier":[{"use":"temp","system":"urn:oid:2.16.840.1.113883.4.4","value":"21-3259825"}],"active":true,"type":[{"coding":[{"system":"http://terminology.hl7.org/CodeSystem/organization-type","code":"pay","display":"Payer"}]}],"name":"Blue Cross Blue Shield of Texas","telecom":[{"system":"phone","value":"(+1) 972-766-6900"}],"address":[{"use":"billing","type":"postal","line":["P.O. Box 660044"],"city":"Dallas","state":"TX","postalCode":"75266-0044","country":"USA"}]},"request":{"method":"PUT","url":"Organization/26111c91-b0e2-476c-a20b-e3f39799f8f5"}},{"fullUrl":"https://madie.cms.gov/Practitioner/cb8ffedd-55de-4651-b1bb-e452b3d2545b","resource":{"resourceType":"Practitioner","id":"cb8ffedd-55de-4651-b1bb-e452b3d2545b","identifier":[{"system":"http://hl7.org/fhir/sid/us-npi","value":"123456"}],"name":[{"family":"Evil","prefix":["Dr"]}]},"request":{"method":"PUT","url":"Practitioner/cb8ffedd-55de-4651-b1bb-e452b3d2545b"}},{"fullUrl":"https://madie.cms.gov/MeasureReport/87f22a29-0631-48c7-b1bd-b76222f20d6a","resource":{"resourceType":"MeasureReport","id":"87f22a29-0631-48c7-b1bd-b76222f20d6a","meta":{"profile":["http://hl7.org/fhir/us/cqfmeasures/StructureDefinition/test-case-cqfm"]},"contained":[{"resourceType":"Parameters","id":"de3ae193-b448-4f35-b50a-5b3c3aafc890-parameters","parameter":[{"name":"subject","valueString":"44093fed-94e9-4ed7-8749-9c6e92f229bd"}]}],"extension":[{"url":"http://hl7.org/fhir/us/cqfmeasures/StructureDefinition/cqfm-inputParameters","valueReference":{"reference":"#de3ae193-b448-4f35-b50a-5b3c3aafc890-parameters"}},{"url":"http://hl7.org/fhir/us/cqfmeasures/StructureDefinition/cqfm-testCaseDescription","valueMarkdown":"Procedure performed Atrial Ablation starts at same time as OccA start time\n"}],"modifierExtension":[{"url":"http://hl7.org/fhir/us/cqfmeasures/StructureDefinition/cqfm-isTestCase","valueBoolean":true}],"status":"complete","type":"individual","measure":"https://madie.cms.gov/Measure/AnticoagulationTherapyforAtrialFibrillationFlutterFHIR","period":{"start":"2025-01-01","end":"2025-12-31"},"group":[{"population":[{"code":{"coding":[{"system":"http://terminology.hl7.org/CodeSystem/measure-population","code":"initial-population","display":"Initial Population"}]},"count":1},{"code":{"coding":[{"system":"http://terminology.hl7.org/CodeSystem/measure-population","code":"denominator","display":"Denominator"}]},"count":0},{"code":{"coding":[{"system":"http://terminology.hl7.org/CodeSystem/measure-population","code":"denominator-exclusion","display":"Denominator Exclusion"}]},"count":0},{"code":{"coding":[{"system":"http://terminology.hl7.org/CodeSystem/measure-population","code":"numerator","display":"Numerator"}]},"count":0},{"code":{"coding":[{"system":"http://terminology.hl7.org/CodeSystem/measure-population","code":"denominator-exception","display":"Denominator Exception"}]},"count":0}]}]},"request":{"method":"PUT","url":"MeasureReport/87f22a29-0631-48c7-b1bd-b76222f20d6a"}}]}