{"resourceType":"Bundle","id":"tests-96b57130-dda8-481b-b96b-c0d48068384e-bundle","type":"transaction","entry":[{"fullUrl":"https://madie.cms.gov/Patient/41b1767d-ad36-414f-806b-753587361d11","resource":{"resourceType":"Patient","id":"41b1767d-ad36-414f-806b-753587361d11","meta":{"profile":["http://hl7.org/fhir/us/qicore/StructureDefinition/qicore-patient"]},"text":{"status":"generated","div":"<div xmlns=\"http://www.w3.org/1999/xhtml\"><div class=\"hapiHeaderText\">CMOdurEnc_ED&lt;1hrObs&lt;1hrBFEnc <b>DENEXPASS </b></div><table class=\"hapiPropertyTable\"><tbody><tr><td>Identifier</td><td>073447d69f29a0b5f6598bee2a80898d</td></tr><tr><td>Date of birth</td><td><span>18 September 1985</span></td></tr></tbody></table></div>"},"extension":[{"url":"http://hl7.org/fhir/us/core/StructureDefinition/us-core-race","extension":[{"url":"ombCategory","valueCoding":{"system":"urn:oid:2.16.840.1.113883.6.238","code":"1002-5","display":"American Indian or Alaska Native","userSelected":true}},{"url":"text","valueString":"American Indian or Alaska Native"}]},{"url":"http://hl7.org/fhir/us/core/StructureDefinition/us-core-ethnicity","extension":[{"url":"ombCategory","valueCoding":{"system":"urn:oid:2.16.840.1.113883.6.238","code":"2135-2","display":"Hispanic or Latino","userSelected":true}},{"url":"text","valueString":"Hispanic or Latino"}]}],"identifier":[{"type":{"coding":[{"system":"http://terminology.hl7.org/CodeSystem/v2-0203","code":"MR"}]},"system":"https://bonnie-fhir.healthit.gov/","value":"633c9d030968f8012250fc87"}],"active":true,"name":[{"use":"usual","family":"DENEXPass ","given":["CMOdurEnc_ED<1hrObs<1hrBFEnc"]}],"gender":"female","birthDate":"1985-09-18"},"request":{"method":"PUT","url":"Patient/41b1767d-ad36-414f-806b-753587361d11"}},{"fullUrl":"https://madie.cms.gov/Condition/5b8de1ee-05ef-45cc-8339-4b21be290716","resource":{"resourceType":"Condition","id":"5b8de1ee-05ef-45cc-8339-4b21be290716","meta":{"profile":["http://hl7.org/fhir/us/qicore/StructureDefinition/qicore-condition"]},"clinicalStatus":{"coding":[{"system":"http://terminology.hl7.org/CodeSystem/condition-clinical","code":"inactive"}]},"verificationStatus":{"coding":[{"system":"http://terminology.hl7.org/CodeSystem/condition-ver-status","code":"confirmed"}]},"category":[{"coding":[{"system":"http://terminology.hl7.org/CodeSystem/condition-category","code":"encounter-diagnosis","display":"Encounter Diagnosis"}]}],"code":{"coding":[{"system":"http://hl7.org/fhir/sid/icd-10-cm","code":"I48.20"},{"system":"http://hl7.org/fhir/sid/icd-10-cm","code":"I48.0"},{"system":"http://snomed.info/sct","code":"5370000"}]},"subject":{"reference":"Patient/41b1767d-ad36-414f-806b-753587361d11"},"onsetDateTime":"2025-10-01T09:00:00.000Z","abatementDateTime":"2025-10-12T00:15:00.000Z"},"request":{"method":"PUT","url":"Condition/5b8de1ee-05ef-45cc-8339-4b21be290716"}},{"fullUrl":"https://madie.cms.gov/Encounter/f6da8709-07ea-440f-9d3c-369a01ab0b70","resource":{"resourceType":"Encounter","id":"f6da8709-07ea-440f-9d3c-369a01ab0b70","meta":{"profile":["http://hl7.org/fhir/us/qicore/StructureDefinition/qicore-encounter"]},"status":"finished","class":{"system":"http://terminology.hl7.org/CodeSystem/v3-ActCode","code":"EMER","display":"emergency"},"type":[{"coding":[{"system":"http://snomed.info/sct","code":"4525004"}]}],"subject":{"reference":"Patient/41b1767d-ad36-414f-806b-753587361d11"},"period":{"start":"2025-10-01T07:00:00.000Z","end":"2025-10-01T07:59:00.000Z"},"length":{"value":0,"unit":"days"}},"request":{"method":"PUT","url":"Encounter/f6da8709-07ea-440f-9d3c-369a01ab0b70"}},{"fullUrl":"https://madie.cms.gov/Encounter/fb52762a-a03e-4c1a-83e0-e7fb2631c310","resource":{"resourceType":"Encounter","id":"fb52762a-a03e-4c1a-83e0-e7fb2631c310","meta":{"profile":["http://hl7.org/fhir/us/qicore/StructureDefinition/qicore-encounter"]},"status":"finished","class":{"system":"http://terminology.hl7.org/CodeSystem/v3-ActCode","code":"OBSENC","display":"observation encounter"},"type":[{"coding":[{"system":"http://snomed.info/sct","code":"448851000124103"}]}],"subject":{"reference":"Patient/41b1767d-ad36-414f-806b-753587361d11"},"period":{"start":"2025-10-01T08:00:00.000Z","end":"2025-10-01T08:59:00.000Z"},"length":{"value":0,"unit":"days"}},"request":{"method":"PUT","url":"Encounter/fb52762a-a03e-4c1a-83e0-e7fb2631c310"}},{"fullUrl":"https://madie.cms.gov/Encounter/9c8b5f0b-ceac-4e90-be82-1531d2a2e6ac","resource":{"resourceType":"Encounter","id":"9c8b5f0b-ceac-4e90-be82-1531d2a2e6ac","meta":{"profile":["http://hl7.org/fhir/us/qicore/StructureDefinition/qicore-encounter"]},"status":"finished","class":{"system":"http://terminology.hl7.org/CodeSystem/v3-ActCode","code":"IMP","display":"inpatient encounter"},"type":[{"coding":[{"system":"http://snomed.info/sct","code":"32485007"}]}],"subject":{"reference":"Patient/41b1767d-ad36-414f-806b-753587361d11"},"period":{"start":"2025-10-01T09:00:00.000Z","end":"2025-10-12T00:15:00.000Z"},"length":{"value":11,"unit":"days"},"diagnosis":[{"condition":{"reference":"Condition/a65b24cf-872e-4ee1-b894-4f7a8d0d07a3"},"use":{"coding":[{"system":"http://terminology.hl7.org/CodeSystem/diagnosis-role","code":"billing","display":"Billing"}]},"rank":1}]},"request":{"method":"PUT","url":"Encounter/9c8b5f0b-ceac-4e90-be82-1531d2a2e6ac"}},{"fullUrl":"https://madie.cms.gov/ServiceRequest/d6af695f-be2c-4133-a47c-76ae4996ce21","resource":{"resourceType":"ServiceRequest","id":"d6af695f-be2c-4133-a47c-76ae4996ce21","meta":{"profile":["http://hl7.org/fhir/us/qicore/StructureDefinition/qicore-servicerequest"]},"status":"active","intent":"order","code":{"coding":[{"system":"http://snomed.info/sct","code":"133918004"}]},"subject":{"reference":"Patient/41b1767d-ad36-414f-806b-753587361d11"},"authoredOn":"2025-10-01T09:00:00.000+00:00"},"request":{"method":"PUT","url":"ServiceRequest/d6af695f-be2c-4133-a47c-76ae4996ce21"}},{"fullUrl":"https://madie.cms.gov/Coverage/c683a152-3198-478e-83e7-610fc02434f6","resource":{"resourceType":"Coverage","id":"c683a152-3198-478e-83e7-610fc02434f6","status":"active","beneficiary":{"reference":"Patient/41b1767d-ad36-414f-806b-753587361d11"},"period":{"start":"1985-09-18T08:00:00.000Z"},"payor":[{"reference":"Organization/26111c91-b0e2-476c-a20b-e3f39799f8f5"}]},"request":{"method":"PUT","url":"Coverage/c683a152-3198-478e-83e7-610fc02434f6"}},{"fullUrl":"https://madie.cms.gov/Condition/a65b24cf-872e-4ee1-b894-4f7a8d0d07a3","resource":{"resourceType":"Condition","id":"a65b24cf-872e-4ee1-b894-4f7a8d0d07a3","meta":{"profile":["http://hl7.org/fhir/us/qicore/StructureDefinition/qicore-condition"]},"clinicalStatus":{"coding":[{"system":"http://terminology.hl7.org/CodeSystem/condition-clinical","code":"active"}]},"verificationStatus":{"coding":[{"system":"http://terminology.hl7.org/CodeSystem/condition-ver-status","code":"confirmed"}]},"category":[{"coding":[{"system":"http://terminology.hl7.org/CodeSystem/condition-category","code":"encounter-diagnosis","display":"Encounter Diagnosis"}]}],"code":{"coding":[{"system":"http://snomed.info/sct","version":"2021-09","code":"111297002","display":"Nonparalytic stroke (disorder)","userSelected":true}]},"subject":{"reference":"Patient/41b1767d-ad36-414f-806b-753587361d11"},"recordedDate":"2025-10-13T08:00:00.000+00:00"},"request":{"method":"PUT","url":"Condition/a65b24cf-872e-4ee1-b894-4f7a8d0d07a3"}},{"fullUrl":"https://madie.cms.gov/Organization/cedac81b-45e5-4bb4-936e-d1d38239d6fa","resource":{"resourceType":"Organization","id":"26111c91-b0e2-476c-a20b-e3f39799f8f5","meta":{"profile":["http://hl7.org/fhir/us/qicore/StructureDefinition/qicore-organization"]},"identifier":[{"use":"temp","system":"urn:oid:2.16.840.1.113883.4.4","value":"21-3259825"}],"active":true,"type":[{"coding":[{"system":"http://terminology.hl7.org/CodeSystem/organization-type","code":"pay","display":"Payer"}]}],"name":"Blue Cross Blue Shield of Texas","telecom":[{"system":"phone","value":"(+1) 972-766-6900"}],"address":[{"use":"billing","type":"postal","line":["P.O. Box 660044"],"city":"Dallas","state":"TX","postalCode":"75266-0044","country":"USA"}]},"request":{"method":"PUT","url":"Organization/26111c91-b0e2-476c-a20b-e3f39799f8f5"}},{"fullUrl":"https://madie.cms.gov/Practitioner/256f35ad-975c-4282-be36-3982bbafff13","resource":{"resourceType":"Practitioner","id":"256f35ad-975c-4282-be36-3982bbafff13","identifier":[{"system":"http://hl7.org/fhir/sid/us-npi","value":"123456"}],"name":[{"family":"Evil","prefix":["Dr"]}]},"request":{"method":"PUT","url":"Practitioner/256f35ad-975c-4282-be36-3982bbafff13"}},{"fullUrl":"https://madie.cms.gov/MeasureReport/f1e1e0cb-31c8-4988-80d0-76ab63176480","resource":{"resourceType":"MeasureReport","id":"f1e1e0cb-31c8-4988-80d0-76ab63176480","meta":{"profile":["http://hl7.org/fhir/us/cqfmeasures/StructureDefinition/test-case-cqfm"]},"contained":[{"resourceType":"Parameters","id":"30795c66-f30c-46bf-8c76-895574d142b6-parameters","parameter":[{"name":"subject","valueString":"41b1767d-ad36-414f-806b-753587361d11"}]}],"extension":[{"url":"http://hl7.org/fhir/us/cqfmeasures/StructureDefinition/cqfm-inputParameters","valueReference":{"reference":"#30795c66-f30c-46bf-8c76-895574d142b6-parameters"}},{"url":"http://hl7.org/fhir/us/cqfmeasures/StructureDefinition/cqfm-testCaseDescription","valueMarkdown":"Patient receives CMO during inpatient encounter. ED ends 1 min before Observation start, Observation ends 1 min before inpatient encounter start Testing  HospitalizationWithObservation function.\n"}],"modifierExtension":[{"url":"http://hl7.org/fhir/us/cqfmeasures/StructureDefinition/cqfm-isTestCase","valueBoolean":true}],"status":"complete","type":"individual","measure":"https://madie.cms.gov/Measure/AnticoagulationTherapyforAtrialFibrillationFlutterFHIR","period":{"start":"2025-01-01","end":"2025-12-31"},"group":[{"population":[{"code":{"coding":[{"system":"http://terminology.hl7.org/CodeSystem/measure-population","code":"initial-population","display":"Initial Population"}]},"count":1},{"code":{"coding":[{"system":"http://terminology.hl7.org/CodeSystem/measure-population","code":"denominator","display":"Denominator"}]},"count":1},{"code":{"coding":[{"system":"http://terminology.hl7.org/CodeSystem/measure-population","code":"denominator-exclusion","display":"Denominator Exclusion"}]},"count":1},{"code":{"coding":[{"system":"http://terminology.hl7.org/CodeSystem/measure-population","code":"numerator","display":"Numerator"}]},"count":0},{"code":{"coding":[{"system":"http://terminology.hl7.org/CodeSystem/measure-population","code":"denominator-exception","display":"Denominator Exception"}]},"count":0}]}]},"request":{"method":"PUT","url":"MeasureReport/f1e1e0cb-31c8-4988-80d0-76ab63176480"}}]}