{"resourceType":"Bundle","id":"tests-0f3f1ce7-9c34-4082-a635-f09ddcf53ac1-bundle","type":"transaction","entry":[{"fullUrl":"https://madie.cms.gov/Patient/9ec1750b-d270-40e7-bc39-de6e09d81e09","resource":{"resourceType":"Patient","id":"9ec1750b-d270-40e7-bc39-de6e09d81e09","meta":{"profile":["http://hl7.org/fhir/us/qicore/StructureDefinition/qicore-patient"]},"text":{"status":"generated","div":"<div xmlns=\"http://www.w3.org/1999/xhtml\"><div class=\"hapiHeaderText\">CMOdurEnc_ED=1hrNoObsBFEnc <b>DENEXPASS </b></div><table class=\"hapiPropertyTable\"><tbody><tr><td>Identifier</td><td>c13349494c162d88448cb3ad5c0d4a05</td></tr><tr><td>Date of birth</td><td><span>18 September 1985</span></td></tr></tbody></table></div>"},"extension":[{"url":"http://hl7.org/fhir/us/core/StructureDefinition/us-core-race","extension":[{"url":"ombCategory","valueCoding":{"system":"urn:oid:2.16.840.1.113883.6.238","code":"1002-5","display":"American Indian or Alaska Native","userSelected":true}},{"url":"text","valueString":"American Indian or Alaska Native"}]},{"url":"http://hl7.org/fhir/us/core/StructureDefinition/us-core-ethnicity","extension":[{"url":"ombCategory","valueCoding":{"system":"urn:oid:2.16.840.1.113883.6.238","code":"2135-2","display":"Hispanic or Latino","userSelected":true}},{"url":"text","valueString":"Hispanic or Latino"}]}],"identifier":[{"type":{"coding":[{"system":"http://terminology.hl7.org/CodeSystem/v2-0203","code":"MR"}]},"system":"https://bonnie-fhir.healthit.gov/","value":"633c9d030968f8012250fc83"}],"active":true,"name":[{"use":"usual","family":"DENEXPass","given":["CMOdurEnc_ED=1hrNoObsBFEnc"]}],"gender":"female","birthDate":"1985-09-18"},"request":{"method":"PUT","url":"Patient/9ec1750b-d270-40e7-bc39-de6e09d81e09"}},{"fullUrl":"https://madie.cms.gov/Condition/a9b811df-32d0-430d-ba53-4cb8f1d4bf8d","resource":{"resourceType":"Condition","id":"a9b811df-32d0-430d-ba53-4cb8f1d4bf8d","meta":{"profile":["http://hl7.org/fhir/us/qicore/StructureDefinition/qicore-condition"]},"clinicalStatus":{"coding":[{"system":"http://terminology.hl7.org/CodeSystem/condition-clinical","code":"inactive"}]},"verificationStatus":{"coding":[{"system":"http://terminology.hl7.org/CodeSystem/condition-ver-status","code":"confirmed"}]},"category":[{"coding":[{"system":"http://terminology.hl7.org/CodeSystem/condition-category","code":"encounter-diagnosis","display":"Encounter Diagnosis"}]}],"code":{"coding":[{"system":"http://hl7.org/fhir/sid/icd-10-cm","code":"I48.20"},{"system":"http://hl7.org/fhir/sid/icd-10-cm","code":"I48.0"},{"system":"http://snomed.info/sct","code":"5370000"}]},"subject":{"reference":"Patient/9ec1750b-d270-40e7-bc39-de6e09d81e09"},"onsetDateTime":"2025-10-01T09:00:00.000Z","abatementDateTime":"2025-10-12T00:15:00.000Z"},"request":{"method":"PUT","url":"Condition/a9b811df-32d0-430d-ba53-4cb8f1d4bf8d"}},{"fullUrl":"https://madie.cms.gov/Encounter/125b3e03-f83b-421a-85f7-9e4c7e076c8c","resource":{"resourceType":"Encounter","id":"125b3e03-f83b-421a-85f7-9e4c7e076c8c","meta":{"profile":["http://hl7.org/fhir/us/qicore/StructureDefinition/qicore-encounter"]},"status":"finished","class":{"system":"http://terminology.hl7.org/CodeSystem/v3-ActCode","code":"EMER","display":"emergency"},"type":[{"coding":[{"system":"http://snomed.info/sct","code":"4525004"}]}],"subject":{"reference":"Patient/9ec1750b-d270-40e7-bc39-de6e09d81e09"},"period":{"start":"2025-10-01T08:00:00.000Z","end":"2025-10-01T09:00:00.000Z"},"length":{"value":0,"unit":"days"}},"request":{"method":"PUT","url":"Encounter/125b3e03-f83b-421a-85f7-9e4c7e076c8c"}},{"fullUrl":"https://madie.cms.gov/Encounter/c4942bd8-e9cd-4828-8d37-6158375a96aa","resource":{"resourceType":"Encounter","id":"c4942bd8-e9cd-4828-8d37-6158375a96aa","meta":{"profile":["http://hl7.org/fhir/us/qicore/StructureDefinition/qicore-encounter"]},"status":"finished","class":{"system":"http://terminology.hl7.org/CodeSystem/v3-ActCode","code":"IMP","display":"inpatient encounter"},"type":[{"coding":[{"system":"http://snomed.info/sct","code":"32485007"}]}],"subject":{"reference":"Patient/9ec1750b-d270-40e7-bc39-de6e09d81e09"},"period":{"start":"2025-10-01T09:00:00.000Z","end":"2025-10-12T00:15:00.000Z"},"length":{"value":11,"unit":"days"},"diagnosis":[{"condition":{"reference":"Condition/a303fd8b-363f-480d-bdaa-8fb9e5f0b1b6"},"use":{"coding":[{"system":"http://terminology.hl7.org/CodeSystem/diagnosis-role","code":"billing","display":"Billing"}]},"rank":1}]},"request":{"method":"PUT","url":"Encounter/c4942bd8-e9cd-4828-8d37-6158375a96aa"}},{"fullUrl":"https://madie.cms.gov/ServiceRequest/8ff01502-6dc2-4819-80ca-78e4f82fa7c8","resource":{"resourceType":"ServiceRequest","id":"8ff01502-6dc2-4819-80ca-78e4f82fa7c8","meta":{"profile":["http://hl7.org/fhir/us/qicore/StructureDefinition/qicore-servicerequest"]},"status":"active","intent":"order","code":{"coding":[{"system":"http://snomed.info/sct","code":"133918004"}]},"subject":{"reference":"Patient/9ec1750b-d270-40e7-bc39-de6e09d81e09"},"authoredOn":"2025-10-01T09:15:00.000+00:00"},"request":{"method":"PUT","url":"ServiceRequest/8ff01502-6dc2-4819-80ca-78e4f82fa7c8"}},{"fullUrl":"https://madie.cms.gov/Coverage/f652ec39-543c-42da-b935-fe8677abe877","resource":{"resourceType":"Coverage","id":"f652ec39-543c-42da-b935-fe8677abe877","status":"active","beneficiary":{"reference":"Patient/9ec1750b-d270-40e7-bc39-de6e09d81e09"},"period":{"start":"1985-09-18T08:00:00.000Z"},"payor":[{"reference":"Organization/26111c91-b0e2-476c-a20b-e3f39799f8f5"}]},"request":{"method":"PUT","url":"Coverage/f652ec39-543c-42da-b935-fe8677abe877"}},{"fullUrl":"https://madie.cms.gov/Condition/a303fd8b-363f-480d-bdaa-8fb9e5f0b1b6","resource":{"resourceType":"Condition","id":"a303fd8b-363f-480d-bdaa-8fb9e5f0b1b6","meta":{"profile":["http://hl7.org/fhir/us/qicore/StructureDefinition/qicore-condition"]},"clinicalStatus":{"coding":[{"system":"http://terminology.hl7.org/CodeSystem/condition-clinical","code":"active"}]},"verificationStatus":{"coding":[{"system":"http://terminology.hl7.org/CodeSystem/condition-ver-status","code":"confirmed"}]},"category":[{"coding":[{"system":"http://terminology.hl7.org/CodeSystem/condition-category","code":"encounter-diagnosis","display":"Encounter Diagnosis"}]}],"code":{"coding":[{"system":"http://snomed.info/sct","version":"2021-09","code":"111297002","display":"Nonparalytic stroke (disorder)","userSelected":true}]},"subject":{"reference":"Patient/9ec1750b-d270-40e7-bc39-de6e09d81e09"},"recordedDate":"2025-10-13T08:00:00.000+00:00"},"request":{"method":"PUT","url":"Condition/a303fd8b-363f-480d-bdaa-8fb9e5f0b1b6"}},{"fullUrl":"https://madie.cms.gov/Organization/8683c2dd-2ec2-4ee3-afaa-2b7dec477cf5","resource":{"resourceType":"Organization","id":"26111c91-b0e2-476c-a20b-e3f39799f8f5","meta":{"profile":["http://hl7.org/fhir/us/qicore/StructureDefinition/qicore-organization"]},"identifier":[{"use":"temp","system":"urn:oid:2.16.840.1.113883.4.4","value":"21-3259825"}],"active":true,"type":[{"coding":[{"system":"http://terminology.hl7.org/CodeSystem/organization-type","code":"pay","display":"Payer"}]}],"name":"Blue Cross Blue Shield of Texas","telecom":[{"system":"phone","value":"(+1) 972-766-6900"}],"address":[{"use":"billing","type":"postal","line":["P.O. Box 660044"],"city":"Dallas","state":"TX","postalCode":"75266-0044","country":"USA"}]},"request":{"method":"PUT","url":"Organization/26111c91-b0e2-476c-a20b-e3f39799f8f5"}},{"fullUrl":"https://madie.cms.gov/Practitioner/374432e8-306f-42a4-8580-ee1459814fcf","resource":{"resourceType":"Practitioner","id":"374432e8-306f-42a4-8580-ee1459814fcf","identifier":[{"system":"http://hl7.org/fhir/sid/us-npi","value":"123456"}],"name":[{"family":"Evil","prefix":["Dr"]}]},"request":{"method":"PUT","url":"Practitioner/374432e8-306f-42a4-8580-ee1459814fcf"}},{"fullUrl":"https://madie.cms.gov/MeasureReport/858df905-9077-45de-8628-c65a638ef4b7","resource":{"resourceType":"MeasureReport","id":"858df905-9077-45de-8628-c65a638ef4b7","meta":{"profile":["http://hl7.org/fhir/us/cqfmeasures/StructureDefinition/test-case-cqfm"]},"contained":[{"resourceType":"Parameters","id":"d375e1bc-8db5-46e6-85ba-d2f75dbb6b4b-parameters","parameter":[{"name":"subject","valueString":"9ec1750b-d270-40e7-bc39-de6e09d81e09"}]}],"extension":[{"url":"http://hl7.org/fhir/us/cqfmeasures/StructureDefinition/cqfm-inputParameters","valueReference":{"reference":"#d375e1bc-8db5-46e6-85ba-d2f75dbb6b4b-parameters"}},{"url":"http://hl7.org/fhir/us/cqfmeasures/StructureDefinition/cqfm-testCaseDescription","valueMarkdown":"Patient receives CMO during inpatient encounter. ED ends 60 min. before Observation start, Obs ends 60 min before inpatient encounter start. Testing HospitalizationWithObservation function.\n"}],"modifierExtension":[{"url":"http://hl7.org/fhir/us/cqfmeasures/StructureDefinition/cqfm-isTestCase","valueBoolean":true}],"status":"complete","type":"individual","measure":"https://madie.cms.gov/Measure/AnticoagulationTherapyforAtrialFibrillationFlutterFHIR","period":{"start":"2025-01-01","end":"2025-12-31"},"group":[{"population":[{"code":{"coding":[{"system":"http://terminology.hl7.org/CodeSystem/measure-population","code":"initial-population","display":"Initial Population"}]},"count":1},{"code":{"coding":[{"system":"http://terminology.hl7.org/CodeSystem/measure-population","code":"denominator","display":"Denominator"}]},"count":1},{"code":{"coding":[{"system":"http://terminology.hl7.org/CodeSystem/measure-population","code":"denominator-exclusion","display":"Denominator Exclusion"}]},"count":1},{"code":{"coding":[{"system":"http://terminology.hl7.org/CodeSystem/measure-population","code":"numerator","display":"Numerator"}]},"count":0},{"code":{"coding":[{"system":"http://terminology.hl7.org/CodeSystem/measure-population","code":"denominator-exception","display":"Denominator Exception"}]},"count":0}]}]},"request":{"method":"PUT","url":"MeasureReport/858df905-9077-45de-8628-c65a638ef4b7"}}]}