{"resourceType":"Bundle","id":"tests-e549da32-8565-45cb-b432-3d1bcc560cf2-bundle","type":"transaction","entry":[{"fullUrl":"https://madie.cms.gov/Patient/65e19710-3c91-49b2-bcc9-cd27aa61f4cc","resource":{"resourceType":"Patient","id":"65e19710-3c91-49b2-bcc9-cd27aa61f4cc","meta":{"profile":["http://hl7.org/fhir/us/qicore/StructureDefinition/qicore-patient"]},"text":{"status":"generated","div":"<div xmlns=\"http://www.w3.org/1999/xhtml\"><div class=\"hapiHeaderText\">EncDx=HemStroke <b>IPPFAIL </b></div><table class=\"hapiPropertyTable\"><tbody><tr><td>Identifier</td><td>772d231fd1f32fc4c53689105ade52d1</td></tr><tr><td>Date of birth</td><td><span>01 December 1960</span></td></tr></tbody></table></div>"},"extension":[{"url":"http://hl7.org/fhir/us/core/StructureDefinition/us-core-race","extension":[{"url":"ombCategory","valueCoding":{"system":"urn:oid:2.16.840.1.113883.6.238","code":"1002-5","display":"American Indian or Alaska Native","userSelected":true}},{"url":"text","valueString":"American Indian or Alaska Native"}]},{"url":"http://hl7.org/fhir/us/core/StructureDefinition/us-core-ethnicity","extension":[{"url":"ombCategory","valueCoding":{"system":"urn:oid:2.16.840.1.113883.6.238","code":"2135-2","display":"Hispanic or Latino","userSelected":true}},{"url":"text","valueString":"Hispanic or Latino"}]}],"identifier":[{"type":{"coding":[{"system":"http://terminology.hl7.org/CodeSystem/v2-0203","code":"MR"}]},"system":"https://bonnie-fhir.healthit.gov/","value":"633c9d030968f8012250fc96"}],"active":true,"name":[{"use":"usual","family":"IPPFail","given":["EncDx=HemStroke "]}],"gender":"male","birthDate":"1960-12-01"},"request":{"method":"PUT","url":"Patient/65e19710-3c91-49b2-bcc9-cd27aa61f4cc"}},{"fullUrl":"https://madie.cms.gov/Encounter/0e3c4631-c5b3-48c1-a909-11df6f81d269","resource":{"resourceType":"Encounter","id":"0e3c4631-c5b3-48c1-a909-11df6f81d269","meta":{"profile":["http://hl7.org/fhir/us/qicore/StructureDefinition/qicore-encounter"]},"status":"finished","class":{"system":"http://terminology.hl7.org/CodeSystem/v3-ActCode","code":"IMP","display":"inpatient encounter"},"type":[{"coding":[{"system":"http://snomed.info/sct","code":"32485007"}]}],"subject":{"reference":"Patient/65e19710-3c91-49b2-bcc9-cd27aa61f4cc"},"period":{"start":"2025-02-08T08:00:00.000Z","end":"2025-02-10T08:15:00.000Z"},"length":{"value":2.0,"unit":"days"},"diagnosis":[{"condition":{"reference":"Condition/3d1435e9-2fc9-4b48-8797-1b6abbc51246"}}]},"request":{"method":"PUT","url":"Encounter/0e3c4631-c5b3-48c1-a909-11df6f81d269"}},{"fullUrl":"https://madie.cms.gov/Coverage/041db45e-b98d-44ce-aa82-5c5ed602603c","resource":{"resourceType":"Coverage","id":"041db45e-b98d-44ce-aa82-5c5ed602603c","status":"active","beneficiary":{"reference":"Patient/65e19710-3c91-49b2-bcc9-cd27aa61f4cc"},"period":{"start":"1960-12-01T08:00:00.000Z"},"payor":[{"reference":"Organization/26111c91-b0e2-476c-a20b-e3f39799f8f5"}]},"request":{"method":"PUT","url":"Coverage/041db45e-b98d-44ce-aa82-5c5ed602603c"}},{"fullUrl":"https://madie.cms.gov/Condition/3d1435e9-2fc9-4b48-8797-1b6abbc51246","resource":{"resourceType":"Condition","id":"3d1435e9-2fc9-4b48-8797-1b6abbc51246","meta":{"profile":["http://hl7.org/fhir/us/qicore/StructureDefinition/qicore-condition"]},"clinicalStatus":{"coding":[{"system":"http://terminology.hl7.org/CodeSystem/condition-clinical","code":"active"}]},"verificationStatus":{"coding":[{"system":"http://terminology.hl7.org/CodeSystem/condition-ver-status","code":"confirmed"}]},"category":[{"coding":[{"system":"http://terminology.hl7.org/CodeSystem/condition-category","code":"encounter-diagnosis","display":"Encounter Diagnosis"}]}],"code":{"coding":[{"system":"http://snomed.info/sct","version":"2021-09","code":"195155004","display":"Subarachnoid hemorrhage from carotid siphon and bifurcation (disorder)","userSelected":true}]},"subject":{"reference":"Patient/65e19710-3c91-49b2-bcc9-cd27aa61f4cc"},"recordedDate":"2025-10-13T08:00:00.000+00:00"},"request":{"method":"PUT","url":"Condition/3d1435e9-2fc9-4b48-8797-1b6abbc51246"}},{"fullUrl":"https://madie.cms.gov/Organization/59bd8b34-9e1f-43c2-89df-445d13baef51","resource":{"resourceType":"Organization","id":"26111c91-b0e2-476c-a20b-e3f39799f8f5","meta":{"profile":["http://hl7.org/fhir/us/qicore/StructureDefinition/qicore-organization"]},"identifier":[{"use":"temp","system":"urn:oid:2.16.840.1.113883.4.4","value":"21-3259825"}],"active":true,"type":[{"coding":[{"system":"http://terminology.hl7.org/CodeSystem/organization-type","code":"pay","display":"Payer"}]}],"name":"Blue Cross Blue Shield of Texas","telecom":[{"system":"phone","value":"(+1) 972-766-6900"}],"address":[{"use":"billing","type":"postal","line":["P.O. Box 660044"],"city":"Dallas","state":"TX","postalCode":"75266-0044","country":"USA"}]},"request":{"method":"PUT","url":"Organization/26111c91-b0e2-476c-a20b-e3f39799f8f5"}},{"fullUrl":"https://madie.cms.gov/Practitioner/a6568c73-deda-42a6-b823-03c842ac5a5b","resource":{"resourceType":"Practitioner","id":"a6568c73-deda-42a6-b823-03c842ac5a5b","identifier":[{"system":"http://hl7.org/fhir/sid/us-npi","value":"123456"}],"name":[{"family":"Evil","prefix":["Dr"]}]},"request":{"method":"PUT","url":"Practitioner/a6568c73-deda-42a6-b823-03c842ac5a5b"}},{"fullUrl":"https://madie.cms.gov/MeasureReport/af28d7db-5a08-40d9-9204-3e640e7664fa","resource":{"resourceType":"MeasureReport","id":"af28d7db-5a08-40d9-9204-3e640e7664fa","meta":{"profile":["http://hl7.org/fhir/us/cqfmeasures/StructureDefinition/test-case-cqfm"]},"contained":[{"resourceType":"Parameters","id":"34b2826a-a883-403d-aaca-f2dd1d90fb41-parameters","parameter":[{"name":"subject","valueString":"65e19710-3c91-49b2-bcc9-cd27aa61f4cc"}]}],"extension":[{"url":"http://hl7.org/fhir/us/cqfmeasures/StructureDefinition/cqfm-inputParameters","valueReference":{"reference":"#34b2826a-a883-403d-aaca-f2dd1d90fb41-parameters"}},{"url":"http://hl7.org/fhir/us/cqfmeasures/StructureDefinition/cqfm-testCaseDescription","valueMarkdown":"Enc diagnosis = Hem stroke\n"}],"modifierExtension":[{"url":"http://hl7.org/fhir/us/cqfmeasures/StructureDefinition/cqfm-isTestCase","valueBoolean":true}],"status":"complete","type":"individual","measure":"https://madie.cms.gov/Measure/AnticoagulationTherapyforAtrialFibrillationFlutterFHIR","period":{"start":"2025-01-01","end":"2025-12-31"},"group":[{"population":[{"code":{"coding":[{"system":"http://terminology.hl7.org/CodeSystem/measure-population","code":"initial-population","display":"Initial Population"}]},"count":0},{"code":{"coding":[{"system":"http://terminology.hl7.org/CodeSystem/measure-population","code":"denominator","display":"Denominator"}]},"count":0},{"code":{"coding":[{"system":"http://terminology.hl7.org/CodeSystem/measure-population","code":"denominator-exclusion","display":"Denominator Exclusion"}]},"count":0},{"code":{"coding":[{"system":"http://terminology.hl7.org/CodeSystem/measure-population","code":"numerator","display":"Numerator"}]},"count":0},{"code":{"coding":[{"system":"http://terminology.hl7.org/CodeSystem/measure-population","code":"denominator-exception","display":"Denominator Exception"}]},"count":0}]}]},"request":{"method":"PUT","url":"MeasureReport/af28d7db-5a08-40d9-9204-3e640e7664fa"}}]}