{"resourceType":"Bundle","id":"tests-f916d085-e8dc-4e8d-97ae-07952c1062b9-bundle","type":"transaction","entry":[{"fullUrl":"https://madie.cms.gov/Patient/062d769c-bee7-422e-8629-ee4e15ac1d4d","resource":{"resourceType":"Patient","id":"062d769c-bee7-422e-8629-ee4e15ac1d4d","meta":{"profile":["http://hl7.org/fhir/us/qicore/StructureDefinition/qicore-patient"]},"text":{"status":"generated","div":"<div xmlns=\"http://www.w3.org/1999/xhtml\"><div class=\"hapiHeaderText\">DischargeACF <b>DENEXPASS </b></div><table class=\"hapiPropertyTable\"><tbody><tr><td>Identifier</td><td>34c56525ad7011dea3dfe275e76167da</td></tr><tr><td>Date of birth</td><td><span>31 July 1969</span></td></tr></tbody></table></div>"},"extension":[{"url":"http://hl7.org/fhir/us/core/StructureDefinition/us-core-race","extension":[{"url":"ombCategory","valueCoding":{"system":"urn:oid:2.16.840.1.113883.6.238","code":"1002-5","display":"American Indian or Alaska Native","userSelected":true}},{"url":"text","valueString":"American Indian or Alaska Native"}]},{"url":"http://hl7.org/fhir/us/core/StructureDefinition/us-core-ethnicity","extension":[{"url":"ombCategory","valueCoding":{"system":"urn:oid:2.16.840.1.113883.6.238","code":"2135-2","display":"Hispanic or Latino","userSelected":true}},{"url":"text","valueString":"Hispanic or Latino"}]}],"identifier":[{"type":{"coding":[{"system":"http://terminology.hl7.org/CodeSystem/v2-0203","code":"MR"}]},"system":"https://bonnie-fhir.healthit.gov/","value":"633c9d020968f8012250fc6a"}],"active":true,"name":[{"use":"usual","family":"DENEXPass","given":["DischargeACF"]}],"gender":"male","birthDate":"1969-07-31"},"request":{"method":"PUT","url":"Patient/062d769c-bee7-422e-8629-ee4e15ac1d4d"}},{"fullUrl":"https://madie.cms.gov/Encounter/2d73e601-6b3a-46bf-94cb-4c4fceeb2158","resource":{"resourceType":"Encounter","id":"2d73e601-6b3a-46bf-94cb-4c4fceeb2158","meta":{"profile":["http://hl7.org/fhir/us/qicore/StructureDefinition/qicore-encounter"]},"status":"finished","class":{"system":"http://terminology.hl7.org/CodeSystem/v3-ActCode","code":"IMP","display":"inpatient encounter"},"type":[{"coding":[{"system":"http://snomed.info/sct","code":"32485007"}]}],"subject":{"reference":"Patient/062d769c-bee7-422e-8629-ee4e15ac1d4d"},"period":{"start":"2025-11-20T08:00:00.000Z","end":"2025-11-24T08:15:00.000Z"},"length":{"value":4,"unit":"days"},"diagnosis":[{"condition":{"reference":"Condition/79660896-ccb9-49ad-81f4-fd1104b3f995"},"use":{"coding":[{"system":"http://terminology.hl7.org/CodeSystem/diagnosis-role","code":"billing","display":"Billing"}]},"rank":1}],"hospitalization":{"dischargeDisposition":{"coding":[{"system":"http://snomed.info/sct","code":"306701001","display":"Discharge To Acute Care Facility"}]}}},"request":{"method":"PUT","url":"Encounter/2d73e601-6b3a-46bf-94cb-4c4fceeb2158"}},{"fullUrl":"https://madie.cms.gov/Coverage/4c96cdc5-afe1-4887-9474-72f6d8d4a44d","resource":{"resourceType":"Coverage","id":"4c96cdc5-afe1-4887-9474-72f6d8d4a44d","status":"active","beneficiary":{"reference":"Patient/062d769c-bee7-422e-8629-ee4e15ac1d4d"},"period":{"start":"1969-07-31T08:00:00.000Z"},"payor":[{"reference":"Organization/26111c91-b0e2-476c-a20b-e3f39799f8f5"}]},"request":{"method":"PUT","url":"Coverage/4c96cdc5-afe1-4887-9474-72f6d8d4a44d"}},{"fullUrl":"https://madie.cms.gov/Procedure/e56dd812-f52a-4e99-bcb3-ebf7af9296ea","resource":{"resourceType":"Procedure","id":"e56dd812-f52a-4e99-bcb3-ebf7af9296ea","meta":{"profile":["http://hl7.org/fhir/us/qicore/StructureDefinition/qicore-procedure"]},"extension":[{"url":"http://hl7.org/fhir/us/qicore/StructureDefinition/qicore-recorded","valueDateTime":"2025-11-19T09:35:00-04:00"}],"status":"completed","code":{"coding":[{"system":"http://www.cms.gov/Medicare/Coding/ICD10","code":"02560ZZ"},{"system":"http://snomed.info/sct","code":"175095005"}]},"subject":{"reference":"Patient/062d769c-bee7-422e-8629-ee4e15ac1d4d"},"performedPeriod":{"start":"2025-11-19T08:00:00.000Z","end":"2025-11-20T08:15:00.000Z"}},"request":{"method":"PUT","url":"Procedure/e56dd812-f52a-4e99-bcb3-ebf7af9296ea"}},{"fullUrl":"https://madie.cms.gov/Condition/79660896-ccb9-49ad-81f4-fd1104b3f995","resource":{"resourceType":"Condition","id":"79660896-ccb9-49ad-81f4-fd1104b3f995","meta":{"profile":["http://hl7.org/fhir/us/qicore/StructureDefinition/qicore-condition"]},"clinicalStatus":{"coding":[{"system":"http://terminology.hl7.org/CodeSystem/condition-clinical","code":"active"}]},"verificationStatus":{"coding":[{"system":"http://terminology.hl7.org/CodeSystem/condition-ver-status","code":"confirmed"}]},"category":[{"coding":[{"system":"http://terminology.hl7.org/CodeSystem/condition-category","code":"encounter-diagnosis","display":"Encounter Diagnosis"}]}],"code":{"coding":[{"system":"http://snomed.info/sct","version":"2021-09","code":"111297002","display":"Nonparalytic stroke (disorder)","userSelected":true}]},"subject":{"reference":"Patient/062d769c-bee7-422e-8629-ee4e15ac1d4d"},"recordedDate":"2025-10-13T08:00:00.000+00:00"},"request":{"method":"PUT","url":"Condition/79660896-ccb9-49ad-81f4-fd1104b3f995"}},{"fullUrl":"https://madie.cms.gov/Organization/2758f420-983b-497f-bdb6-b9703b6f7eb1","resource":{"resourceType":"Organization","id":"26111c91-b0e2-476c-a20b-e3f39799f8f5","meta":{"profile":["http://hl7.org/fhir/us/qicore/StructureDefinition/qicore-organization"]},"identifier":[{"use":"temp","system":"urn:oid:2.16.840.1.113883.4.4","value":"21-3259825"}],"active":true,"type":[{"coding":[{"system":"http://terminology.hl7.org/CodeSystem/organization-type","code":"pay","display":"Payer"}]}],"name":"Blue Cross Blue Shield of Texas","telecom":[{"system":"phone","value":"(+1) 972-766-6900"}],"address":[{"use":"billing","type":"postal","line":["P.O. Box 660044"],"city":"Dallas","state":"TX","postalCode":"75266-0044","country":"USA"}]},"request":{"method":"PUT","url":"Organization/26111c91-b0e2-476c-a20b-e3f39799f8f5"}},{"fullUrl":"https://madie.cms.gov/Practitioner/f31321c5-38cd-4840-beef-63cf3051c0f1","resource":{"resourceType":"Practitioner","id":"f31321c5-38cd-4840-beef-63cf3051c0f1","identifier":[{"system":"http://hl7.org/fhir/sid/us-npi","value":"123456"}],"name":[{"family":"Evil","prefix":["Dr"]}]},"request":{"method":"PUT","url":"Practitioner/f31321c5-38cd-4840-beef-63cf3051c0f1"}},{"fullUrl":"https://madie.cms.gov/MeasureReport/57cc90cc-2182-45e2-84a5-f68127acf7d9","resource":{"resourceType":"MeasureReport","id":"57cc90cc-2182-45e2-84a5-f68127acf7d9","meta":{"profile":["http://hl7.org/fhir/us/cqfmeasures/StructureDefinition/test-case-cqfm"]},"contained":[{"resourceType":"Parameters","id":"7d92204c-5574-4ff3-8d31-7578d9020860-parameters","parameter":[{"name":"subject","valueString":"062d769c-bee7-422e-8629-ee4e15ac1d4d"}]}],"extension":[{"url":"http://hl7.org/fhir/us/cqfmeasures/StructureDefinition/cqfm-inputParameters","valueReference":{"reference":"#7d92204c-5574-4ff3-8d31-7578d9020860-parameters"}},{"url":"http://hl7.org/fhir/us/cqfmeasures/StructureDefinition/cqfm-testCaseDescription","valueMarkdown":"Patient is discharged to acute care facility.(ACFA)\n"}],"modifierExtension":[{"url":"http://hl7.org/fhir/us/cqfmeasures/StructureDefinition/cqfm-isTestCase","valueBoolean":true}],"status":"complete","type":"individual","measure":"https://madie.cms.gov/Measure/AnticoagulationTherapyforAtrialFibrillationFlutterFHIR","period":{"start":"2025-01-01","end":"2025-12-31"},"group":[{"population":[{"code":{"coding":[{"system":"http://terminology.hl7.org/CodeSystem/measure-population","code":"initial-population","display":"Initial Population"}]},"count":1},{"code":{"coding":[{"system":"http://terminology.hl7.org/CodeSystem/measure-population","code":"denominator","display":"Denominator"}]},"count":1},{"code":{"coding":[{"system":"http://terminology.hl7.org/CodeSystem/measure-population","code":"denominator-exclusion","display":"Denominator Exclusion"}]},"count":1},{"code":{"coding":[{"system":"http://terminology.hl7.org/CodeSystem/measure-population","code":"numerator","display":"Numerator"}]},"count":0},{"code":{"coding":[{"system":"http://terminology.hl7.org/CodeSystem/measure-population","code":"denominator-exception","display":"Denominator Exception"}]},"count":0}]}]},"request":{"method":"PUT","url":"MeasureReport/57cc90cc-2182-45e2-84a5-f68127acf7d9"}}]}