{"resourceType":"Bundle","id":"tests-67622b2b-10f4-44c5-be6e-7f15b78f1464-bundle","type":"transaction","entry":[{"fullUrl":"https://madie.cms.gov/Patient/f8f3dffc-4f9c-4297-bbd6-f8f0bdcfea4d","resource":{"resourceType":"Patient","id":"f8f3dffc-4f9c-4297-bbd6-f8f0bdcfea4d","meta":{"profile":["http://hl7.org/fhir/us/qicore/StructureDefinition/qicore-patient"]},"text":{"status":"generated","div":"<div xmlns=\"http://www.w3.org/1999/xhtml\"><div class=\"hapiHeaderText\">2IPPass1IPFail DENEXPass <b>NUMERPASSX1 </b></div><table class=\"hapiPropertyTable\"><tbody><tr><td>Identifier</td><td>52c14de634122f39abfbd9ffaa41bc27</td></tr><tr><td>Date of birth</td><td><span>23 May 1954</span></td></tr></tbody></table></div>"},"extension":[{"url":"http://hl7.org/fhir/us/core/StructureDefinition/us-core-race","extension":[{"url":"ombCategory","valueCoding":{"system":"urn:oid:2.16.840.1.113883.6.238","code":"1002-5","display":"American Indian or Alaska Native","userSelected":true}},{"url":"text","valueString":"American Indian or Alaska Native"}]},{"url":"http://hl7.org/fhir/us/core/StructureDefinition/us-core-ethnicity","extension":[{"url":"ombCategory","valueCoding":{"system":"urn:oid:2.16.840.1.113883.6.238","code":"2135-2","display":"Hispanic or Latino","userSelected":true}},{"url":"text","valueString":"Hispanic or Latino"}]}],"identifier":[{"type":{"coding":[{"system":"http://terminology.hl7.org/CodeSystem/v2-0203","code":"MR"}]},"system":"https://bonnie-fhir.healthit.gov/","value":"633c9d040968f8012250fcaf"}],"active":true,"name":[{"use":"usual","family":"NUMERPassX1","given":["2IPPass1IPFail DENEXPass"]}],"gender":"female","birthDate":"1954-05-23"},"request":{"method":"PUT","url":"Patient/f8f3dffc-4f9c-4297-bbd6-f8f0bdcfea4d"}},{"fullUrl":"https://madie.cms.gov/Encounter/94810625-fe11-4c1f-88f5-f050e610f3df","resource":{"resourceType":"Encounter","id":"94810625-fe11-4c1f-88f5-f050e610f3df","meta":{"profile":["http://hl7.org/fhir/us/qicore/StructureDefinition/qicore-encounter"]},"status":"finished","class":{"system":"http://terminology.hl7.org/CodeSystem/v3-ActCode","code":"IMP","display":"inpatient encounter"},"type":[{"coding":[{"system":"http://snomed.info/sct","code":"32485007"}]}],"subject":{"reference":"Patient/f8f3dffc-4f9c-4297-bbd6-f8f0bdcfea4d"},"period":{"start":"2025-11-20T08:00:00.000Z","end":"2025-11-24T08:15:00.000Z"},"length":{"value":4,"unit":"days"},"diagnosis":[{"condition":{"reference":"Condition/f1257648-871e-46f9-ba70-d8342899fac8"},"use":{"coding":[{"system":"http://terminology.hl7.org/CodeSystem/diagnosis-role","code":"billing","display":"Billing"}]},"rank":1}]},"request":{"method":"PUT","url":"Encounter/94810625-fe11-4c1f-88f5-f050e610f3df"}},{"fullUrl":"https://madie.cms.gov/Encounter/dc8e8291-968d-428e-a2a6-83c566d5fde7","resource":{"resourceType":"Encounter","id":"dc8e8291-968d-428e-a2a6-83c566d5fde7","meta":{"profile":["http://hl7.org/fhir/us/qicore/StructureDefinition/qicore-encounter"]},"status":"finished","class":{"system":"http://terminology.hl7.org/CodeSystem/v3-ActCode","code":"IMP","display":"inpatient encounter"},"type":[{"coding":[{"system":"http://snomed.info/sct","code":"183452005"}]}],"subject":{"reference":"Patient/f8f3dffc-4f9c-4297-bbd6-f8f0bdcfea4d"},"period":{"start":"2025-10-28T08:00:00.000Z","end":"2025-10-30T08:15:00.000Z"},"diagnosis":[{"condition":{"reference":"Condition/b4925239-62ad-49d0-8c18-819b97f330b0"},"use":{"coding":[{"system":"http://terminology.hl7.org/CodeSystem/diagnosis-role","code":"billing","display":"Billing"}]},"rank":2}]},"request":{"method":"PUT","url":"Encounter/dc8e8291-968d-428e-a2a6-83c566d5fde7"}},{"fullUrl":"https://madie.cms.gov/Encounter/c39dda95-3d7b-45f0-b0f1-f83709db909b","resource":{"resourceType":"Encounter","id":"c39dda95-3d7b-45f0-b0f1-f83709db909b","meta":{"profile":["http://hl7.org/fhir/us/qicore/StructureDefinition/qicore-encounter"]},"status":"finished","class":{"system":"http://terminology.hl7.org/CodeSystem/v3-ActCode","code":"IMP","display":"inpatient encounter"},"type":[{"coding":[{"system":"http://snomed.info/sct","code":"183452005"}]}],"subject":{"reference":"Patient/f8f3dffc-4f9c-4297-bbd6-f8f0bdcfea4d"},"period":{"start":"2025-09-03T08:00:00.000Z","end":"2025-09-07T08:15:00.000Z"},"length":{"value":4,"unit":"days"},"diagnosis":[{"condition":{"reference":"Condition/b4925239-62ad-49d0-8c18-819b97f330b0"},"use":{"coding":[{"system":"http://www.cms.gov/Medicare/Coding/ICD10","code":"02560ZZ","display":"Destruction of Right Atrium, Open Approach"}]}},{"condition":{"reference":"Condition/ddb37d6a-87b1-4b17-8ce6-9f8741bea0f2"}},{"condition":{"reference":"Condition/258cf915-f629-4aa9-9a12-010612d80c41"},"use":{"coding":[{"system":"http://terminology.hl7.org/CodeSystem/diagnosis-role","code":"billing","display":"Billing"}]},"rank":1}]},"request":{"method":"PUT","url":"Encounter/c39dda95-3d7b-45f0-b0f1-f83709db909b"}},{"fullUrl":"https://madie.cms.gov/ServiceRequest/814761f8-f1e2-423b-a219-cb06b2beec9b","resource":{"resourceType":"ServiceRequest","id":"814761f8-f1e2-423b-a219-cb06b2beec9b","meta":{"profile":["http://hl7.org/fhir/us/qicore/StructureDefinition/qicore-servicerequest"]},"status":"active","intent":"order","code":{"coding":[{"system":"http://snomed.info/sct","code":"133918004"}]},"subject":{"reference":"Patient/f8f3dffc-4f9c-4297-bbd6-f8f0bdcfea4d"},"authoredOn":"2025-11-20T08:00:00.000+00:00"},"request":{"method":"PUT","url":"ServiceRequest/814761f8-f1e2-423b-a219-cb06b2beec9b"}},{"fullUrl":"https://madie.cms.gov/MedicationRequest/77b0efb3-1bf8-4427-a26b-0310d0ba27c3","resource":{"resourceType":"MedicationRequest","id":"77b0efb3-1bf8-4427-a26b-0310d0ba27c3","meta":{"profile":["http://hl7.org/fhir/us/qicore/StructureDefinition/qicore-mednotrequested"]},"status":"completed","intent":"order","category":[{"coding":[{"system":"http://terminology.hl7.org/CodeSystem/medicationrequest-category","code":"community"}]}],"doNotPerform":true,"medicationCodeableConcept":{"coding":[{"system":"http://www.nlm.nih.gov/research/umls/rxnorm","code":"308351"}]},"subject":{"reference":"Patient/f8f3dffc-4f9c-4297-bbd6-f8f0bdcfea4d"},"authoredOn":"2025-09-07T08:00:00.000+00:00","requester":{"reference":"Practitioner/example"},"reasonCode":[{"coding":[{"system":"http://snomed.info/sct","code":"183966005","display":"Drug treatment not indicated (situation)"}]}]},"request":{"method":"PUT","url":"MedicationRequest/77b0efb3-1bf8-4427-a26b-0310d0ba27c3"}},{"fullUrl":"https://madie.cms.gov/MedicationRequest/6bf7da6a-67b8-40e5-a539-ffa6b912d996","resource":{"resourceType":"MedicationRequest","id":"6bf7da6a-67b8-40e5-a539-ffa6b912d996","meta":{"profile":["http://hl7.org/fhir/us/qicore/StructureDefinition/qicore-medicationrequest"]},"status":"active","intent":"order","category":[{"coding":[{"system":"http://terminology.hl7.org/CodeSystem/medicationrequest-category","code":"community","display":"Community","userSelected":true}]}],"medicationCodeableConcept":{"coding":[{"system":"http://www.nlm.nih.gov/research/umls/rxnorm","version":"2022-01","code":"1114198","display":"rivaroxaban 10 MG Oral Tablet","userSelected":true}]},"subject":{"reference":"Patient/f8f3dffc-4f9c-4297-bbd6-f8f0bdcfea4d"},"authoredOn":"2025-11-24T08:00:00.000+00:00","requester":{"reference":"Practitioner/example"}},"request":{"method":"PUT","url":"MedicationRequest/6bf7da6a-67b8-40e5-a539-ffa6b912d996"}},{"fullUrl":"https://madie.cms.gov/Coverage/a4c039e3-bd9b-4a37-99b4-7505c62ecce1","resource":{"resourceType":"Coverage","id":"a4c039e3-bd9b-4a37-99b4-7505c62ecce1","status":"active","beneficiary":{"reference":"Patient/f8f3dffc-4f9c-4297-bbd6-f8f0bdcfea4d"},"period":{"start":"1954-05-23T08:00:00.000Z"},"payor":[{"reference":"Organization/26111c91-b0e2-476c-a20b-e3f39799f8f5"}]},"request":{"method":"PUT","url":"Coverage/a4c039e3-bd9b-4a37-99b4-7505c62ecce1"}},{"fullUrl":"https://madie.cms.gov/Procedure/ca04f1db-6ac6-449b-968d-4e935005d05d","resource":{"resourceType":"Procedure","id":"ca04f1db-6ac6-449b-968d-4e935005d05d","meta":{"profile":["http://hl7.org/fhir/us/qicore/StructureDefinition/qicore-procedure"]},"extension":[{"url":"http://hl7.org/fhir/us/qicore/StructureDefinition/qicore-recorded","valueDateTime":"2025-11-19T09:35:00-04:00"}],"status":"completed","code":{"coding":[{"system":"http://www.cms.gov/Medicare/Coding/ICD10","code":"02560ZZ"},{"system":"http://snomed.info/sct","code":"175095005"}]},"subject":{"reference":"Patient/f8f3dffc-4f9c-4297-bbd6-f8f0bdcfea4d"},"performedPeriod":{"start":"2025-11-20T06:00:00.000Z","end":"2025-11-20T07:15:00.000Z"}},"request":{"method":"PUT","url":"Procedure/ca04f1db-6ac6-449b-968d-4e935005d05d"}},{"fullUrl":"https://madie.cms.gov/Condition/f1257648-871e-46f9-ba70-d8342899fac8","resource":{"resourceType":"Condition","id":"f1257648-871e-46f9-ba70-d8342899fac8","meta":{"profile":["http://hl7.org/fhir/us/qicore/StructureDefinition/qicore-condition"]},"clinicalStatus":{"coding":[{"system":"http://terminology.hl7.org/CodeSystem/condition-clinical","code":"active"}]},"verificationStatus":{"coding":[{"system":"http://terminology.hl7.org/CodeSystem/condition-ver-status","code":"confirmed"}]},"category":[{"coding":[{"system":"http://terminology.hl7.org/CodeSystem/condition-category","code":"encounter-diagnosis","display":"Encounter Diagnosis"}]}],"code":{"coding":[{"system":"http://snomed.info/sct","version":"2021-09","code":"111297002","display":"Nonparalytic stroke (disorder)","userSelected":true}]},"subject":{"reference":"Patient/f8f3dffc-4f9c-4297-bbd6-f8f0bdcfea4d"},"recordedDate":"2025-10-13T08:00:00.000+00:00"},"request":{"method":"PUT","url":"Condition/f1257648-871e-46f9-ba70-d8342899fac8"}},{"fullUrl":"https://madie.cms.gov/Condition/b4925239-62ad-49d0-8c18-819b97f330b0","resource":{"resourceType":"Condition","id":"b4925239-62ad-49d0-8c18-819b97f330b0","meta":{"profile":["http://hl7.org/fhir/us/qicore/StructureDefinition/qicore-condition"]},"clinicalStatus":{"coding":[{"system":"http://terminology.hl7.org/CodeSystem/condition-clinical","code":"active"}]},"verificationStatus":{"coding":[{"system":"http://terminology.hl7.org/CodeSystem/condition-ver-status","code":"confirmed"}]},"category":[{"coding":[{"system":"http://terminology.hl7.org/CodeSystem/condition-category","code":"encounter-diagnosis","display":"Encounter Diagnosis"}]}],"code":{"coding":[{"system":"http://www.icd10data.com/icd10pcs","version":"2022","code":"02560ZZ","display":"Destruction of Right Atrium, Open Approach","userSelected":true}]},"subject":{"reference":"Patient/f8f3dffc-4f9c-4297-bbd6-f8f0bdcfea4d"},"recordedDate":"2025-10-13T08:00:00.000+00:00"},"request":{"method":"PUT","url":"Condition/b4925239-62ad-49d0-8c18-819b97f330b0"}},{"fullUrl":"https://madie.cms.gov/Condition/dc0a7873-6da2-474d-90c0-5d6be06e05a2","resource":{"resourceType":"Condition","id":"dc0a7873-6da2-474d-90c0-5d6be06e05a2","meta":{"profile":["http://hl7.org/fhir/us/qicore/StructureDefinition/qicore-condition"]},"clinicalStatus":{"coding":[{"system":"http://terminology.hl7.org/CodeSystem/condition-clinical","code":"active"}]},"verificationStatus":{"coding":[{"system":"http://terminology.hl7.org/CodeSystem/condition-ver-status","code":"confirmed"}]},"category":[{"coding":[{"system":"http://terminology.hl7.org/CodeSystem/condition-category","code":"encounter-diagnosis","display":"Encounter Diagnosis"}]}],"code":{"coding":[{"system":"http://snomed.info/sct","version":"2021-09","code":"111297002","display":"Nonparalytic stroke (disorder)","userSelected":true}]},"subject":{"reference":"Patient/f8f3dffc-4f9c-4297-bbd6-f8f0bdcfea4d"},"recordedDate":"2025-10-13T08:00:00.000+00:00"},"request":{"method":"PUT","url":"Condition/dc0a7873-6da2-474d-90c0-5d6be06e05a2"}},{"fullUrl":"https://madie.cms.gov/Condition/ddb37d6a-87b1-4b17-8ce6-9f8741bea0f2","resource":{"resourceType":"Condition","id":"ddb37d6a-87b1-4b17-8ce6-9f8741bea0f2","meta":{"profile":["http://hl7.org/fhir/us/qicore/StructureDefinition/qicore-condition"]},"clinicalStatus":{"coding":[{"system":"http://terminology.hl7.org/CodeSystem/condition-clinical","code":"active"}]},"verificationStatus":{"coding":[{"system":"http://terminology.hl7.org/CodeSystem/condition-ver-status","code":"confirmed"}]},"category":[{"coding":[{"system":"http://terminology.hl7.org/CodeSystem/condition-category","code":"encounter-diagnosis","display":"Encounter Diagnosis"}]}],"code":{"coding":[{"system":"http://snomed.info/sct","version":"2021-09","code":"120041000119109","display":"Atrial fibrillation with rapid ventricular response (disorder)","userSelected":true}]},"subject":{"reference":"Patient/f8f3dffc-4f9c-4297-bbd6-f8f0bdcfea4d"},"recordedDate":"2025-10-13T08:00:00.000+00:00"},"request":{"method":"PUT","url":"Condition/ddb37d6a-87b1-4b17-8ce6-9f8741bea0f2"}},{"fullUrl":"https://madie.cms.gov/Condition/258cf915-f629-4aa9-9a12-010612d80c41","resource":{"resourceType":"Condition","id":"258cf915-f629-4aa9-9a12-010612d80c41","meta":{"profile":["http://hl7.org/fhir/us/qicore/StructureDefinition/qicore-condition"]},"clinicalStatus":{"coding":[{"system":"http://terminology.hl7.org/CodeSystem/condition-clinical","code":"active"}]},"verificationStatus":{"coding":[{"system":"http://terminology.hl7.org/CodeSystem/condition-ver-status","code":"confirmed"}]},"category":[{"coding":[{"system":"http://terminology.hl7.org/CodeSystem/condition-category","code":"encounter-diagnosis","display":"Encounter Diagnosis"}]}],"code":{"coding":[{"system":"http://snomed.info/sct","version":"2021-09","code":"111297002","display":"Nonparalytic stroke (disorder)","userSelected":true}]},"subject":{"reference":"Patient/f8f3dffc-4f9c-4297-bbd6-f8f0bdcfea4d"},"recordedDate":"2025-10-13T08:00:00.000+00:00"},"request":{"method":"PUT","url":"Condition/258cf915-f629-4aa9-9a12-010612d80c41"}},{"fullUrl":"https://madie.cms.gov/Organization/5343ad47-1f00-4e8c-9aa5-27a9c5287165","resource":{"resourceType":"Organization","id":"26111c91-b0e2-476c-a20b-e3f39799f8f5","meta":{"profile":["http://hl7.org/fhir/us/qicore/StructureDefinition/qicore-organization"]},"identifier":[{"use":"temp","system":"urn:oid:2.16.840.1.113883.4.4","value":"21-3259825"}],"active":true,"type":[{"coding":[{"system":"http://terminology.hl7.org/CodeSystem/organization-type","code":"pay","display":"Payer"}]}],"name":"Blue Cross Blue Shield of Texas","telecom":[{"system":"phone","value":"(+1) 972-766-6900"}],"address":[{"use":"billing","type":"postal","line":["P.O. Box 660044"],"city":"Dallas","state":"TX","postalCode":"75266-0044","country":"USA"}]},"request":{"method":"PUT","url":"Organization/26111c91-b0e2-476c-a20b-e3f39799f8f5"}},{"fullUrl":"https://madie.cms.gov/Practitioner/2a1808fb-912a-4cb2-bebe-9b999aee4378","resource":{"resourceType":"Practitioner","id":"2a1808fb-912a-4cb2-bebe-9b999aee4378","identifier":[{"system":"http://hl7.org/fhir/sid/us-npi","value":"123456"}],"name":[{"family":"Evil","prefix":["Dr"]}]},"request":{"method":"PUT","url":"Practitioner/2a1808fb-912a-4cb2-bebe-9b999aee4378"}},{"fullUrl":"https://madie.cms.gov/MeasureReport/bfeb36c1-08d7-4e40-8468-511dfb2bfde0","resource":{"resourceType":"MeasureReport","id":"bfeb36c1-08d7-4e40-8468-511dfb2bfde0","meta":{"profile":["http://hl7.org/fhir/us/cqfmeasures/StructureDefinition/test-case-cqfm"]},"contained":[{"resourceType":"Parameters","id":"fc2cf0a2-1103-4a29-a731-b7a4b168f9df-parameters","parameter":[{"name":"subject","valueString":"f8f3dffc-4f9c-4297-bbd6-f8f0bdcfea4d"}]}],"extension":[{"url":"http://hl7.org/fhir/us/cqfmeasures/StructureDefinition/cqfm-inputParameters","valueReference":{"reference":"#fc2cf0a2-1103-4a29-a731-b7a4b168f9df-parameters"}},{"url":"http://hl7.org/fhir/us/cqfmeasures/StructureDefinition/cqfm-testCaseDescription","valueMarkdown":"Pt. discharged on anticoagulant, starts during encounter 1. Encounter 2 has admitting diagnosis with rank 2. Encounter 3 satisfies IPP and Denom. \n"}],"modifierExtension":[{"url":"http://hl7.org/fhir/us/cqfmeasures/StructureDefinition/cqfm-isTestCase","valueBoolean":true}],"status":"complete","type":"individual","measure":"https://madie.cms.gov/Measure/AnticoagulationTherapyforAtrialFibrillationFlutterFHIR","period":{"start":"2025-01-01","end":"2025-12-31"},"group":[{"population":[{"code":{"coding":[{"system":"http://terminology.hl7.org/CodeSystem/measure-population","code":"initial-population","display":"Initial Population"}]},"count":2},{"code":{"coding":[{"system":"http://terminology.hl7.org/CodeSystem/measure-population","code":"denominator","display":"Denominator"}]},"count":2},{"code":{"coding":[{"system":"http://terminology.hl7.org/CodeSystem/measure-population","code":"denominator-exclusion","display":"Denominator Exclusion"}]},"count":1},{"code":{"coding":[{"system":"http://terminology.hl7.org/CodeSystem/measure-population","code":"numerator","display":"Numerator"}]},"count":0},{"code":{"coding":[{"system":"http://terminology.hl7.org/CodeSystem/measure-population","code":"denominator-exception","display":"Denominator Exception"}]},"count":1}]}]},"request":{"method":"PUT","url":"MeasureReport/bfeb36c1-08d7-4e40-8468-511dfb2bfde0"}}]}