{"resourceType":"Bundle","id":"tests-a0d01348-6938-4d7b-8f26-d4643658de9e-bundle","type":"transaction","entry":[{"fullUrl":"https://madie.cms.gov/Patient/33294fe3-2fe5-4d16-95a2-6b0aec5fd4c1","resource":{"resourceType":"Patient","id":"33294fe3-2fe5-4d16-95a2-6b0aec5fd4c1","meta":{"profile":["http://hl7.org/fhir/us/qicore/StructureDefinition/qicore-patient"]},"text":{"status":"generated","div":"<div xmlns=\"http://www.w3.org/1999/xhtml\"><div class=\"hapiHeaderText\">MedReasonAfterEncEnds <b>DENEXCEPFAIL </b></div><table class=\"hapiPropertyTable\"><tbody><tr><td>Identifier</td><td>a27264b3fcf4a03cc045af78abe18ccf</td></tr><tr><td>Date of birth</td><td><span>23 May 1954</span></td></tr></tbody></table></div>"},"extension":[{"url":"http://hl7.org/fhir/us/core/StructureDefinition/us-core-race","extension":[{"url":"ombCategory","valueCoding":{"system":"urn:oid:2.16.840.1.113883.6.238","code":"1002-5","display":"American Indian or Alaska Native","userSelected":true}},{"url":"detailed","valueCoding":{"system":"urn:oid:2.16.840.1.113883.6.238","code":"2036-2","display":"Filipino"}},{"url":"text","valueString":"American Indian or Alaska Native"}]},{"url":"http://hl7.org/fhir/us/core/StructureDefinition/us-core-ethnicity","extension":[{"url":"ombCategory","valueCoding":{"system":"urn:oid:2.16.840.1.113883.6.238","code":"2135-2","display":"Hispanic or Latino","userSelected":true}},{"url":"text","valueString":"Hispanic or Latino"},{"url":"detailed","valueCoding":{"system":"urn:oid:2.16.840.1.113883.6.238","code":"2153-5","display":"Mexican American Indian"}}]}],"identifier":[{"type":{"coding":[{"system":"http://terminology.hl7.org/CodeSystem/v2-0203","code":"MR"}]},"system":"https://bonnie-fhir.healthit.gov/","value":"633c9d030968f8012250fc8f"}],"active":true,"name":[{"use":"usual","family":"DENEXCEPFail","given":["MedReasonAfterEncEnds"]}],"gender":"female","birthDate":"1954-05-23"},"request":{"method":"PUT","url":"Patient/33294fe3-2fe5-4d16-95a2-6b0aec5fd4c1"}},{"fullUrl":"https://madie.cms.gov/Encounter/c560ff6b-f0c1-4f92-9a39-4bd8557db93e","resource":{"resourceType":"Encounter","id":"c560ff6b-f0c1-4f92-9a39-4bd8557db93e","meta":{"profile":["http://hl7.org/fhir/us/qicore/StructureDefinition/qicore-encounter"]},"status":"finished","class":{"system":"http://terminology.hl7.org/CodeSystem/v3-ActCode","code":"IMP","display":"inpatient encounter"},"type":[{"coding":[{"system":"http://snomed.info/sct","code":"32485007"}]}],"subject":{"reference":"Patient/33294fe3-2fe5-4d16-95a2-6b0aec5fd4c1"},"period":{"start":"2025-11-20T07:16:00.000Z","end":"2025-11-24T08:15:00.000Z"},"length":{"value":4,"unit":"days"},"diagnosis":[{"condition":{"reference":"Condition/08521a05-bffd-4748-a9e6-6392f49f596e"},"use":{"coding":[{"system":"http://terminology.hl7.org/CodeSystem/diagnosis-role","code":"billing","display":"Billing"}]},"rank":1}]},"request":{"method":"PUT","url":"Encounter/c560ff6b-f0c1-4f92-9a39-4bd8557db93e"}},{"fullUrl":"https://madie.cms.gov/MedicationRequest/ee3a5c60-488b-4661-a9e9-b2ce37e656be","resource":{"resourceType":"MedicationRequest","id":"ee3a5c60-488b-4661-a9e9-b2ce37e656be","meta":{"profile":["http://hl7.org/fhir/us/qicore/StructureDefinition/qicore-mednotrequested"]},"status":"completed","intent":"order","category":[{"coding":[{"system":"http://terminology.hl7.org/CodeSystem/medicationrequest-category","code":"community"}]}],"doNotPerform":true,"medicationCodeableConcept":{"coding":[{"system":"http://www.nlm.nih.gov/research/umls/rxnorm","code":"1037045"}]},"subject":{"reference":"Patient/33294fe3-2fe5-4d16-95a2-6b0aec5fd4c1"},"authoredOn":"2025-11-24T08:16:00.000+00:00","requester":{"reference":"Practitioner/example"},"reasonCode":[{"coding":[{"system":"http://snomed.info/sct","code":"183932001"}]}]},"request":{"method":"PUT","url":"MedicationRequest/ee3a5c60-488b-4661-a9e9-b2ce37e656be"}},{"fullUrl":"https://madie.cms.gov/Coverage/40a34409-7928-4c6b-901d-909c43017d09","resource":{"resourceType":"Coverage","id":"40a34409-7928-4c6b-901d-909c43017d09","status":"active","beneficiary":{"reference":"Patient/33294fe3-2fe5-4d16-95a2-6b0aec5fd4c1"},"period":{"start":"1954-05-23T08:00:00.000Z"},"payor":[{"reference":"Organization/26111c91-b0e2-476c-a20b-e3f39799f8f5"}]},"request":{"method":"PUT","url":"Coverage/40a34409-7928-4c6b-901d-909c43017d09"}},{"fullUrl":"https://madie.cms.gov/Procedure/15cc2549-0426-4777-a1cc-2457c5f9a9bc","resource":{"resourceType":"Procedure","id":"15cc2549-0426-4777-a1cc-2457c5f9a9bc","meta":{"profile":["http://hl7.org/fhir/us/qicore/StructureDefinition/qicore-procedure"]},"extension":[{"url":"http://hl7.org/fhir/us/qicore/StructureDefinition/qicore-recorded","valueDateTime":"2013-04-05T09:35:00-04:00"}],"status":"completed","code":{"coding":[{"system":"http://www.cms.gov/Medicare/Coding/ICD10","code":"02560ZZ"},{"system":"http://snomed.info/sct","code":"175095005"}]},"subject":{"reference":"Patient/33294fe3-2fe5-4d16-95a2-6b0aec5fd4c1"},"performedPeriod":{"start":"2025-11-20T07:15:00.000Z","end":"2025-11-20T07:16:00.000Z"}},"request":{"method":"PUT","url":"Procedure/15cc2549-0426-4777-a1cc-2457c5f9a9bc"}},{"fullUrl":"https://madie.cms.gov/Condition/08521a05-bffd-4748-a9e6-6392f49f596e","resource":{"resourceType":"Condition","id":"08521a05-bffd-4748-a9e6-6392f49f596e","meta":{"profile":["http://hl7.org/fhir/us/qicore/StructureDefinition/qicore-condition"]},"clinicalStatus":{"coding":[{"system":"http://terminology.hl7.org/CodeSystem/condition-clinical","code":"active"}]},"verificationStatus":{"coding":[{"system":"http://terminology.hl7.org/CodeSystem/condition-ver-status","code":"confirmed"}]},"category":[{"coding":[{"system":"http://terminology.hl7.org/CodeSystem/condition-category","code":"encounter-diagnosis","display":"Encounter Diagnosis"}]}],"code":{"coding":[{"system":"http://snomed.info/sct","version":"2021-09","code":"111297002","display":"Nonparalytic stroke (disorder)","userSelected":true}]},"subject":{"reference":"Patient/33294fe3-2fe5-4d16-95a2-6b0aec5fd4c1"},"recordedDate":"2025-10-13T08:00:00.000+00:00"},"request":{"method":"PUT","url":"Condition/08521a05-bffd-4748-a9e6-6392f49f596e"}},{"fullUrl":"https://madie.cms.gov/Organization/471beaee-201e-45ab-8977-05c20d6caa01","resource":{"resourceType":"Organization","id":"26111c91-b0e2-476c-a20b-e3f39799f8f5","meta":{"profile":["http://hl7.org/fhir/us/qicore/StructureDefinition/qicore-organization"]},"identifier":[{"use":"temp","system":"urn:oid:2.16.840.1.113883.4.4","value":"21-3259825"}],"active":true,"type":[{"coding":[{"system":"http://terminology.hl7.org/CodeSystem/organization-type","code":"pay","display":"Payer"}]}],"name":"Blue Cross Blue Shield of Texas","telecom":[{"system":"phone","value":"(+1) 972-766-6900"}],"address":[{"use":"billing","type":"postal","line":["P.O. Box 660044"],"city":"Dallas","state":"TX","postalCode":"75266-0044","country":"USA"}]},"request":{"method":"PUT","url":"Organization/26111c91-b0e2-476c-a20b-e3f39799f8f5"}},{"fullUrl":"https://madie.cms.gov/MeasureReport/dcd6072e-b787-4939-bb36-04f123a9be0f","resource":{"resourceType":"MeasureReport","id":"dcd6072e-b787-4939-bb36-04f123a9be0f","meta":{"profile":["http://hl7.org/fhir/us/cqfmeasures/StructureDefinition/test-case-cqfm"]},"contained":[{"resourceType":"Parameters","id":"da9f38a5-49cb-4da1-beac-1b283217844a-parameters","parameter":[{"name":"subject","valueString":"33294fe3-2fe5-4d16-95a2-6b0aec5fd4c1"}]}],"extension":[{"url":"http://hl7.org/fhir/us/cqfmeasures/StructureDefinition/cqfm-inputParameters","valueReference":{"reference":"#da9f38a5-49cb-4da1-beac-1b283217844a-parameters"}},{"url":"http://hl7.org/fhir/us/cqfmeasures/StructureDefinition/cqfm-testCaseDescription","valueMarkdown":"Patient did not receive anticoagulant on dc due to medical reason, but start date is after end of encounter.\n"}],"modifierExtension":[{"url":"http://hl7.org/fhir/us/cqfmeasures/StructureDefinition/cqfm-isTestCase","valueBoolean":true}],"status":"complete","type":"individual","measure":"https://madie.cms.gov/Measure/AnticoagulationTherapyforAtrialFibrillationFlutterFHIR","period":{"start":"2025-01-01","end":"2025-12-31"},"group":[{"population":[{"code":{"coding":[{"system":"http://terminology.hl7.org/CodeSystem/measure-population","code":"initial-population","display":"Initial Population"}]},"count":1},{"code":{"coding":[{"system":"http://terminology.hl7.org/CodeSystem/measure-population","code":"denominator","display":"Denominator"}]},"count":1},{"code":{"coding":[{"system":"http://terminology.hl7.org/CodeSystem/measure-population","code":"denominator-exclusion","display":"Denominator Exclusion"}]},"count":0},{"code":{"coding":[{"system":"http://terminology.hl7.org/CodeSystem/measure-population","code":"numerator","display":"Numerator"}]},"count":0},{"code":{"coding":[{"system":"http://terminology.hl7.org/CodeSystem/measure-population","code":"denominator-exception","display":"Denominator Exception"}]},"count":0}]}]},"request":{"method":"PUT","url":"MeasureReport/dcd6072e-b787-4939-bb36-04f123a9be0f"}}]}