{"resourceType":"Bundle","id":"tests-93e2d9e6-00b4-4dfc-a404-f0bd5e73fa7b-bundle","type":"transaction","entry":[{"fullUrl":"https://madie.cms.gov/Patient/ab65e101-4839-453d-8e08-cdc20f6e183d","resource":{"resourceType":"Patient","id":"ab65e101-4839-453d-8e08-cdc20f6e183d","meta":{"profile":["http://hl7.org/fhir/us/qicore/StructureDefinition/qicore-patient"]},"text":{"status":"generated","div":"<div xmlns=\"http://www.w3.org/1999/xhtml\"><div class=\"hapiHeaderText\">CMOdurEnc_NoEDNoObsBFEncDayOf <b>DENEXPASS </b></div><table class=\"hapiPropertyTable\"><tbody><tr><td>Identifier</td><td>9aa695fb8ef01380aee71e782330c899</td></tr><tr><td>Date of birth</td><td><span>18 September 1985</span></td></tr></tbody></table></div>"},"extension":[{"url":"http://hl7.org/fhir/us/core/StructureDefinition/us-core-race","extension":[{"url":"ombCategory","valueCoding":{"system":"urn:oid:2.16.840.1.113883.6.238","code":"1002-5","display":"American Indian or Alaska Native","userSelected":true}},{"url":"text","valueString":"American Indian or Alaska Native"}]},{"url":"http://hl7.org/fhir/us/core/StructureDefinition/us-core-ethnicity","extension":[{"url":"ombCategory","valueCoding":{"system":"urn:oid:2.16.840.1.113883.6.238","code":"2135-2","display":"Hispanic or Latino","userSelected":true}},{"url":"text","valueString":"Hispanic or Latino"}]}],"identifier":[{"type":{"coding":[{"system":"http://terminology.hl7.org/CodeSystem/v2-0203","code":"MR"}]},"system":"https://bonnie-fhir.healthit.gov/","value":"633c9d030968f8012250fc89"}],"active":true,"name":[{"use":"usual","family":"DENEXPass","given":["CMOdurEnc_NoEDNoObsBFEncDayOf"]}],"gender":"female","birthDate":"1985-09-18"},"request":{"method":"PUT","url":"Patient/ab65e101-4839-453d-8e08-cdc20f6e183d"}},{"fullUrl":"https://madie.cms.gov/Condition/f07e9ed7-5ee5-4aca-a81d-15588d22b428","resource":{"resourceType":"Condition","id":"f07e9ed7-5ee5-4aca-a81d-15588d22b428","meta":{"profile":["http://hl7.org/fhir/us/qicore/StructureDefinition/qicore-condition"]},"clinicalStatus":{"coding":[{"system":"http://terminology.hl7.org/CodeSystem/condition-clinical","code":"inactive"}]},"verificationStatus":{"coding":[{"system":"http://terminology.hl7.org/CodeSystem/condition-ver-status","code":"confirmed"}]},"category":[{"coding":[{"system":"http://terminology.hl7.org/CodeSystem/condition-category","code":"encounter-diagnosis","display":"Encounter Diagnosis"}]}],"code":{"coding":[{"system":"http://hl7.org/fhir/sid/icd-10-cm","code":"I48.20"},{"system":"http://hl7.org/fhir/sid/icd-10-cm","code":"I48.0"},{"system":"http://snomed.info/sct","code":"5370000"}]},"subject":{"reference":"Patient/ab65e101-4839-453d-8e08-cdc20f6e183d"},"onsetDateTime":"2025-10-01T09:00:00.000Z","abatementDateTime":"2025-10-12T00:15:00.000Z"},"request":{"method":"PUT","url":"Condition/f07e9ed7-5ee5-4aca-a81d-15588d22b428"}},{"fullUrl":"https://madie.cms.gov/Encounter/03dddef8-a73c-4d98-b407-66dcfd0b3e74","resource":{"resourceType":"Encounter","id":"03dddef8-a73c-4d98-b407-66dcfd0b3e74","meta":{"profile":["http://hl7.org/fhir/us/qicore/StructureDefinition/qicore-encounter"]},"status":"finished","class":{"system":"http://terminology.hl7.org/CodeSystem/v3-ActCode","code":"IMP","display":"inpatient encounter"},"type":[{"coding":[{"system":"http://snomed.info/sct","code":"32485007"}]}],"subject":{"reference":"Patient/ab65e101-4839-453d-8e08-cdc20f6e183d"},"period":{"start":"2025-10-01T09:00:00.000Z","end":"2025-10-12T00:15:00.000Z"},"length":{"value":11,"unit":"days"},"diagnosis":[{"condition":{"reference":"Condition/c4e3c4d1-9a6b-4dc2-b81e-dccc69e3f026"},"use":{"coding":[{"system":"http://terminology.hl7.org/CodeSystem/diagnosis-role","code":"billing","display":"Billing"}]},"rank":1}]},"request":{"method":"PUT","url":"Encounter/03dddef8-a73c-4d98-b407-66dcfd0b3e74"}},{"fullUrl":"https://madie.cms.gov/ServiceRequest/a1d343dd-fcfc-4ff1-945c-edebbd8a9ee4","resource":{"resourceType":"ServiceRequest","id":"a1d343dd-fcfc-4ff1-945c-edebbd8a9ee4","meta":{"profile":["http://hl7.org/fhir/us/qicore/StructureDefinition/qicore-servicerequest"]},"status":"active","intent":"order","code":{"coding":[{"system":"http://snomed.info/sct","code":"133918004"}]},"subject":{"reference":"Patient/ab65e101-4839-453d-8e08-cdc20f6e183d"},"authoredOn":"2025-10-01T09:01:00.000+00:00"},"request":{"method":"PUT","url":"ServiceRequest/a1d343dd-fcfc-4ff1-945c-edebbd8a9ee4"}},{"fullUrl":"https://madie.cms.gov/Coverage/8b502cb9-085c-4fbf-9e44-fafdbee454c2","resource":{"resourceType":"Coverage","id":"8b502cb9-085c-4fbf-9e44-fafdbee454c2","status":"active","beneficiary":{"reference":"Patient/ab65e101-4839-453d-8e08-cdc20f6e183d"},"period":{"start":"1985-09-18T08:00:00.000Z"},"payor":[{"reference":"Organization/26111c91-b0e2-476c-a20b-e3f39799f8f5"}]},"request":{"method":"PUT","url":"Coverage/8b502cb9-085c-4fbf-9e44-fafdbee454c2"}},{"fullUrl":"https://madie.cms.gov/Condition/c4e3c4d1-9a6b-4dc2-b81e-dccc69e3f026","resource":{"resourceType":"Condition","id":"c4e3c4d1-9a6b-4dc2-b81e-dccc69e3f026","meta":{"profile":["http://hl7.org/fhir/us/qicore/StructureDefinition/qicore-condition"]},"clinicalStatus":{"coding":[{"system":"http://terminology.hl7.org/CodeSystem/condition-clinical","code":"active"}]},"verificationStatus":{"coding":[{"system":"http://terminology.hl7.org/CodeSystem/condition-ver-status","code":"confirmed"}]},"category":[{"coding":[{"system":"http://terminology.hl7.org/CodeSystem/condition-category","code":"encounter-diagnosis","display":"Encounter Diagnosis"}]}],"code":{"coding":[{"system":"http://snomed.info/sct","version":"2021-09","code":"111297002","display":"Nonparalytic stroke (disorder)","userSelected":true}]},"subject":{"reference":"Patient/ab65e101-4839-453d-8e08-cdc20f6e183d"},"recordedDate":"2025-10-13T08:00:00.000+00:00"},"request":{"method":"PUT","url":"Condition/c4e3c4d1-9a6b-4dc2-b81e-dccc69e3f026"}},{"fullUrl":"https://madie.cms.gov/Organization/db76548b-8916-4895-bae5-86ee1a4799aa","resource":{"resourceType":"Organization","id":"26111c91-b0e2-476c-a20b-e3f39799f8f5","meta":{"profile":["http://hl7.org/fhir/us/qicore/StructureDefinition/qicore-organization"]},"identifier":[{"use":"temp","system":"urn:oid:2.16.840.1.113883.4.4","value":"21-3259825"}],"active":true,"type":[{"coding":[{"system":"http://terminology.hl7.org/CodeSystem/organization-type","code":"pay","display":"Payer"}]}],"name":"Blue Cross Blue Shield of Texas","telecom":[{"system":"phone","value":"(+1) 972-766-6900"}],"address":[{"use":"billing","type":"postal","line":["P.O. Box 660044"],"city":"Dallas","state":"TX","postalCode":"75266-0044","country":"USA"}]},"request":{"method":"PUT","url":"Organization/26111c91-b0e2-476c-a20b-e3f39799f8f5"}},{"fullUrl":"https://madie.cms.gov/Practitioner/4e28d2fa-f42b-4034-9b82-c59233fa9bd0","resource":{"resourceType":"Practitioner","id":"4e28d2fa-f42b-4034-9b82-c59233fa9bd0","identifier":[{"system":"http://hl7.org/fhir/sid/us-npi","value":"123456"}],"name":[{"family":"Evil","prefix":["Dr"]}]},"request":{"method":"PUT","url":"Practitioner/4e28d2fa-f42b-4034-9b82-c59233fa9bd0"}},{"fullUrl":"https://madie.cms.gov/MeasureReport/20e8b056-4cca-4a2b-8e6e-3f6ca59f06f7","resource":{"resourceType":"MeasureReport","id":"20e8b056-4cca-4a2b-8e6e-3f6ca59f06f7","meta":{"profile":["http://hl7.org/fhir/us/cqfmeasures/StructureDefinition/test-case-cqfm"]},"contained":[{"resourceType":"Parameters","id":"8f15b981-d145-43a7-a95b-c5745669394c-parameters","parameter":[{"name":"subject","valueString":"ab65e101-4839-453d-8e08-cdc20f6e183d"}]}],"extension":[{"url":"http://hl7.org/fhir/us/cqfmeasures/StructureDefinition/cqfm-inputParameters","valueReference":{"reference":"#8f15b981-d145-43a7-a95b-c5745669394c-parameters"}},{"url":"http://hl7.org/fhir/us/cqfmeasures/StructureDefinition/cqfm-testCaseDescription","valueMarkdown":"Patient receives CMO during inpatient encounter. No ED. No Obs. Testing day of operator with HospitalizationWithObservation function.\n"}],"modifierExtension":[{"url":"http://hl7.org/fhir/us/cqfmeasures/StructureDefinition/cqfm-isTestCase","valueBoolean":true}],"status":"complete","type":"individual","measure":"https://madie.cms.gov/Measure/AnticoagulationTherapyforAtrialFibrillationFlutterFHIR","period":{"start":"2025-01-01","end":"2025-12-31"},"group":[{"population":[{"code":{"coding":[{"system":"http://terminology.hl7.org/CodeSystem/measure-population","code":"initial-population","display":"Initial Population"}]},"count":1},{"code":{"coding":[{"system":"http://terminology.hl7.org/CodeSystem/measure-population","code":"denominator","display":"Denominator"}]},"count":1},{"code":{"coding":[{"system":"http://terminology.hl7.org/CodeSystem/measure-population","code":"denominator-exclusion","display":"Denominator Exclusion"}]},"count":1},{"code":{"coding":[{"system":"http://terminology.hl7.org/CodeSystem/measure-population","code":"numerator","display":"Numerator"}]},"count":0},{"code":{"coding":[{"system":"http://terminology.hl7.org/CodeSystem/measure-population","code":"denominator-exception","display":"Denominator Exception"}]},"count":0}]}]},"request":{"method":"PUT","url":"MeasureReport/20e8b056-4cca-4a2b-8e6e-3f6ca59f06f7"}}]}