{"resourceType":"Bundle","id":"tests-4151585a-f621-4de5-91df-4e4227e2165e-bundle","type":"transaction","entry":[{"fullUrl":"https://madie.cms.gov/Patient/66583e4c-0976-4725-bc24-937509422806","resource":{"resourceType":"Patient","id":"66583e4c-0976-4725-bc24-937509422806","meta":{"profile":["http://hl7.org/fhir/us/qicore/StructureDefinition/qicore-patient"]},"text":{"status":"generated","div":"<div xmlns=\"http://www.w3.org/1999/xhtml\"><div class=\"hapiHeaderText\">CustomCode <b>NUMERFAIL </b></div><table class=\"hapiPropertyTable\"><tbody><tr><td>Identifier</td><td>067c4f753ca8fc3fba90168757c33218</td></tr><tr><td>Date of birth</td><td><span>21 August 1994</span></td></tr></tbody></table></div>"},"extension":[{"url":"http://hl7.org/fhir/us/core/StructureDefinition/us-core-race","extension":[{"url":"ombCategory","valueCoding":{"system":"urn:oid:2.16.840.1.113883.6.238","code":"1002-5","display":"American Indian or Alaska Native","userSelected":true}},{"url":"text","valueString":"American Indian or Alaska Native"}]},{"url":"http://hl7.org/fhir/us/core/StructureDefinition/us-core-ethnicity","extension":[{"url":"ombCategory","valueCoding":{"system":"urn:oid:2.16.840.1.113883.6.238","code":"2135-2","display":"Hispanic or Latino","userSelected":true}},{"url":"text","valueString":"Hispanic or Latino"}]}],"identifier":[{"type":{"coding":[{"system":"http://terminology.hl7.org/CodeSystem/v2-0203","code":"MR"}]},"system":"https://bonnie-fhir.healthit.gov/","value":"633c9d030968f8012250fc91"}],"active":true,"name":[{"use":"usual","family":"NUMERFail","given":["CustomCode"]}],"gender":"male","birthDate":"1994-08-21"},"request":{"method":"PUT","url":"Patient/66583e4c-0976-4725-bc24-937509422806"}},{"fullUrl":"https://madie.cms.gov/Encounter/7f51bdbd-2e0f-47d7-b400-256444820c15","resource":{"resourceType":"Encounter","id":"7f51bdbd-2e0f-47d7-b400-256444820c15","meta":{"profile":["http://hl7.org/fhir/us/qicore/StructureDefinition/qicore-encounter"]},"status":"finished","class":{"system":"http://terminology.hl7.org/CodeSystem/v3-ActCode","code":"IMP","display":"inpatient encounter"},"type":[{"coding":[{"system":"http://snomed.info/sct","code":"32485007"}]}],"subject":{"reference":"Patient/66583e4c-0976-4725-bc24-937509422806"},"period":{"start":"2025-10-10T09:30:00.000Z","end":"2025-10-12T10:30:00.000Z"},"length":{"value":2,"unit":"days"},"diagnosis":[{"condition":{"reference":"Condition/f3769980-07cb-488e-b39d-a8ed8363f40f"},"use":{"coding":[{"system":"http://terminology.hl7.org/CodeSystem/diagnosis-role","code":"billing","display":"Billing"}]},"rank":1}]},"request":{"method":"PUT","url":"Encounter/7f51bdbd-2e0f-47d7-b400-256444820c15"}},{"fullUrl":"https://madie.cms.gov/MedicationRequest/4a2bf51b-1338-4313-8912-b724d324a09d","resource":{"resourceType":"MedicationRequest","id":"4a2bf51b-1338-4313-8912-b724d324a09d","meta":{"profile":["http://hl7.org/fhir/us/qicore/StructureDefinition/qicore-medicationrequest"]},"status":"active","intent":"order","medicationCodeableConcept":{"coding":[{"system":"http://www.nlm.nih.gov/research/umls/rxnorm","code":"1006608"}]},"subject":{"reference":"Patient/66583e4c-0976-4725-bc24-937509422806"},"authoredOn":"2025-10-10T09:30:00.000+00:00","requester":{"reference":"Practitioner/example"}},"request":{"method":"PUT","url":"MedicationRequest/4a2bf51b-1338-4313-8912-b724d324a09d"}},{"fullUrl":"https://madie.cms.gov/Coverage/0ee25adc-60ff-44c9-86d4-811cbc7cad72","resource":{"resourceType":"Coverage","id":"0ee25adc-60ff-44c9-86d4-811cbc7cad72","status":"active","beneficiary":{"reference":"Patient/66583e4c-0976-4725-bc24-937509422806"},"period":{"start":"1994-08-21T08:00:00.000Z"},"payor":[{"reference":"Organization/26111c91-b0e2-476c-a20b-e3f39799f8f5"}]},"request":{"method":"PUT","url":"Coverage/0ee25adc-60ff-44c9-86d4-811cbc7cad72"}},{"fullUrl":"https://madie.cms.gov/Procedure/a0f3d507-8fe2-48d6-9fb8-0d21dc66029a","resource":{"resourceType":"Procedure","id":"a0f3d507-8fe2-48d6-9fb8-0d21dc66029a","meta":{"profile":["http://hl7.org/fhir/us/qicore/StructureDefinition/qicore-procedure"]},"extension":[{"url":"http://hl7.org/fhir/us/qicore/StructureDefinition/qicore-recorded","valueDateTime":"2025-11-19T09:35:00-04:00"}],"status":"completed","code":{"coding":[{"system":"http://www.cms.gov/Medicare/Coding/ICD10","code":"02560ZZ"},{"system":"http://snomed.info/sct","code":"175095005"}]},"subject":{"reference":"Patient/66583e4c-0976-4725-bc24-937509422806"},"performedPeriod":{"start":"2025-10-10T08:30:00.000Z"}},"request":{"method":"PUT","url":"Procedure/a0f3d507-8fe2-48d6-9fb8-0d21dc66029a"}},{"fullUrl":"https://madie.cms.gov/Condition/f3769980-07cb-488e-b39d-a8ed8363f40f","resource":{"resourceType":"Condition","id":"f3769980-07cb-488e-b39d-a8ed8363f40f","meta":{"profile":["http://hl7.org/fhir/us/qicore/StructureDefinition/qicore-condition"]},"clinicalStatus":{"coding":[{"system":"http://terminology.hl7.org/CodeSystem/condition-clinical","code":"active"}]},"verificationStatus":{"coding":[{"system":"http://terminology.hl7.org/CodeSystem/condition-ver-status","code":"confirmed"}]},"category":[{"coding":[{"system":"http://terminology.hl7.org/CodeSystem/condition-category","code":"encounter-diagnosis","display":"Encounter Diagnosis"}]}],"code":{"coding":[{"system":"http://snomed.info/sct","version":"2021-09","code":"111297002","display":"Nonparalytic stroke (disorder)","userSelected":true}]},"subject":{"reference":"Patient/66583e4c-0976-4725-bc24-937509422806"},"recordedDate":"2025-10-13T08:00:00.000+00:00"},"request":{"method":"PUT","url":"Condition/f3769980-07cb-488e-b39d-a8ed8363f40f"}},{"fullUrl":"https://madie.cms.gov/Organization/d861f7a9-9934-4e90-875f-312869ced854","resource":{"resourceType":"Organization","id":"26111c91-b0e2-476c-a20b-e3f39799f8f5","meta":{"profile":["http://hl7.org/fhir/us/qicore/StructureDefinition/qicore-organization"]},"identifier":[{"use":"temp","system":"urn:oid:2.16.840.1.113883.4.4","value":"21-3259825"}],"active":true,"type":[{"coding":[{"system":"http://terminology.hl7.org/CodeSystem/organization-type","code":"pay","display":"Payer"}]}],"name":"Blue Cross Blue Shield of Texas","telecom":[{"system":"phone","value":"(+1) 972-766-6900"}],"address":[{"use":"billing","type":"postal","line":["P.O. Box 660044"],"city":"Dallas","state":"TX","postalCode":"75266-0044","country":"USA"}]},"request":{"method":"PUT","url":"Organization/26111c91-b0e2-476c-a20b-e3f39799f8f5"}},{"fullUrl":"https://madie.cms.gov/Practitioner/c1815483-c58b-4ac4-9add-ef283fd727e3","resource":{"resourceType":"Practitioner","id":"c1815483-c58b-4ac4-9add-ef283fd727e3","identifier":[{"system":"http://hl7.org/fhir/sid/us-npi","value":"123456"}],"name":[{"family":"Evil","prefix":["Dr"]}]},"request":{"method":"PUT","url":"Practitioner/c1815483-c58b-4ac4-9add-ef283fd727e3"}},{"fullUrl":"https://madie.cms.gov/MeasureReport/6f246a18-5080-4dc7-b0e2-6d4652a1459a","resource":{"resourceType":"MeasureReport","id":"6f246a18-5080-4dc7-b0e2-6d4652a1459a","meta":{"profile":["http://hl7.org/fhir/us/cqfmeasures/StructureDefinition/test-case-cqfm"]},"contained":[{"resourceType":"Parameters","id":"bf10a701-9066-4b2c-96fb-70cc832e67ab-parameters","parameter":[{"name":"subject","valueString":"66583e4c-0976-4725-bc24-937509422806"}]}],"extension":[{"url":"http://hl7.org/fhir/us/cqfmeasures/StructureDefinition/cqfm-inputParameters","valueReference":{"reference":"#bf10a701-9066-4b2c-96fb-70cc832e67ab-parameters"}},{"url":"http://hl7.org/fhir/us/cqfmeasures/StructureDefinition/cqfm-testCaseDescription","valueMarkdown":"Patient is 18 with Non-Elective Inpatient Encounter (LOS 120 days) with principal diagnosis of ischemic stroke ends during MP received medication not found in anticoagulant value set during IP encounter\n"}],"modifierExtension":[{"url":"http://hl7.org/fhir/us/cqfmeasures/StructureDefinition/cqfm-isTestCase","valueBoolean":true}],"status":"complete","type":"individual","measure":"https://madie.cms.gov/Measure/AnticoagulationTherapyforAtrialFibrillationFlutterFHIR","period":{"start":"2025-01-01","end":"2025-12-31"},"group":[{"population":[{"code":{"coding":[{"system":"http://terminology.hl7.org/CodeSystem/measure-population","code":"initial-population","display":"Initial Population"}]},"count":1},{"code":{"coding":[{"system":"http://terminology.hl7.org/CodeSystem/measure-population","code":"denominator","display":"Denominator"}]},"count":1},{"code":{"coding":[{"system":"http://terminology.hl7.org/CodeSystem/measure-population","code":"denominator-exclusion","display":"Denominator Exclusion"}]},"count":0},{"code":{"coding":[{"system":"http://terminology.hl7.org/CodeSystem/measure-population","code":"numerator","display":"Numerator"}]},"count":0},{"code":{"coding":[{"system":"http://terminology.hl7.org/CodeSystem/measure-population","code":"denominator-exception","display":"Denominator Exception"}]},"count":0}]}]},"request":{"method":"PUT","url":"MeasureReport/6f246a18-5080-4dc7-b0e2-6d4652a1459a"}}]}