{"resourceType":"Bundle","id":"tests-20a54dae-abeb-4f61-b567-057b6ebc1c7e-bundle","type":"transaction","entry":[{"fullUrl":"https://madie.cms.gov/Patient/4cebf2eb-8d2a-496b-bd4c-c3f268fb5575","resource":{"resourceType":"Patient","id":"4cebf2eb-8d2a-496b-bd4c-c3f268fb5575","meta":{"profile":["http://hl7.org/fhir/us/qicore/StructureDefinition/qicore-patient"]},"text":{"status":"generated","div":"<div xmlns=\"http://www.w3.org/1999/xhtml\"><div class=\"hapiHeaderText\">EncDx=IschStk_EncDx=Afib/flutter <b>DENOMFAIL </b></div><table class=\"hapiPropertyTable\"><tbody><tr><td>Identifier</td><td>fd4a058d58e573f12079d828d09dad64</td></tr><tr><td>Date of birth</td><td><span>01 December 1960</span></td></tr></tbody></table></div>"},"extension":[{"url":"http://hl7.org/fhir/us/core/StructureDefinition/us-core-race","extension":[{"url":"ombCategory","valueCoding":{"system":"urn:oid:2.16.840.1.113883.6.238","code":"1002-5","display":"American Indian or Alaska Native","userSelected":true}},{"url":"text","valueString":"American Indian or Alaska Native"}]},{"url":"http://hl7.org/fhir/us/core/StructureDefinition/us-core-ethnicity","extension":[{"url":"ombCategory","valueCoding":{"system":"urn:oid:2.16.840.1.113883.6.238","code":"2135-2","display":"Hispanic or Latino","userSelected":true}},{"url":"text","valueString":"Hispanic or Latino"}]}],"identifier":[{"type":{"coding":[{"system":"http://terminology.hl7.org/CodeSystem/v2-0203","code":"MR"}]},"system":"https://bonnie-fhir.healthit.gov/","value":"633c9d030968f8012250fc94"}],"active":true,"name":[{"use":"usual","family":"IPPFail","given":["EncDx=IschStk_EncDx=Afib/flutter"]}],"gender":"male","birthDate":"1960-12-01"},"request":{"method":"PUT","url":"Patient/4cebf2eb-8d2a-496b-bd4c-c3f268fb5575"}},{"fullUrl":"https://madie.cms.gov/Encounter/d449c077-e736-4613-a776-dbff592a39b9","resource":{"resourceType":"Encounter","id":"d449c077-e736-4613-a776-dbff592a39b9","meta":{"profile":["http://hl7.org/fhir/us/qicore/StructureDefinition/qicore-encounter"]},"status":"finished","class":{"system":"http://terminology.hl7.org/CodeSystem/v3-ActCode","code":"IMP","display":"inpatient encounter"},"type":[{"coding":[{"system":"http://snomed.info/sct","code":"183452005"}]}],"subject":{"reference":"Patient/4cebf2eb-8d2a-496b-bd4c-c3f268fb5575"},"period":{"start":"2025-02-08T08:00:00.000Z","end":"2025-02-10T08:15:00.000Z"},"length":{"value":2,"unit":"days"},"diagnosis":[{"condition":{"reference":"Condition/4e49931e-0901-469e-a0bc-36f2b5655307"},"use":{"coding":[{"system":"http://terminology.hl7.org/CodeSystem/diagnosis-role","code":"billing","display":"Billing"}]}},{"condition":{"reference":"Condition/3b68a7a3-7258-4da0-be5c-12743b6ee531"},"use":{"coding":[{"system":"http://terminology.hl7.org/CodeSystem/diagnosis-role","code":"billing","display":"Billing"}]}}]},"request":{"method":"PUT","url":"Encounter/d449c077-e736-4613-a776-dbff592a39b9"}},{"fullUrl":"https://madie.cms.gov/Coverage/4f40f438-06d4-44cb-9be0-ecec86f1aa81","resource":{"resourceType":"Coverage","id":"4f40f438-06d4-44cb-9be0-ecec86f1aa81","status":"active","beneficiary":{"reference":"Patient/4cebf2eb-8d2a-496b-bd4c-c3f268fb5575"},"period":{"start":"1960-12-01T08:00:00.000Z"},"payor":[{"reference":"Organization/26111c91-b0e2-476c-a20b-e3f39799f8f5"}]},"request":{"method":"PUT","url":"Coverage/4f40f438-06d4-44cb-9be0-ecec86f1aa81"}},{"fullUrl":"https://madie.cms.gov/Condition/3b68a7a3-7258-4da0-be5c-12743b6ee531","resource":{"resourceType":"Condition","id":"3b68a7a3-7258-4da0-be5c-12743b6ee531","meta":{"profile":["http://hl7.org/fhir/us/qicore/StructureDefinition/qicore-condition"]},"clinicalStatus":{"coding":[{"system":"http://terminology.hl7.org/CodeSystem/condition-clinical","code":"active"}]},"verificationStatus":{"coding":[{"system":"http://terminology.hl7.org/CodeSystem/condition-ver-status","code":"confirmed"}]},"category":[{"coding":[{"system":"http://terminology.hl7.org/CodeSystem/condition-category","code":"encounter-diagnosis","display":"Encounter Diagnosis"}]}],"code":{"coding":[{"system":"http://snomed.info/sct","version":"2021-09","code":"111297002","display":"Nonparalytic stroke (disorder)","userSelected":true}]},"subject":{"reference":"Patient/4cebf2eb-8d2a-496b-bd4c-c3f268fb5575"},"recordedDate":"2025-10-13T08:00:00.000+00:00"},"request":{"method":"PUT","url":"Condition/3b68a7a3-7258-4da0-be5c-12743b6ee531"}},{"fullUrl":"https://madie.cms.gov/Condition/4e49931e-0901-469e-a0bc-36f2b5655307","resource":{"resourceType":"Condition","id":"4e49931e-0901-469e-a0bc-36f2b5655307","meta":{"profile":["http://hl7.org/fhir/us/qicore/StructureDefinition/qicore-condition"]},"clinicalStatus":{"coding":[{"system":"http://terminology.hl7.org/CodeSystem/condition-clinical","code":"active"}]},"verificationStatus":{"coding":[{"system":"http://terminology.hl7.org/CodeSystem/condition-ver-status","code":"confirmed"}]},"category":[{"coding":[{"system":"http://terminology.hl7.org/CodeSystem/condition-category","code":"encounter-diagnosis","display":"Encounter Diagnosis"}]}],"code":{"coding":[{"system":"http://snomed.info/sct","code":"120041000119109","display":"Atrial Fibrillation/Flutter"}]},"subject":{"reference":"Patient/4cebf2eb-8d2a-496b-bd4c-c3f268fb5575"},"recordedDate":"2025-10-13T08:00:00.000+00:00"},"request":{"method":"PUT","url":"Condition/4e49931e-0901-469e-a0bc-36f2b5655307"}},{"fullUrl":"https://madie.cms.gov/Organization/78452b86-2fc3-4b75-8d19-dc3d0cea3b8d","resource":{"resourceType":"Organization","id":"26111c91-b0e2-476c-a20b-e3f39799f8f5","meta":{"profile":["http://hl7.org/fhir/us/qicore/StructureDefinition/qicore-organization"]},"identifier":[{"use":"temp","system":"urn:oid:2.16.840.1.113883.4.4","value":"21-3259825"}],"active":true,"type":[{"coding":[{"system":"http://terminology.hl7.org/CodeSystem/organization-type","code":"pay","display":"Payer"}]}],"name":"Blue Cross Blue Shield of Texas","telecom":[{"system":"phone","value":"(+1) 972-766-6900"}],"address":[{"use":"billing","type":"postal","line":["P.O. Box 660044"],"city":"Dallas","state":"TX","postalCode":"75266-0044","country":"USA"}]},"request":{"method":"PUT","url":"Organization/26111c91-b0e2-476c-a20b-e3f39799f8f5"}},{"fullUrl":"https://madie.cms.gov/Practitioner/3d8aacb4-102d-4baa-82a1-8f3b2883837e","resource":{"resourceType":"Practitioner","id":"3d8aacb4-102d-4baa-82a1-8f3b2883837e","identifier":[{"system":"http://hl7.org/fhir/sid/us-npi","value":"123456"}],"name":[{"family":"Evil","prefix":["Dr"]}]},"request":{"method":"PUT","url":"Practitioner/3d8aacb4-102d-4baa-82a1-8f3b2883837e"}},{"fullUrl":"https://madie.cms.gov/MeasureReport/7d4067a6-9b8a-4cfa-b95c-c8fcf6358f1c","resource":{"resourceType":"MeasureReport","id":"7d4067a6-9b8a-4cfa-b95c-c8fcf6358f1c","meta":{"profile":["http://hl7.org/fhir/us/cqfmeasures/StructureDefinition/test-case-cqfm"]},"contained":[{"resourceType":"Parameters","id":"6b9efaec-f302-488f-8da0-dd7b69b24ebf-parameters","parameter":[{"name":"subject","valueString":"4cebf2eb-8d2a-496b-bd4c-c3f268fb5575"}]}],"extension":[{"url":"http://hl7.org/fhir/us/cqfmeasures/StructureDefinition/cqfm-inputParameters","valueReference":{"reference":"#6b9efaec-f302-488f-8da0-dd7b69b24ebf-parameters"}},{"url":"http://hl7.org/fhir/us/cqfmeasures/StructureDefinition/cqfm-testCaseDescription","valueMarkdown":"\"Encounter Dx = Ischemic stroke,\nEncounter Dx = Atrial fib/flutter.  testing encounter diagnosis as an attribute \"\n"}],"modifierExtension":[{"url":"http://hl7.org/fhir/us/cqfmeasures/StructureDefinition/cqfm-isTestCase","valueBoolean":true}],"status":"complete","type":"individual","measure":"https://madie.cms.gov/Measure/AnticoagulationTherapyforAtrialFibrillationFlutterFHIR","period":{"start":"2025-01-01","end":"2025-12-31"},"group":[{"population":[{"code":{"coding":[{"system":"http://terminology.hl7.org/CodeSystem/measure-population","code":"initial-population","display":"Initial Population"}]},"count":0},{"code":{"coding":[{"system":"http://terminology.hl7.org/CodeSystem/measure-population","code":"denominator","display":"Denominator"}]},"count":0},{"code":{"coding":[{"system":"http://terminology.hl7.org/CodeSystem/measure-population","code":"denominator-exclusion","display":"Denominator Exclusion"}]},"count":0},{"code":{"coding":[{"system":"http://terminology.hl7.org/CodeSystem/measure-population","code":"numerator","display":"Numerator"}]},"count":0},{"code":{"coding":[{"system":"http://terminology.hl7.org/CodeSystem/measure-population","code":"denominator-exception","display":"Denominator Exception"}]},"count":0}]}]},"request":{"method":"PUT","url":"MeasureReport/7d4067a6-9b8a-4cfa-b95c-c8fcf6358f1c"}}]}