{"resourceType":"Bundle","id":"tests-d5991213-5237-4eb3-a6e9-61404f836d3b-bundle","type":"transaction","entry":[{"fullUrl":"https://madie.cms.gov/Patient/ba9339bf-21bc-42f9-b673-2e15dbdc1439","resource":{"resourceType":"Patient","id":"ba9339bf-21bc-42f9-b673-2e15dbdc1439","meta":{"profile":["http://hl7.org/fhir/us/qicore/StructureDefinition/qicore-patient"]},"text":{"status":"generated","div":"<div xmlns=\"http://www.w3.org/1999/xhtml\"><div class=\"hapiHeaderText\">EncPrinDx=Afib/Flutter Rank2 <b>IPPFAIL </b></div><table class=\"hapiPropertyTable\"><tbody><tr><td>Identifier</td><td>2038d8a42effee0cae92f8c6fde4ebe8</td></tr><tr><td>Date of birth</td><td><span>01 December 1960</span></td></tr></tbody></table></div>"},"extension":[{"url":"http://hl7.org/fhir/us/core/StructureDefinition/us-core-race","extension":[{"url":"ombCategory","valueCoding":{"system":"urn:oid:2.16.840.1.113883.6.238","code":"1002-5","display":"American Indian or Alaska Native","userSelected":true}},{"url":"text","valueString":"American Indian or Alaska Native"}]},{"url":"http://hl7.org/fhir/us/core/StructureDefinition/us-core-ethnicity","extension":[{"url":"ombCategory","valueCoding":{"system":"urn:oid:2.16.840.1.113883.6.238","code":"2135-2","display":"Hispanic or Latino","userSelected":true}},{"url":"text","valueString":"Hispanic or Latino"}]}],"identifier":[{"type":{"coding":[{"system":"http://terminology.hl7.org/CodeSystem/v2-0203","code":"MR"}]},"system":"https://bonnie-fhir.healthit.gov/","value":"633c9d040968f8012250fcab"}],"active":true,"name":[{"use":"usual","family":"IPPFail ","given":["EncPrinDx=Afib/Flutter Rank2"]}],"gender":"male","birthDate":"1960-12-01"},"request":{"method":"PUT","url":"Patient/ba9339bf-21bc-42f9-b673-2e15dbdc1439"}},{"fullUrl":"https://madie.cms.gov/Encounter/b00ba056-efe2-4335-9dcc-3b3d75bc380d","resource":{"resourceType":"Encounter","id":"b00ba056-efe2-4335-9dcc-3b3d75bc380d","meta":{"profile":["http://hl7.org/fhir/us/qicore/StructureDefinition/qicore-encounter"]},"status":"finished","class":{"system":"http://terminology.hl7.org/CodeSystem/v3-ActCode","code":"IMP","display":"inpatient encounter"},"type":[{"coding":[{"system":"http://snomed.info/sct","code":"32485007"}]}],"subject":{"reference":"Patient/ba9339bf-21bc-42f9-b673-2e15dbdc1439"},"period":{"start":"2025-02-08T08:00:00.000Z","end":"2025-02-10T08:15:00.000Z"},"length":{"value":2.0,"unit":"days"},"diagnosis":[{"condition":{"reference":"Condition/6da33a25-f610-4b42-b610-35d750510970"},"rank":2}]},"request":{"method":"PUT","url":"Encounter/b00ba056-efe2-4335-9dcc-3b3d75bc380d"}},{"fullUrl":"https://madie.cms.gov/Coverage/e91b0c27-71bf-45c7-b342-c27e5e9b3fd2","resource":{"resourceType":"Coverage","id":"e91b0c27-71bf-45c7-b342-c27e5e9b3fd2","status":"active","beneficiary":{"reference":"Patient/ba9339bf-21bc-42f9-b673-2e15dbdc1439"},"period":{"start":"1960-12-01T01:00:00.000Z"},"payor":[{"reference":"Organization/26111c91-b0e2-476c-a20b-e3f39799f8f5"}]},"request":{"method":"PUT","url":"Coverage/e91b0c27-71bf-45c7-b342-c27e5e9b3fd2"}},{"fullUrl":"https://madie.cms.gov/Condition/6da33a25-f610-4b42-b610-35d750510970","resource":{"resourceType":"Condition","id":"6da33a25-f610-4b42-b610-35d750510970","meta":{"profile":["http://hl7.org/fhir/us/qicore/StructureDefinition/qicore-condition"]},"clinicalStatus":{"coding":[{"system":"http://terminology.hl7.org/CodeSystem/condition-clinical","code":"active"}]},"verificationStatus":{"coding":[{"system":"http://terminology.hl7.org/CodeSystem/condition-ver-status","code":"confirmed"}]},"category":[{"coding":[{"system":"http://terminology.hl7.org/CodeSystem/condition-category","code":"encounter-diagnosis","display":"Encounter Diagnosis"}]}],"code":{"coding":[{"system":"http://snomed.info/sct","version":"2021-09","code":"120041000119109","display":"Atrial fibrillation with rapid ventricular response (disorder)","userSelected":true}]},"subject":{"reference":"Patient/ba9339bf-21bc-42f9-b673-2e15dbdc1439"},"recordedDate":"2025-10-13T08:00:00.000+00:00"},"request":{"method":"PUT","url":"Condition/6da33a25-f610-4b42-b610-35d750510970"}},{"fullUrl":"https://madie.cms.gov/Organization/4f0ff8ae-be74-453b-a365-02f75c532610","resource":{"resourceType":"Organization","id":"26111c91-b0e2-476c-a20b-e3f39799f8f5","meta":{"profile":["http://hl7.org/fhir/us/qicore/StructureDefinition/qicore-organization"]},"identifier":[{"use":"temp","system":"urn:oid:2.16.840.1.113883.4.4","value":"21-3259825"}],"active":true,"type":[{"coding":[{"system":"http://terminology.hl7.org/CodeSystem/organization-type","code":"pay","display":"Payer"}]}],"name":"Blue Cross Blue Shield of Texas","telecom":[{"system":"phone","value":"(+1) 972-766-6900"}],"address":[{"use":"billing","type":"postal","line":["P.O. Box 660044"],"city":"Dallas","state":"TX","postalCode":"75266-0044","country":"USA"}]},"request":{"method":"PUT","url":"Organization/26111c91-b0e2-476c-a20b-e3f39799f8f5"}},{"fullUrl":"https://madie.cms.gov/Practitioner/bae6f8b3-3e97-4243-b5ee-3cab1577cb16","resource":{"resourceType":"Practitioner","id":"bae6f8b3-3e97-4243-b5ee-3cab1577cb16","identifier":[{"system":"http://hl7.org/fhir/sid/us-npi","value":"123456"}],"name":[{"family":"Evil","prefix":["Dr"]}]},"request":{"method":"PUT","url":"Practitioner/bae6f8b3-3e97-4243-b5ee-3cab1577cb16"}},{"fullUrl":"https://madie.cms.gov/MeasureReport/c2695f8a-bcda-488c-a2bc-6176f4faa069","resource":{"resourceType":"MeasureReport","id":"c2695f8a-bcda-488c-a2bc-6176f4faa069","meta":{"profile":["http://hl7.org/fhir/us/cqfmeasures/StructureDefinition/test-case-cqfm"]},"contained":[{"resourceType":"Parameters","id":"4870d6ad-626f-445e-b1fb-33c03d068d15-parameters","parameter":[{"name":"subject","valueString":"ba9339bf-21bc-42f9-b673-2e15dbdc1439"}]}],"extension":[{"url":"http://hl7.org/fhir/us/cqfmeasures/StructureDefinition/cqfm-inputParameters","valueReference":{"reference":"#4870d6ad-626f-445e-b1fb-33c03d068d15-parameters"}},{"url":"http://hl7.org/fhir/us/cqfmeasures/StructureDefinition/cqfm-testCaseDescription","valueMarkdown":"Principal diagnosis not in value set\n"}],"modifierExtension":[{"url":"http://hl7.org/fhir/us/cqfmeasures/StructureDefinition/cqfm-isTestCase","valueBoolean":true}],"status":"complete","type":"individual","measure":"https://madie.cms.gov/Measure/AnticoagulationTherapyforAtrialFibrillationFlutterFHIR","period":{"start":"2025-01-01","end":"2025-12-31"},"group":[{"population":[{"code":{"coding":[{"system":"http://terminology.hl7.org/CodeSystem/measure-population","code":"initial-population","display":"Initial Population"}]},"count":0},{"code":{"coding":[{"system":"http://terminology.hl7.org/CodeSystem/measure-population","code":"denominator","display":"Denominator"}]},"count":0},{"code":{"coding":[{"system":"http://terminology.hl7.org/CodeSystem/measure-population","code":"denominator-exclusion","display":"Denominator Exclusion"}]},"count":0},{"code":{"coding":[{"system":"http://terminology.hl7.org/CodeSystem/measure-population","code":"numerator","display":"Numerator"}]},"count":0},{"code":{"coding":[{"system":"http://terminology.hl7.org/CodeSystem/measure-population","code":"denominator-exception","display":"Denominator Exception"}]},"count":0}]}]},"request":{"method":"PUT","url":"MeasureReport/c2695f8a-bcda-488c-a2bc-6176f4faa069"}}]}