{"resourceType":"Bundle","id":"tests-c5eb810c-2abd-41ac-9838-81ab77532845-bundle","type":"transaction","entry":[{"fullUrl":"https://madie.cms.gov/Patient/4905097f-65d4-4dd5-8e14-545498c0aaff","resource":{"resourceType":"Patient","id":"4905097f-65d4-4dd5-8e14-545498c0aaff","meta":{"profile":["http://hl7.org/fhir/us/qicore/StructureDefinition/qicore-patient"]},"text":{"status":"generated","div":"<div xmlns=\"http://www.w3.org/1999/xhtml\"><div class=\"hapiHeaderText\">Anticoag@DC_TestOccurance <b>NUMERPASS </b></div><table class=\"hapiPropertyTable\"><tbody><tr><td>Identifier</td><td>b33e5c40a8266630a8099906ba9c4a7fec43a1f608aad75439f44c686ae32b2a</td></tr><tr><td>Date of birth</td><td><span>23 May 1954</span></td></tr></tbody></table></div>"},"extension":[{"url":"http://hl7.org/fhir/us/core/StructureDefinition/us-core-race","extension":[{"url":"ombCategory","valueCoding":{"system":"urn:oid:2.16.840.1.113883.6.238","code":"1002-5","display":"American Indian or Alaska Native","userSelected":true}},{"url":"text","valueString":"American Indian or Alaska Native"}]},{"url":"http://hl7.org/fhir/us/core/StructureDefinition/us-core-ethnicity","extension":[{"url":"ombCategory","valueCoding":{"system":"urn:oid:2.16.840.1.113883.6.238","code":"2135-2","display":"Hispanic or Latino","userSelected":true}},{"url":"text","valueString":"Hispanic or Latino"}]}],"identifier":[{"type":{"coding":[{"system":"http://terminology.hl7.org/CodeSystem/v2-0203","code":"MR"}]},"system":"https://bonnie-fhir.healthit.gov/","value":"633c9d040968f8012250fcaa"}],"active":true,"name":[{"use":"usual","family":"NUMERPass","given":["Anticoag@DC_TestOccurance"]}],"gender":"female","birthDate":"1954-05-23"},"request":{"method":"PUT","url":"Patient/4905097f-65d4-4dd5-8e14-545498c0aaff"}},{"fullUrl":"https://madie.cms.gov/Encounter/f42a1c95-c0f1-4d5f-ad64-eed192305f4a","resource":{"resourceType":"Encounter","id":"f42a1c95-c0f1-4d5f-ad64-eed192305f4a","meta":{"profile":["http://hl7.org/fhir/us/qicore/StructureDefinition/qicore-encounter"]},"status":"finished","class":{"system":"http://terminology.hl7.org/CodeSystem/v3-ActCode","code":"IMP","display":"inpatient encounter"},"type":[{"coding":[{"system":"http://snomed.info/sct","code":"183452005"}]}],"subject":{"reference":"Patient/4905097f-65d4-4dd5-8e14-545498c0aaff"},"period":{"start":"2025-11-18T08:00:00.000Z","end":"2025-11-19T08:15:00.000Z"},"length":{"value":1,"unit":"days"}},"request":{"method":"PUT","url":"Encounter/f42a1c95-c0f1-4d5f-ad64-eed192305f4a"}},{"fullUrl":"https://madie.cms.gov/Encounter/c9c046b1-430b-4a67-b53e-cbcf80c2d832","resource":{"resourceType":"Encounter","id":"c9c046b1-430b-4a67-b53e-cbcf80c2d832","meta":{"profile":["http://hl7.org/fhir/us/qicore/StructureDefinition/qicore-encounter"]},"status":"finished","class":{"system":"http://terminology.hl7.org/CodeSystem/v3-ActCode","code":"IMP","display":"inpatient encounter"},"type":[{"coding":[{"system":"http://snomed.info/sct","code":"32485007"}]}],"subject":{"reference":"Patient/4905097f-65d4-4dd5-8e14-545498c0aaff"},"period":{"start":"2025-11-20T08:00:00.000Z","end":"2025-11-24T08:15:00.000Z"},"length":{"value":4,"unit":"days"},"diagnosis":[{"condition":{"reference":"Condition/c2612c82-6c8b-4e93-8934-c6b0d32962fc"},"use":{"coding":[{"system":"http://terminology.hl7.org/CodeSystem/diagnosis-role","code":"billing","display":"Billing"}]},"rank":1}]},"request":{"method":"PUT","url":"Encounter/c9c046b1-430b-4a67-b53e-cbcf80c2d832"}},{"fullUrl":"https://madie.cms.gov/MedicationRequest/76a4707e-c574-426f-986d-e13f76c93661","resource":{"resourceType":"MedicationRequest","id":"76a4707e-c574-426f-986d-e13f76c93661","meta":{"profile":["http://hl7.org/fhir/us/qicore/StructureDefinition/qicore-medicationrequest"]},"status":"active","intent":"order","category":[{"coding":[{"system":"http://terminology.hl7.org/CodeSystem/medicationrequest-category","code":"discharge","display":"Discharge","userSelected":true}]}],"medicationCodeableConcept":{"coding":[{"system":"http://www.nlm.nih.gov/research/umls/rxnorm","code":"308351"}]},"subject":{"reference":"Patient/4905097f-65d4-4dd5-8e14-545498c0aaff"},"authoredOn":"2025-11-24T08:00:00.000+00:00","requester":{"reference":"Practitioner/example"}},"request":{"method":"PUT","url":"MedicationRequest/76a4707e-c574-426f-986d-e13f76c93661"}},{"fullUrl":"https://madie.cms.gov/Coverage/df7fe85f-fd8e-4552-94ac-3c0e6459be42","resource":{"resourceType":"Coverage","id":"df7fe85f-fd8e-4552-94ac-3c0e6459be42","status":"active","beneficiary":{"reference":"Patient/4905097f-65d4-4dd5-8e14-545498c0aaff"},"period":{"start":"1954-05-23T08:00:00.000Z"},"payor":[{"reference":"Organization/26111c91-b0e2-476c-a20b-e3f39799f8f5"}]},"request":{"method":"PUT","url":"Coverage/df7fe85f-fd8e-4552-94ac-3c0e6459be42"}},{"fullUrl":"https://madie.cms.gov/Procedure/73c45b3f-1423-4d53-a88c-b4ad71f256fc","resource":{"resourceType":"Procedure","id":"73c45b3f-1423-4d53-a88c-b4ad71f256fc","meta":{"profile":["http://hl7.org/fhir/us/qicore/StructureDefinition/qicore-procedure"]},"extension":[{"url":"http://hl7.org/fhir/us/qicore/StructureDefinition/qicore-recorded","valueDateTime":"2025-11-19T09:35:00-04:00"}],"status":"completed","code":{"coding":[{"system":"http://www.cms.gov/Medicare/Coding/ICD10","code":"02560ZZ"},{"system":"http://snomed.info/sct","code":"175095005"}]},"subject":{"reference":"Patient/4905097f-65d4-4dd5-8e14-545498c0aaff"},"performedPeriod":{"start":"2025-11-20T06:00:00.000Z","end":"2025-11-20T07:15:00.000Z"}},"request":{"method":"PUT","url":"Procedure/73c45b3f-1423-4d53-a88c-b4ad71f256fc"}},{"fullUrl":"https://madie.cms.gov/Condition/c2612c82-6c8b-4e93-8934-c6b0d32962fc","resource":{"resourceType":"Condition","id":"c2612c82-6c8b-4e93-8934-c6b0d32962fc","meta":{"profile":["http://hl7.org/fhir/us/qicore/StructureDefinition/qicore-condition"]},"clinicalStatus":{"coding":[{"system":"http://terminology.hl7.org/CodeSystem/condition-clinical","code":"active"}]},"verificationStatus":{"coding":[{"system":"http://terminology.hl7.org/CodeSystem/condition-ver-status","code":"confirmed"}]},"category":[{"coding":[{"system":"http://terminology.hl7.org/CodeSystem/condition-category","code":"encounter-diagnosis","display":"Encounter Diagnosis"}]}],"code":{"coding":[{"system":"http://snomed.info/sct","version":"2021-09","code":"111297002","display":"Nonparalytic stroke (disorder)","userSelected":true}]},"subject":{"reference":"Patient/4905097f-65d4-4dd5-8e14-545498c0aaff"},"recordedDate":"2025-10-13T08:00:00.000+00:00"},"request":{"method":"PUT","url":"Condition/c2612c82-6c8b-4e93-8934-c6b0d32962fc"}},{"fullUrl":"https://madie.cms.gov/Organization/6da58a8d-e058-430e-bd4a-1009acda874e","resource":{"resourceType":"Organization","id":"26111c91-b0e2-476c-a20b-e3f39799f8f5","meta":{"profile":["http://hl7.org/fhir/us/qicore/StructureDefinition/qicore-organization"]},"identifier":[{"use":"temp","system":"urn:oid:2.16.840.1.113883.4.4","value":"21-3259825"}],"active":true,"type":[{"coding":[{"system":"http://terminology.hl7.org/CodeSystem/organization-type","code":"pay","display":"Payer"}]}],"name":"Blue Cross Blue Shield of Texas","telecom":[{"system":"phone","value":"(+1) 972-766-6900"}],"address":[{"use":"billing","type":"postal","line":["P.O. Box 660044"],"city":"Dallas","state":"TX","postalCode":"75266-0044","country":"USA"}]},"request":{"method":"PUT","url":"Organization/26111c91-b0e2-476c-a20b-e3f39799f8f5"}},{"fullUrl":"https://madie.cms.gov/Practitioner/4fe2a7bc-c4f6-4afa-933a-935ea7690c58","resource":{"resourceType":"Practitioner","id":"4fe2a7bc-c4f6-4afa-933a-935ea7690c58","identifier":[{"system":"http://hl7.org/fhir/sid/us-npi","value":"123456"}],"name":[{"family":"Evil","prefix":["Dr"]}]},"request":{"method":"PUT","url":"Practitioner/4fe2a7bc-c4f6-4afa-933a-935ea7690c58"}},{"fullUrl":"https://madie.cms.gov/MeasureReport/e3c3a1f7-8e95-4d71-aa1b-27c612f24d61","resource":{"resourceType":"MeasureReport","id":"e3c3a1f7-8e95-4d71-aa1b-27c612f24d61","meta":{"profile":["http://hl7.org/fhir/us/cqfmeasures/StructureDefinition/test-case-cqfm"]},"contained":[{"resourceType":"Parameters","id":"18cedb14-16ae-4125-b0bd-f2ced8322f7c-parameters","parameter":[{"name":"subject","valueString":"4905097f-65d4-4dd5-8e14-545498c0aaff"}]}],"extension":[{"url":"http://hl7.org/fhir/us/cqfmeasures/StructureDefinition/cqfm-inputParameters","valueReference":{"reference":"#18cedb14-16ae-4125-b0bd-f2ced8322f7c-parameters"}},{"url":"http://hl7.org/fhir/us/cqfmeasures/StructureDefinition/cqfm-testCaseDescription","valueMarkdown":"Pt. discharged on anticoagulant, starts during OccurA not OccurB\n"}],"modifierExtension":[{"url":"http://hl7.org/fhir/us/cqfmeasures/StructureDefinition/cqfm-isTestCase","valueBoolean":true}],"status":"complete","type":"individual","measure":"https://madie.cms.gov/Measure/AnticoagulationTherapyforAtrialFibrillationFlutterFHIR","period":{"start":"2025-01-01","end":"2025-12-31"},"group":[{"population":[{"code":{"coding":[{"system":"http://terminology.hl7.org/CodeSystem/measure-population","code":"initial-population","display":"Initial Population"}]},"count":1},{"code":{"coding":[{"system":"http://terminology.hl7.org/CodeSystem/measure-population","code":"denominator","display":"Denominator"}]},"count":1},{"code":{"coding":[{"system":"http://terminology.hl7.org/CodeSystem/measure-population","code":"denominator-exclusion","display":"Denominator Exclusion"}]},"count":0},{"code":{"coding":[{"system":"http://terminology.hl7.org/CodeSystem/measure-population","code":"numerator","display":"Numerator"}]},"count":1},{"code":{"coding":[{"system":"http://terminology.hl7.org/CodeSystem/measure-population","code":"denominator-exception","display":"Denominator Exception"}]},"count":0}]}]},"request":{"method":"PUT","url":"MeasureReport/e3c3a1f7-8e95-4d71-aa1b-27c612f24d61"}}]}