{"resourceType":"Bundle","id":"tests-971fefaa-cfa2-4e36-80d6-319f748d4b5f-bundle","type":"transaction","entry":[{"fullUrl":"https://madie.cms.gov/Patient/29d6b2ec-460e-477d-8aa9-73c078203576","resource":{"resourceType":"Patient","id":"29d6b2ec-460e-477d-8aa9-73c078203576","meta":{"profile":["http://hl7.org/fhir/us/qicore/StructureDefinition/qicore-patient"]},"text":{"status":"generated","div":"<div xmlns=\"http://www.w3.org/1999/xhtml\"><div class=\"hapiHeaderText\">AMA <b>DENEXPASS </b></div><table class=\"hapiPropertyTable\"><tbody><tr><td>Identifier</td><td>b38296647323cdc7f628f752ac1b84d0</td></tr><tr><td>Date of birth</td><td><span>31 July 1969</span></td></tr></tbody></table></div>"},"extension":[{"url":"http://hl7.org/fhir/us/core/StructureDefinition/us-core-race","extension":[{"url":"ombCategory","valueCoding":{"system":"urn:oid:2.16.840.1.113883.6.238","code":"1002-5","display":"American Indian or Alaska Native","userSelected":true}},{"url":"text","valueString":"American Indian or Alaska Native"}]},{"url":"http://hl7.org/fhir/us/core/StructureDefinition/us-core-ethnicity","extension":[{"url":"ombCategory","valueCoding":{"system":"urn:oid:2.16.840.1.113883.6.238","code":"2135-2","display":"Hispanic or Latino","userSelected":true}},{"url":"text","valueString":"Hispanic or Latino"}]}],"identifier":[{"type":{"coding":[{"system":"http://terminology.hl7.org/CodeSystem/v2-0203","code":"MR"}]},"system":"https://bonnie-fhir.healthit.gov/","value":"633c9d020968f8012250fc64"}],"active":true,"name":[{"use":"usual","family":"DENEXPass","given":["AMA"]}],"gender":"male","birthDate":"1969-07-31"},"request":{"method":"PUT","url":"Patient/29d6b2ec-460e-477d-8aa9-73c078203576"}},{"fullUrl":"https://madie.cms.gov/Encounter/4f4279e5-c310-4ddb-9232-33a02a18944c","resource":{"resourceType":"Encounter","id":"4f4279e5-c310-4ddb-9232-33a02a18944c","meta":{"profile":["http://hl7.org/fhir/us/qicore/StructureDefinition/qicore-encounter"]},"status":"finished","class":{"system":"http://terminology.hl7.org/CodeSystem/v3-ActCode","code":"IMP","display":"inpatient encounter"},"type":[{"coding":[{"system":"http://snomed.info/sct","code":"32485007"}]}],"subject":{"reference":"Patient/29d6b2ec-460e-477d-8aa9-73c078203576"},"period":{"start":"2025-11-20T08:00:00.000Z","end":"2025-11-24T08:15:00.000Z"},"length":{"value":4,"unit":"days"},"diagnosis":[{"condition":{"reference":"Condition/c26d9f7b-7c05-4c50-9a33-d1efc91fbf9e"},"use":{"coding":[{"system":"http://terminology.hl7.org/CodeSystem/diagnosis-role","code":"billing","display":"Billing"}]},"rank":1}],"hospitalization":{"dischargeDisposition":{"coding":[{"system":"http://snomed.info/sct","code":"445060000","display":"Left Against Medical Advice"}]}}},"request":{"method":"PUT","url":"Encounter/4f4279e5-c310-4ddb-9232-33a02a18944c"}},{"fullUrl":"https://madie.cms.gov/Coverage/97c0d3d9-4929-4f13-8cca-53ed8dc99e1e","resource":{"resourceType":"Coverage","id":"97c0d3d9-4929-4f13-8cca-53ed8dc99e1e","meta":{"profile":["http://hl7.org/fhir/us/qicore/StructureDefinition/qicore-coverage"]},"status":"active","type":{"coding":[{"system":"https://nahdo.org/sopt","code":"1","display":"MEDICARE"}]},"beneficiary":{"reference":"Patient/29d6b2ec-460e-477d-8aa9-73c078203576"},"period":{"start":"1969-07-31T08:00:00.000Z"},"payor":[{"reference":"Organization/26111c91-b0e2-476c-a20b-e3f39799f8f5"}]},"request":{"method":"PUT","url":"Coverage/97c0d3d9-4929-4f13-8cca-53ed8dc99e1e"}},{"fullUrl":"https://madie.cms.gov/Procedure/583601a4-ac4f-4e1a-81d4-bae536d2c8d3","resource":{"resourceType":"Procedure","id":"583601a4-ac4f-4e1a-81d4-bae536d2c8d3","meta":{"profile":["http://hl7.org/fhir/us/qicore/StructureDefinition/qicore-procedure"]},"extension":[{"url":"http://hl7.org/fhir/us/qicore/StructureDefinition/qicore-recorded","valueDateTime":"2025-11-19T09:35:00-04:00"}],"status":"completed","code":{"coding":[{"system":"http://www.cms.gov/Medicare/Coding/ICD10","code":"02560ZZ"},{"system":"http://snomed.info/sct","code":"175095005"}]},"subject":{"reference":"Patient/29d6b2ec-460e-477d-8aa9-73c078203576"},"performedPeriod":{"start":"2025-11-19T08:00:00.000Z","end":"2025-11-20T08:15:00.000Z"}},"request":{"method":"PUT","url":"Procedure/583601a4-ac4f-4e1a-81d4-bae536d2c8d3"}},{"fullUrl":"https://madie.cms.gov/Condition/c26d9f7b-7c05-4c50-9a33-d1efc91fbf9e","resource":{"resourceType":"Condition","id":"c26d9f7b-7c05-4c50-9a33-d1efc91fbf9e","meta":{"profile":["http://hl7.org/fhir/us/qicore/StructureDefinition/qicore-condition"]},"clinicalStatus":{"coding":[{"system":"http://terminology.hl7.org/CodeSystem/condition-clinical","code":"active"}]},"verificationStatus":{"coding":[{"system":"http://terminology.hl7.org/CodeSystem/condition-ver-status","code":"confirmed"}]},"category":[{"coding":[{"system":"http://terminology.hl7.org/CodeSystem/condition-category","code":"encounter-diagnosis","display":"Encounter Diagnosis"}]}],"code":{"coding":[{"system":"http://snomed.info/sct","version":"2021-09","code":"111297002","display":"Nonparalytic stroke (disorder)","userSelected":true}]},"subject":{"reference":"Patient/29d6b2ec-460e-477d-8aa9-73c078203576"},"recordedDate":"2025-10-04T08:00:00.000+00:00"},"request":{"method":"PUT","url":"Condition/c26d9f7b-7c05-4c50-9a33-d1efc91fbf9e"}},{"fullUrl":"https://madie.cms.gov/Organization/b29bcc65-e4ae-43b0-96b4-d1d5c48d0e0f","resource":{"resourceType":"Organization","id":"26111c91-b0e2-476c-a20b-e3f39799f8f5","meta":{"profile":["http://hl7.org/fhir/us/qicore/StructureDefinition/qicore-organization"]},"identifier":[{"use":"temp","system":"urn:oid:2.16.840.1.113883.4.4","value":"21-3259825"}],"active":true,"type":[{"coding":[{"system":"http://terminology.hl7.org/CodeSystem/organization-type","code":"pay","display":"Payer"}]}],"name":"Blue Cross Blue Shield of Texas","telecom":[{"system":"phone","value":"(+1) 972-766-6900"}],"address":[{"use":"billing","type":"postal","line":["P.O. Box 660044"],"city":"Dallas","state":"TX","postalCode":"75266-0044","country":"USA"}]},"request":{"method":"PUT","url":"Organization/26111c91-b0e2-476c-a20b-e3f39799f8f5"}},{"fullUrl":"https://madie.cms.gov/Practitioner/71fb1792-e7ac-4742-9ba1-d9f2fe5b7a99","resource":{"resourceType":"Practitioner","id":"71fb1792-e7ac-4742-9ba1-d9f2fe5b7a99","identifier":[{"system":"http://hl7.org/fhir/sid/us-npi","value":"123456"}],"name":[{"family":"Evil","prefix":["Dr"]}]},"request":{"method":"PUT","url":"Practitioner/71fb1792-e7ac-4742-9ba1-d9f2fe5b7a99"}},{"fullUrl":"https://madie.cms.gov/MeasureReport/03a4acf5-669b-46b9-b2f0-4f8a99c64b27","resource":{"resourceType":"MeasureReport","id":"03a4acf5-669b-46b9-b2f0-4f8a99c64b27","meta":{"profile":["http://hl7.org/fhir/us/cqfmeasures/StructureDefinition/test-case-cqfm"]},"contained":[{"resourceType":"Parameters","id":"8e134fbe-3099-402a-8660-1fc99031c2c2-parameters","parameter":[{"name":"subject","valueString":"29d6b2ec-460e-477d-8aa9-73c078203576"}]}],"extension":[{"url":"http://hl7.org/fhir/us/cqfmeasures/StructureDefinition/cqfm-inputParameters","valueReference":{"reference":"#8e134fbe-3099-402a-8660-1fc99031c2c2-parameters"}},{"url":"http://hl7.org/fhir/us/cqfmeasures/StructureDefinition/cqfm-testCaseDescription","valueMarkdown":"Added this to test Payer"}],"modifierExtension":[{"url":"http://hl7.org/fhir/us/cqfmeasures/StructureDefinition/cqfm-isTestCase","valueBoolean":true}],"status":"complete","type":"individual","measure":"https://madie.cms.gov/Measure/AnticoagulationTherapyforAtrialFibrillationFlutterFHIR","period":{"start":"2025-01-01","end":"2025-12-31"},"group":[{"population":[{"code":{"coding":[{"system":"http://terminology.hl7.org/CodeSystem/measure-population","code":"initial-population","display":"Initial Population"}]},"count":1},{"code":{"coding":[{"system":"http://terminology.hl7.org/CodeSystem/measure-population","code":"denominator","display":"Denominator"}]},"count":1},{"code":{"coding":[{"system":"http://terminology.hl7.org/CodeSystem/measure-population","code":"denominator-exclusion","display":"Denominator Exclusion"}]},"count":1},{"code":{"coding":[{"system":"http://terminology.hl7.org/CodeSystem/measure-population","code":"numerator","display":"Numerator"}]},"count":0},{"code":{"coding":[{"system":"http://terminology.hl7.org/CodeSystem/measure-population","code":"denominator-exception","display":"Denominator Exception"}]},"count":0}]}]},"request":{"method":"PUT","url":"MeasureReport/03a4acf5-669b-46b9-b2f0-4f8a99c64b27"}}]}