{"resourceType":"Bundle","id":"tests-8646b35e-68e3-4932-ae69-0bd7fb4e7a27-bundle","type":"transaction","entry":[{"fullUrl":"https://madie.cms.gov/Patient/f9f104d7-41b8-4cde-8176-236f82a73643","resource":{"resourceType":"Patient","id":"f9f104d7-41b8-4cde-8176-236f82a73643","meta":{"profile":["http://hl7.org/fhir/us/qicore/StructureDefinition/qicore-patient"]},"text":{"status":"generated","div":"<div xmlns=\"http://www.w3.org/1999/xhtml\"><div class=\"hapiHeaderText\">MedDCAnticoaStartsLT_EncStart <b>NUMERFAIL </b></div><table class=\"hapiPropertyTable\"><tbody><tr><td>Identifier</td><td>f98585d469325120c7402b7bc8149691</td></tr><tr><td>Date of birth</td><td><span>23 May 1954</span></td></tr></tbody></table></div>"},"extension":[{"url":"http://hl7.org/fhir/us/core/StructureDefinition/us-core-race","extension":[{"url":"ombCategory","valueCoding":{"system":"urn:oid:2.16.840.1.113883.6.238","code":"1002-5","display":"American Indian or Alaska Native","userSelected":true}},{"url":"text","valueString":"American Indian or Alaska Native"}]},{"url":"http://hl7.org/fhir/us/core/StructureDefinition/us-core-ethnicity","extension":[{"url":"ombCategory","valueCoding":{"system":"urn:oid:2.16.840.1.113883.6.238","code":"2135-2","display":"Hispanic or Latino","userSelected":true}},{"url":"text","valueString":"Hispanic or Latino"}]}],"identifier":[{"type":{"coding":[{"system":"http://terminology.hl7.org/CodeSystem/v2-0203","code":"MR"}]},"system":"https://bonnie-fhir.healthit.gov/","value":"633c9d030968f8012250fc8b"}],"active":true,"name":[{"use":"usual","family":"NUMERFail","given":["MedDCAnticoaStartsLT_EncStart"]}],"gender":"female","birthDate":"1954-05-23"},"request":{"method":"PUT","url":"Patient/f9f104d7-41b8-4cde-8176-236f82a73643"}},{"fullUrl":"https://madie.cms.gov/Encounter/73183b84-996c-4958-82ba-67ee212cbb89","resource":{"resourceType":"Encounter","id":"73183b84-996c-4958-82ba-67ee212cbb89","meta":{"profile":["http://hl7.org/fhir/us/qicore/StructureDefinition/qicore-encounter"]},"status":"finished","class":{"system":"http://terminology.hl7.org/CodeSystem/v3-ActCode","code":"IMP","display":"inpatient encounter"},"type":[{"coding":[{"system":"http://snomed.info/sct","code":"32485007"}]}],"subject":{"reference":"Patient/f9f104d7-41b8-4cde-8176-236f82a73643"},"period":{"start":"2025-11-20T08:00:00.000Z","end":"2025-11-24T08:15:00.000Z"},"length":{"value":4,"unit":"days"},"diagnosis":[{"condition":{"reference":"Condition/2c2bd5a5-06f6-4779-b9ca-77e3ea1dfbf1"},"use":{"coding":[{"system":"http://terminology.hl7.org/CodeSystem/diagnosis-role","code":"billing","display":"Billing"}]},"rank":1}]},"request":{"method":"PUT","url":"Encounter/73183b84-996c-4958-82ba-67ee212cbb89"}},{"fullUrl":"https://madie.cms.gov/MedicationRequest/bb1e83e8-5eda-4992-bd3b-c66b32de8ae7","resource":{"resourceType":"MedicationRequest","id":"bb1e83e8-5eda-4992-bd3b-c66b32de8ae7","meta":{"profile":["http://hl7.org/fhir/us/qicore/StructureDefinition/qicore-medicationrequest"]},"status":"active","intent":"order","medicationCodeableConcept":{"coding":[{"system":"http://www.nlm.nih.gov/research/umls/rxnorm","code":"1037045"}]},"subject":{"reference":"Patient/f9f104d7-41b8-4cde-8176-236f82a73643"},"authoredOn":"2025-11-20T07:59:00.000+00:00","requester":{"reference":"Practitioner/example"}},"request":{"method":"PUT","url":"MedicationRequest/bb1e83e8-5eda-4992-bd3b-c66b32de8ae7"}},{"fullUrl":"https://madie.cms.gov/Coverage/7e2d8d8c-c954-4572-8df8-e25e52bbaeb6","resource":{"resourceType":"Coverage","id":"7e2d8d8c-c954-4572-8df8-e25e52bbaeb6","status":"active","beneficiary":{"reference":"Patient/f9f104d7-41b8-4cde-8176-236f82a73643"},"period":{"start":"1954-05-23T08:00:00.000Z"},"payor":[{"reference":"Organization/26111c91-b0e2-476c-a20b-e3f39799f8f5"}]},"request":{"method":"PUT","url":"Coverage/7e2d8d8c-c954-4572-8df8-e25e52bbaeb6"}},{"fullUrl":"https://madie.cms.gov/Procedure/a0788004-7ed1-40fc-b3a6-5362cfe2bd22","resource":{"resourceType":"Procedure","id":"a0788004-7ed1-40fc-b3a6-5362cfe2bd22","meta":{"profile":["http://hl7.org/fhir/us/qicore/StructureDefinition/qicore-procedure"]},"extension":[{"url":"http://hl7.org/fhir/us/qicore/StructureDefinition/qicore-recorded","valueDateTime":"2025-11-19T09:35:00-04:00"}],"status":"completed","code":{"coding":[{"system":"http://www.cms.gov/Medicare/Coding/ICD10","code":"02560ZZ"},{"system":"http://snomed.info/sct","code":"175095005"}]},"subject":{"reference":"Patient/f9f104d7-41b8-4cde-8176-236f82a73643"},"performedPeriod":{"start":"2025-11-20T06:00:00.000Z","end":"2025-11-20T07:15:00.000Z"}},"request":{"method":"PUT","url":"Procedure/a0788004-7ed1-40fc-b3a6-5362cfe2bd22"}},{"fullUrl":"https://madie.cms.gov/Condition/2c2bd5a5-06f6-4779-b9ca-77e3ea1dfbf1","resource":{"resourceType":"Condition","id":"2c2bd5a5-06f6-4779-b9ca-77e3ea1dfbf1","meta":{"profile":["http://hl7.org/fhir/us/qicore/StructureDefinition/qicore-condition"]},"clinicalStatus":{"coding":[{"system":"http://terminology.hl7.org/CodeSystem/condition-clinical","code":"active"}]},"verificationStatus":{"coding":[{"system":"http://terminology.hl7.org/CodeSystem/condition-ver-status","code":"confirmed"}]},"category":[{"coding":[{"system":"http://terminology.hl7.org/CodeSystem/condition-category","code":"encounter-diagnosis","display":"Encounter Diagnosis"}]}],"code":{"coding":[{"system":"http://snomed.info/sct","version":"2021-09","code":"111297002","display":"Nonparalytic stroke (disorder)","userSelected":true}]},"subject":{"reference":"Patient/f9f104d7-41b8-4cde-8176-236f82a73643"},"recordedDate":"2025-10-13T08:00:00.000+00:00"},"request":{"method":"PUT","url":"Condition/2c2bd5a5-06f6-4779-b9ca-77e3ea1dfbf1"}},{"fullUrl":"https://madie.cms.gov/Organization/87cdebe7-01aa-41ee-8a42-7331bcbd75e7","resource":{"resourceType":"Organization","id":"26111c91-b0e2-476c-a20b-e3f39799f8f5","meta":{"profile":["http://hl7.org/fhir/us/qicore/StructureDefinition/qicore-organization"]},"identifier":[{"use":"temp","system":"urn:oid:2.16.840.1.113883.4.4","value":"21-3259825"}],"active":true,"type":[{"coding":[{"system":"http://terminology.hl7.org/CodeSystem/organization-type","code":"pay","display":"Payer"}]}],"name":"Blue Cross Blue Shield of Texas","telecom":[{"system":"phone","value":"(+1) 972-766-6900"}],"address":[{"use":"billing","type":"postal","line":["P.O. Box 660044"],"city":"Dallas","state":"TX","postalCode":"75266-0044","country":"USA"}]},"request":{"method":"PUT","url":"Organization/26111c91-b0e2-476c-a20b-e3f39799f8f5"}},{"fullUrl":"https://madie.cms.gov/Practitioner/cccfda28-3256-42e4-a065-b0de913b2444","resource":{"resourceType":"Practitioner","id":"cccfda28-3256-42e4-a065-b0de913b2444","identifier":[{"system":"http://hl7.org/fhir/sid/us-npi","value":"123456"}],"name":[{"family":"Evil","prefix":["Dr"]}]},"request":{"method":"PUT","url":"Practitioner/cccfda28-3256-42e4-a065-b0de913b2444"}},{"fullUrl":"https://madie.cms.gov/MeasureReport/a5adc546-6c1d-44c9-be66-e724afe792a5","resource":{"resourceType":"MeasureReport","id":"a5adc546-6c1d-44c9-be66-e724afe792a5","meta":{"profile":["http://hl7.org/fhir/us/cqfmeasures/StructureDefinition/test-case-cqfm"]},"contained":[{"resourceType":"Parameters","id":"5d6ad11c-0bc9-4d8c-beea-451c03911800-parameters","parameter":[{"name":"subject","valueString":"f9f104d7-41b8-4cde-8176-236f82a73643"}]}],"extension":[{"url":"http://hl7.org/fhir/us/cqfmeasures/StructureDefinition/cqfm-inputParameters","valueReference":{"reference":"#5d6ad11c-0bc9-4d8c-beea-451c03911800-parameters"}},{"url":"http://hl7.org/fhir/us/cqfmeasures/StructureDefinition/cqfm-testCaseDescription","valueMarkdown":"Pt. discharged on anticoagulant, starts before OccurA\n"}],"modifierExtension":[{"url":"http://hl7.org/fhir/us/cqfmeasures/StructureDefinition/cqfm-isTestCase","valueBoolean":true}],"status":"complete","type":"individual","measure":"https://madie.cms.gov/Measure/AnticoagulationTherapyforAtrialFibrillationFlutterFHIR","period":{"start":"2025-01-01","end":"2025-12-31"},"group":[{"population":[{"code":{"coding":[{"system":"http://terminology.hl7.org/CodeSystem/measure-population","code":"initial-population","display":"Initial Population"}]},"count":1},{"code":{"coding":[{"system":"http://terminology.hl7.org/CodeSystem/measure-population","code":"denominator","display":"Denominator"}]},"count":1},{"code":{"coding":[{"system":"http://terminology.hl7.org/CodeSystem/measure-population","code":"denominator-exclusion","display":"Denominator Exclusion"}]},"count":0},{"code":{"coding":[{"system":"http://terminology.hl7.org/CodeSystem/measure-population","code":"numerator","display":"Numerator"}]},"count":0},{"code":{"coding":[{"system":"http://terminology.hl7.org/CodeSystem/measure-population","code":"denominator-exception","display":"Denominator Exception"}]},"count":0}]}]},"request":{"method":"PUT","url":"MeasureReport/a5adc546-6c1d-44c9-be66-e724afe792a5"}}]}