{"resourceType":"Bundle","id":"tests-a2365453-d868-4111-b1dc-aad2e81d55fd-bundle","type":"transaction","entry":[{"fullUrl":"https://madie.cms.gov/Patient/89a80a31-5c6f-4323-b3b6-0db4487c2a88","resource":{"resourceType":"Patient","id":"89a80a31-5c6f-4323-b3b6-0db4487c2a88","meta":{"profile":["http://hl7.org/fhir/us/qicore/StructureDefinition/qicore-patient"]},"text":{"status":"generated","div":"<div xmlns=\"http://www.w3.org/1999/xhtml\"><div class=\"hapiHeaderText\">CMOdurED_ED&lt;1hrObs&gt;1hrBFEnc <b>DENEXFAIL </b></div><table class=\"hapiPropertyTable\"><tbody><tr><td>Identifier</td><td>16a8bb5fe1507565fee1a4f891d3aeaa0d43dfed75c5408a6c17ebb5066d29ae</td></tr><tr><td>Date of birth</td><td><span>18 September 1985</span></td></tr></tbody></table></div>"},"extension":[{"url":"http://hl7.org/fhir/us/core/StructureDefinition/us-core-race","extension":[{"url":"ombCategory","valueCoding":{"system":"urn:oid:2.16.840.1.113883.6.238","code":"1002-5","display":"American Indian or Alaska Native","userSelected":true}},{"url":"text","valueString":"American Indian or Alaska Native"}]},{"url":"http://hl7.org/fhir/us/core/StructureDefinition/us-core-ethnicity","extension":[{"url":"ombCategory","valueCoding":{"system":"urn:oid:2.16.840.1.113883.6.238","code":"2135-2","display":"Hispanic or Latino","userSelected":true}},{"url":"text","valueString":"Hispanic or Latino"}]}],"identifier":[{"type":{"coding":[{"system":"http://terminology.hl7.org/CodeSystem/v2-0203","code":"MR"}]},"system":"https://bonnie-fhir.healthit.gov/","value":"633c9d040968f8012250fca9"}],"active":true,"name":[{"use":"usual","family":"DENEXFail","given":["CMOdurED_ED<1hrObs>1hrBFEnc"]}],"gender":"female","birthDate":"1985-09-18"},"request":{"method":"PUT","url":"Patient/89a80a31-5c6f-4323-b3b6-0db4487c2a88"}},{"fullUrl":"https://madie.cms.gov/Condition/8a9e07bc-5b9c-4928-95dd-fba7db3f3bc8","resource":{"resourceType":"Condition","id":"8a9e07bc-5b9c-4928-95dd-fba7db3f3bc8","meta":{"profile":["http://hl7.org/fhir/us/qicore/StructureDefinition/qicore-condition"]},"clinicalStatus":{"coding":[{"system":"http://terminology.hl7.org/CodeSystem/condition-clinical","code":"inactive"}]},"verificationStatus":{"coding":[{"system":"http://terminology.hl7.org/CodeSystem/condition-ver-status","code":"confirmed"}]},"category":[{"coding":[{"system":"http://terminology.hl7.org/CodeSystem/condition-category","code":"encounter-diagnosis","display":"Encounter Diagnosis"}]}],"code":{"coding":[{"system":"http://hl7.org/fhir/sid/icd-9-cm","code":"427.31"},{"system":"http://hl7.org/fhir/sid/icd-10-cm","code":"I48.0"},{"system":"http://snomed.info/sct","code":"5370000"}]},"subject":{"reference":"Patient/89a80a31-5c6f-4323-b3b6-0db4487c2a88"},"onsetDateTime":"2025-10-01T09:01:00.000Z","abatementDateTime":"2025-10-12T00:15:00.000Z"},"request":{"method":"PUT","url":"Condition/8a9e07bc-5b9c-4928-95dd-fba7db3f3bc8"}},{"fullUrl":"https://madie.cms.gov/Encounter/f49f4ffe-a7aa-4a01-b8d3-515f755c47a6","resource":{"resourceType":"Encounter","id":"f49f4ffe-a7aa-4a01-b8d3-515f755c47a6","meta":{"profile":["http://hl7.org/fhir/us/qicore/StructureDefinition/qicore-encounter"]},"status":"finished","class":{"system":"http://terminology.hl7.org/CodeSystem/v3-ActCode","code":"EMER","display":"emergency"},"type":[{"coding":[{"system":"http://snomed.info/sct","code":"4525004"}]}],"subject":{"reference":"Patient/89a80a31-5c6f-4323-b3b6-0db4487c2a88"},"period":{"start":"2025-10-01T09:01:00.000Z","end":"2025-10-01T12:15:00.000Z"},"length":{"value":0,"unit":"days"}},"request":{"method":"PUT","url":"Encounter/f49f4ffe-a7aa-4a01-b8d3-515f755c47a6"}},{"fullUrl":"https://madie.cms.gov/Encounter/6304c6c6-4f4c-4679-8431-a832c632da15","resource":{"resourceType":"Encounter","id":"6304c6c6-4f4c-4679-8431-a832c632da15","meta":{"profile":["http://hl7.org/fhir/us/qicore/StructureDefinition/qicore-encounter"]},"status":"finished","class":{"system":"http://terminology.hl7.org/CodeSystem/v3-ActCode","code":"OBSENC","display":"observation encounter"},"type":[{"coding":[{"system":"http://snomed.info/sct","code":"448851000124103"}]}],"subject":{"reference":"Patient/89a80a31-5c6f-4323-b3b6-0db4487c2a88"},"period":{"start":"2025-10-01T12:16:00.000Z","end":"2025-10-01T12:30:00.000Z"},"length":{"value":0,"unit":"days"}},"request":{"method":"PUT","url":"Encounter/6304c6c6-4f4c-4679-8431-a832c632da15"}},{"fullUrl":"https://madie.cms.gov/Encounter/44372e1a-61e7-4328-ad51-35d9f06b2bfc","resource":{"resourceType":"Encounter","id":"44372e1a-61e7-4328-ad51-35d9f06b2bfc","meta":{"profile":["http://hl7.org/fhir/us/qicore/StructureDefinition/qicore-encounter"]},"status":"finished","class":{"system":"http://terminology.hl7.org/CodeSystem/v3-ActCode","code":"IMP","display":"inpatient encounter"},"type":[{"coding":[{"system":"http://snomed.info/sct","code":"32485007"}]}],"subject":{"reference":"Patient/89a80a31-5c6f-4323-b3b6-0db4487c2a88"},"period":{"start":"2025-10-01T13:31:00.000Z","end":"2025-10-12T00:15:00.000Z"},"length":{"value":11,"unit":"days"},"diagnosis":[{"condition":{"reference":"Condition/ff8fffb2-5e8c-42c0-99ad-100f79f6283b"},"use":{"coding":[{"system":"http://terminology.hl7.org/CodeSystem/diagnosis-role","code":"billing","display":"Billing"}]},"rank":1}]},"request":{"method":"PUT","url":"Encounter/44372e1a-61e7-4328-ad51-35d9f06b2bfc"}},{"fullUrl":"https://madie.cms.gov/ServiceRequest/057e3cc2-ac0b-436a-86cf-9945bf605e9a","resource":{"resourceType":"ServiceRequest","id":"057e3cc2-ac0b-436a-86cf-9945bf605e9a","meta":{"profile":["http://hl7.org/fhir/us/qicore/StructureDefinition/qicore-servicerequest"]},"status":"active","intent":"order","code":{"coding":[{"system":"http://snomed.info/sct","code":"133918004"}]},"subject":{"reference":"Patient/89a80a31-5c6f-4323-b3b6-0db4487c2a88"},"authoredOn":"2025-10-01T09:15:00.000+00:00"},"request":{"method":"PUT","url":"ServiceRequest/057e3cc2-ac0b-436a-86cf-9945bf605e9a"}},{"fullUrl":"https://madie.cms.gov/Coverage/33f5facc-620c-4bcf-b688-4fd39d944e79","resource":{"resourceType":"Coverage","id":"33f5facc-620c-4bcf-b688-4fd39d944e79","status":"active","beneficiary":{"reference":"Patient/89a80a31-5c6f-4323-b3b6-0db4487c2a88"},"period":{"start":"1985-09-18T08:00:00.000Z"},"payor":[{"reference":"Organization/26111c91-b0e2-476c-a20b-e3f39799f8f5"}]},"request":{"method":"PUT","url":"Coverage/33f5facc-620c-4bcf-b688-4fd39d944e79"}},{"fullUrl":"https://madie.cms.gov/Condition/ff8fffb2-5e8c-42c0-99ad-100f79f6283b","resource":{"resourceType":"Condition","id":"ff8fffb2-5e8c-42c0-99ad-100f79f6283b","meta":{"profile":["http://hl7.org/fhir/us/qicore/StructureDefinition/qicore-condition"]},"clinicalStatus":{"coding":[{"system":"http://terminology.hl7.org/CodeSystem/condition-clinical","code":"active"}]},"verificationStatus":{"coding":[{"system":"http://terminology.hl7.org/CodeSystem/condition-ver-status","code":"confirmed"}]},"category":[{"coding":[{"system":"http://terminology.hl7.org/CodeSystem/condition-category","code":"encounter-diagnosis","display":"Encounter Diagnosis"}]}],"code":{"coding":[{"system":"http://snomed.info/sct","version":"2021-09","code":"111297002","display":"Nonparalytic stroke (disorder)","userSelected":true}]},"subject":{"reference":"Patient/89a80a31-5c6f-4323-b3b6-0db4487c2a88"},"recordedDate":"2025-10-13T08:00:00.000+00:00"},"request":{"method":"PUT","url":"Condition/ff8fffb2-5e8c-42c0-99ad-100f79f6283b"}},{"fullUrl":"https://madie.cms.gov/Organization/59216ced-0594-45ac-921b-c70ab2ade7fb","resource":{"resourceType":"Organization","id":"26111c91-b0e2-476c-a20b-e3f39799f8f5","meta":{"profile":["http://hl7.org/fhir/us/qicore/StructureDefinition/qicore-organization"]},"identifier":[{"use":"temp","system":"urn:oid:2.16.840.1.113883.4.4","value":"21-3259825"}],"active":true,"type":[{"coding":[{"system":"http://terminology.hl7.org/CodeSystem/organization-type","code":"pay","display":"Payer"}]}],"name":"Blue Cross Blue Shield of Texas","telecom":[{"system":"phone","value":"(+1) 972-766-6900"}],"address":[{"use":"billing","type":"postal","line":["P.O. Box 660044"],"city":"Dallas","state":"TX","postalCode":"75266-0044","country":"USA"}]},"request":{"method":"PUT","url":"Organization/26111c91-b0e2-476c-a20b-e3f39799f8f5"}},{"fullUrl":"https://madie.cms.gov/MeasureReport/4517d734-3264-4916-b87d-d5af5d6068f5","resource":{"resourceType":"MeasureReport","id":"4517d734-3264-4916-b87d-d5af5d6068f5","meta":{"profile":["http://hl7.org/fhir/us/cqfmeasures/StructureDefinition/test-case-cqfm"]},"contained":[{"resourceType":"Parameters","id":"475bf4a4-ac78-4653-be22-8be6dc63ec3a-parameters","parameter":[{"name":"subject","valueString":"89a80a31-5c6f-4323-b3b6-0db4487c2a88"}]}],"extension":[{"url":"http://hl7.org/fhir/us/cqfmeasures/StructureDefinition/cqfm-inputParameters","valueReference":{"reference":"#475bf4a4-ac78-4653-be22-8be6dc63ec3a-parameters"}},{"url":"http://hl7.org/fhir/us/cqfmeasures/StructureDefinition/cqfm-testCaseDescription","valueMarkdown":"Patient receives CMO during Observation. ED ends 1 min before Obs start and Obs ends 61 min before inpatient encounter start. Testing HospitalizationWithObservation function."}],"modifierExtension":[{"url":"http://hl7.org/fhir/us/cqfmeasures/StructureDefinition/cqfm-isTestCase","valueBoolean":true}],"status":"complete","type":"individual","measure":"https://madie.cms.gov/Measure/AnticoagulationTherapyforAtrialFibrillationFlutterFHIR","period":{"start":"2025-01-01","end":"2025-12-31"},"group":[{"population":[{"code":{"coding":[{"system":"http://terminology.hl7.org/CodeSystem/measure-population","code":"initial-population","display":"Initial Population"}]},"count":1},{"code":{"coding":[{"system":"http://terminology.hl7.org/CodeSystem/measure-population","code":"denominator","display":"Denominator"}]},"count":1},{"code":{"coding":[{"system":"http://terminology.hl7.org/CodeSystem/measure-population","code":"denominator-exclusion","display":"Denominator Exclusion"}]},"count":0},{"code":{"coding":[{"system":"http://terminology.hl7.org/CodeSystem/measure-population","code":"numerator","display":"Numerator"}]},"count":0},{"code":{"coding":[{"system":"http://terminology.hl7.org/CodeSystem/measure-population","code":"denominator-exception","display":"Denominator Exception"}]},"count":0}]}]},"request":{"method":"PUT","url":"MeasureReport/4517d734-3264-4916-b87d-d5af5d6068f5"}}]}