{"resourceType":"Bundle","id":"tests-4543f40b-6f71-47e7-8930-0340eede9145-bundle","type":"transaction","entry":[{"fullUrl":"https://madie.cms.gov/Patient/118045b3-95ed-4b56-ba47-01b262fa0353","resource":{"resourceType":"Patient","id":"118045b3-95ed-4b56-ba47-01b262fa0353","meta":{"profile":["http://hl7.org/fhir/us/qicore/StructureDefinition/qicore-patient"]},"text":{"status":"generated","div":"<div xmlns=\"http://www.w3.org/1999/xhtml\"><div class=\"hapiHeaderText\">EncEndsAfterMP <b>IPPFAIL </b></div><table class=\"hapiPropertyTable\"><tbody><tr><td>Identifier</td><td>a2be86eca3f69327b6dde627c8efe697</td></tr><tr><td>Date of birth</td><td><span>01 December 1960</span></td></tr></tbody></table></div>"},"extension":[{"url":"http://hl7.org/fhir/us/core/StructureDefinition/us-core-race","extension":[{"url":"ombCategory","valueCoding":{"system":"urn:oid:2.16.840.1.113883.6.238","code":"1002-5","display":"American Indian or Alaska Native","userSelected":true}},{"url":"text","valueString":"American Indian or Alaska Native"}]},{"url":"http://hl7.org/fhir/us/core/StructureDefinition/us-core-ethnicity","extension":[{"url":"ombCategory","valueCoding":{"system":"urn:oid:2.16.840.1.113883.6.238","code":"2135-2","display":"Hispanic or Latino","userSelected":true}},{"url":"text","valueString":"Hispanic or Latino"}]}],"identifier":[{"type":{"coding":[{"system":"http://terminology.hl7.org/CodeSystem/v2-0203","code":"MR"}]},"system":"https://bonnie-fhir.healthit.gov/","value":"633c9d030968f8012250fc77"}],"active":true,"name":[{"use":"usual","family":"IPPFail ","given":["EncEndsAfterMP "]}],"gender":"male","birthDate":"1960-12-01"},"request":{"method":"PUT","url":"Patient/118045b3-95ed-4b56-ba47-01b262fa0353"}},{"fullUrl":"https://madie.cms.gov/Encounter/3f5a78af-e455-4893-a40e-4196bc9a72df","resource":{"resourceType":"Encounter","id":"3f5a78af-e455-4893-a40e-4196bc9a72df","meta":{"profile":["http://hl7.org/fhir/us/qicore/StructureDefinition/qicore-encounter"]},"status":"finished","class":{"system":"http://terminology.hl7.org/CodeSystem/v3-ActCode","code":"IMP","display":"inpatient encounter"},"type":[{"coding":[{"system":"http://snomed.info/sct","code":"32485007"}]}],"subject":{"reference":"Patient/118045b3-95ed-4b56-ba47-01b262fa0353"},"period":{"start":"2025-12-01T08:00:00.000Z","end":"2026-01-01T00:01:00.000Z"},"length":{"value":31,"unit":"days"},"diagnosis":[{"condition":{"reference":"Condition/e65d9a89-0a74-43ea-9dc7-4788d943a179"},"rank":1}]},"request":{"method":"PUT","url":"Encounter/3f5a78af-e455-4893-a40e-4196bc9a72df"}},{"fullUrl":"https://madie.cms.gov/Coverage/93d26d8e-2f9a-4568-83bc-da93d7328f0b","resource":{"resourceType":"Coverage","id":"93d26d8e-2f9a-4568-83bc-da93d7328f0b","status":"active","beneficiary":{"reference":"Patient/118045b3-95ed-4b56-ba47-01b262fa0353"},"period":{"start":"1960-12-01T08:00:00.000Z"},"payor":[{"reference":"Organization/26111c91-b0e2-476c-a20b-e3f39799f8f5"}]},"request":{"method":"PUT","url":"Coverage/93d26d8e-2f9a-4568-83bc-da93d7328f0b"}},{"fullUrl":"https://madie.cms.gov/Condition/e65d9a89-0a74-43ea-9dc7-4788d943a179","resource":{"resourceType":"Condition","id":"e65d9a89-0a74-43ea-9dc7-4788d943a179","meta":{"profile":["http://hl7.org/fhir/us/qicore/StructureDefinition/qicore-condition"]},"clinicalStatus":{"coding":[{"system":"http://terminology.hl7.org/CodeSystem/condition-clinical","code":"active"}]},"verificationStatus":{"coding":[{"system":"http://terminology.hl7.org/CodeSystem/condition-ver-status","code":"confirmed"}]},"category":[{"coding":[{"system":"http://terminology.hl7.org/CodeSystem/condition-category","code":"encounter-diagnosis","display":"Encounter Diagnosis"}]}],"code":{"coding":[{"system":"http://snomed.info/sct","version":"2021-09","code":"111297002","display":"Nonparalytic stroke (disorder)","userSelected":true}]},"subject":{"reference":"Patient/118045b3-95ed-4b56-ba47-01b262fa0353"},"recordedDate":"2025-10-13T08:00:00.000+00:00"},"request":{"method":"PUT","url":"Condition/e65d9a89-0a74-43ea-9dc7-4788d943a179"}},{"fullUrl":"https://madie.cms.gov/Organization/06adff5d-6e22-4725-9bee-ed52ed089e32","resource":{"resourceType":"Organization","id":"26111c91-b0e2-476c-a20b-e3f39799f8f5","meta":{"profile":["http://hl7.org/fhir/us/qicore/StructureDefinition/qicore-organization"]},"identifier":[{"use":"temp","system":"urn:oid:2.16.840.1.113883.4.4","value":"21-3259825"}],"active":true,"type":[{"coding":[{"system":"http://terminology.hl7.org/CodeSystem/organization-type","code":"pay","display":"Payer"}]}],"name":"Blue Cross Blue Shield of Texas","telecom":[{"system":"phone","value":"(+1) 972-766-6900"}],"address":[{"use":"billing","type":"postal","line":["P.O. Box 660044"],"city":"Dallas","state":"TX","postalCode":"75266-0044","country":"USA"}]},"request":{"method":"PUT","url":"Organization/26111c91-b0e2-476c-a20b-e3f39799f8f5"}},{"fullUrl":"https://madie.cms.gov/Practitioner/4d056cb7-f920-4493-9f34-471e5c85e459","resource":{"resourceType":"Practitioner","id":"4d056cb7-f920-4493-9f34-471e5c85e459","identifier":[{"system":"http://hl7.org/fhir/sid/us-npi","value":"123456"}],"name":[{"family":"Evil","prefix":["Dr"]}]},"request":{"method":"PUT","url":"Practitioner/4d056cb7-f920-4493-9f34-471e5c85e459"}},{"fullUrl":"https://madie.cms.gov/MeasureReport/f4e165b5-c278-45c9-9644-ed513f3ece10","resource":{"resourceType":"MeasureReport","id":"f4e165b5-c278-45c9-9644-ed513f3ece10","meta":{"profile":["http://hl7.org/fhir/us/cqfmeasures/StructureDefinition/test-case-cqfm"]},"contained":[{"resourceType":"Parameters","id":"26b93311-12e0-4ab9-9b5d-2ffcf16a2907-parameters","parameter":[{"name":"subject","valueString":"118045b3-95ed-4b56-ba47-01b262fa0353"}]}],"extension":[{"url":"http://hl7.org/fhir/us/cqfmeasures/StructureDefinition/cqfm-inputParameters","valueReference":{"reference":"#26b93311-12e0-4ab9-9b5d-2ffcf16a2907-parameters"}},{"url":"http://hl7.org/fhir/us/cqfmeasures/StructureDefinition/cqfm-testCaseDescription","valueMarkdown":"Principal diagnosis = ischemic stroke, age GE 18, encounter ends after MP\n"}],"modifierExtension":[{"url":"http://hl7.org/fhir/us/cqfmeasures/StructureDefinition/cqfm-isTestCase","valueBoolean":true}],"status":"complete","type":"individual","measure":"https://madie.cms.gov/Measure/AnticoagulationTherapyforAtrialFibrillationFlutterFHIR","period":{"start":"2025-01-01","end":"2025-12-31"},"group":[{"population":[{"code":{"coding":[{"system":"http://terminology.hl7.org/CodeSystem/measure-population","code":"initial-population","display":"Initial Population"}]},"count":0},{"code":{"coding":[{"system":"http://terminology.hl7.org/CodeSystem/measure-population","code":"denominator","display":"Denominator"}]},"count":0},{"code":{"coding":[{"system":"http://terminology.hl7.org/CodeSystem/measure-population","code":"denominator-exclusion","display":"Denominator Exclusion"}]},"count":0},{"code":{"coding":[{"system":"http://terminology.hl7.org/CodeSystem/measure-population","code":"numerator","display":"Numerator"}]},"count":0},{"code":{"coding":[{"system":"http://terminology.hl7.org/CodeSystem/measure-population","code":"denominator-exception","display":"Denominator Exception"}]},"count":0}]}]},"request":{"method":"PUT","url":"MeasureReport/f4e165b5-c278-45c9-9644-ed513f3ece10"}}]}