{"resourceType":"Bundle","id":"tests-3023ca44-3a4f-4be3-931b-784e9c9c46e9-bundle","type":"transaction","entry":[{"fullUrl":"https://madie.cms.gov/Patient/ff80205a-b7ff-43c2-bd6f-4751ba547026","resource":{"resourceType":"Patient","id":"ff80205a-b7ff-43c2-bd6f-4751ba547026","meta":{"profile":["http://hl7.org/fhir/us/qicore/StructureDefinition/qicore-patient"]},"text":{"status":"generated","div":"<div xmlns=\"http://www.w3.org/1999/xhtml\"><div class=\"hapiHeaderText\">CMOdurObs_ED&gt;1hrObs&gt;1hrBFEnc <b>DENEXFAIL </b></div><table class=\"hapiPropertyTable\"><tbody><tr><td>Identifier</td><td>013c7df93f5b4b7bbcd2a75a8b429b2c</td></tr><tr><td>Date of birth</td><td><span>18 September 1985</span></td></tr></tbody></table></div>"},"extension":[{"url":"http://hl7.org/fhir/us/core/StructureDefinition/us-core-race","extension":[{"url":"ombCategory","valueCoding":{"system":"urn:oid:2.16.840.1.113883.6.238","code":"1002-5","display":"American Indian or Alaska Native","userSelected":true}},{"url":"text","valueString":"American Indian or Alaska Native"}]},{"url":"http://hl7.org/fhir/us/core/StructureDefinition/us-core-ethnicity","extension":[{"url":"ombCategory","valueCoding":{"system":"urn:oid:2.16.840.1.113883.6.238","code":"2135-2","display":"Hispanic or Latino","userSelected":true}},{"url":"text","valueString":"Hispanic or Latino"}]}],"identifier":[{"type":{"coding":[{"system":"http://terminology.hl7.org/CodeSystem/v2-0203","code":"MR"}]},"system":"https://bonnie-fhir.healthit.gov/","value":"633c9d030968f8012250fc8a"}],"active":true,"name":[{"use":"usual","family":"DENEXFail","given":["CMOdurObs_ED>1hrObs>1hrBFEnc"]}],"gender":"female","birthDate":"1985-09-18"},"request":{"method":"PUT","url":"Patient/ff80205a-b7ff-43c2-bd6f-4751ba547026"}},{"fullUrl":"https://madie.cms.gov/Condition/7696474f-5850-40d1-ae76-37bc0c97f755","resource":{"resourceType":"Condition","id":"7696474f-5850-40d1-ae76-37bc0c97f755","meta":{"profile":["http://hl7.org/fhir/us/qicore/StructureDefinition/qicore-condition"]},"clinicalStatus":{"coding":[{"system":"http://terminology.hl7.org/CodeSystem/condition-clinical","code":"inactive"}]},"verificationStatus":{"coding":[{"system":"http://terminology.hl7.org/CodeSystem/condition-ver-status","code":"confirmed"}]},"category":[{"coding":[{"system":"http://terminology.hl7.org/CodeSystem/condition-category","code":"encounter-diagnosis","display":"Encounter Diagnosis"}]}],"code":{"coding":[{"system":"http://hl7.org/fhir/sid/icd-9-cm","code":"427.31"},{"system":"http://hl7.org/fhir/sid/icd-10-cm","code":"I48.0"},{"system":"http://snomed.info/sct","code":"5370000"}]},"subject":{"reference":"Patient/ff80205a-b7ff-43c2-bd6f-4751ba547026"},"onsetDateTime":"2025-10-01T09:00:00.000Z","abatementDateTime":"2025-10-12T00:15:00.000Z"},"request":{"method":"PUT","url":"Condition/7696474f-5850-40d1-ae76-37bc0c97f755"}},{"fullUrl":"https://madie.cms.gov/Encounter/bc99d65f-866a-46da-8620-a810f18bb76e","resource":{"resourceType":"Encounter","id":"bc99d65f-866a-46da-8620-a810f18bb76e","meta":{"profile":["http://hl7.org/fhir/us/qicore/StructureDefinition/qicore-encounter"]},"status":"finished","class":{"system":"http://terminology.hl7.org/CodeSystem/v3-ActCode","code":"EMER","display":"emergency"},"type":[{"coding":[{"system":"http://snomed.info/sct","code":"4525004"}]}],"subject":{"reference":"Patient/ff80205a-b7ff-43c2-bd6f-4751ba547026"},"period":{"start":"2025-09-30T06:59:00.000Z","end":"2025-09-30T07:00:00.000Z"},"length":{"value":0,"unit":"days"}},"request":{"method":"PUT","url":"Encounter/bc99d65f-866a-46da-8620-a810f18bb76e"}},{"fullUrl":"https://madie.cms.gov/Encounter/c205e9fa-2f47-4f10-b8f6-e2443f25717d","resource":{"resourceType":"Encounter","id":"c205e9fa-2f47-4f10-b8f6-e2443f25717d","meta":{"profile":["http://hl7.org/fhir/us/qicore/StructureDefinition/qicore-encounter"]},"status":"finished","class":{"system":"http://terminology.hl7.org/CodeSystem/v3-ActCode","code":"OBSENC","display":"observation encounter"},"type":[{"coding":[{"system":"http://snomed.info/sct","code":"448851000124103"}]}],"subject":{"reference":"Patient/ff80205a-b7ff-43c2-bd6f-4751ba547026"},"period":{"start":"2025-09-30T08:00:00.000Z","end":"2025-09-30T08:05:00.000Z"},"length":{"value":0,"unit":"days"}},"request":{"method":"PUT","url":"Encounter/c205e9fa-2f47-4f10-b8f6-e2443f25717d"}},{"fullUrl":"https://madie.cms.gov/Encounter/2ef3fcfc-1621-4da9-be2e-0baf0cd22c35","resource":{"resourceType":"Encounter","id":"2ef3fcfc-1621-4da9-be2e-0baf0cd22c35","meta":{"profile":["http://hl7.org/fhir/us/qicore/StructureDefinition/qicore-encounter"]},"status":"finished","class":{"system":"http://terminology.hl7.org/CodeSystem/v3-ActCode","code":"IMP","display":"inpatient encounter"},"type":[{"coding":[{"system":"http://snomed.info/sct","code":"32485007"}]}],"subject":{"reference":"Patient/ff80205a-b7ff-43c2-bd6f-4751ba547026"},"period":{"start":"2025-09-30T09:06:00.000Z","end":"2025-10-12T00:15:00.000Z"},"length":{"value":12,"unit":"days"},"diagnosis":[{"condition":{"reference":"Condition/2939cddf-e5d1-410e-8fd6-8aaedfc669a4"},"use":{"coding":[{"system":"http://terminology.hl7.org/CodeSystem/diagnosis-role","code":"billing","display":"Billing"}]},"rank":1}],"hospitalization":{"dischargeDisposition":{"coding":[{"system":"http://snomed.info/sct","code":"10161009","display":"Discharge To Home Or Police Custody"}]}}},"request":{"method":"PUT","url":"Encounter/2ef3fcfc-1621-4da9-be2e-0baf0cd22c35"}},{"fullUrl":"https://madie.cms.gov/ServiceRequest/c49463f1-0b48-47f3-9477-d4a551edba12","resource":{"resourceType":"ServiceRequest","id":"c49463f1-0b48-47f3-9477-d4a551edba12","meta":{"profile":["http://hl7.org/fhir/us/qicore/StructureDefinition/qicore-servicerequest"]},"status":"active","intent":"order","code":{"coding":[{"system":"http://snomed.info/sct","code":"133918004"}]},"subject":{"reference":"Patient/ff80205a-b7ff-43c2-bd6f-4751ba547026"},"authoredOn":"2025-09-30T08:01:00.000+00:00"},"request":{"method":"PUT","url":"ServiceRequest/c49463f1-0b48-47f3-9477-d4a551edba12"}},{"fullUrl":"https://madie.cms.gov/Coverage/420b0d9c-aeb5-4472-82dd-36ad519e4411","resource":{"resourceType":"Coverage","id":"420b0d9c-aeb5-4472-82dd-36ad519e4411","status":"active","beneficiary":{"reference":"Patient/ff80205a-b7ff-43c2-bd6f-4751ba547026"},"period":{"start":"1985-09-18T08:00:00.000Z"},"payor":[{"reference":"Organization/26111c91-b0e2-476c-a20b-e3f39799f8f5"}]},"request":{"method":"PUT","url":"Coverage/420b0d9c-aeb5-4472-82dd-36ad519e4411"}},{"fullUrl":"https://madie.cms.gov/Condition/2939cddf-e5d1-410e-8fd6-8aaedfc669a4","resource":{"resourceType":"Condition","id":"2939cddf-e5d1-410e-8fd6-8aaedfc669a4","meta":{"profile":["http://hl7.org/fhir/us/qicore/StructureDefinition/qicore-condition"]},"clinicalStatus":{"coding":[{"system":"http://terminology.hl7.org/CodeSystem/condition-clinical","code":"active"}]},"verificationStatus":{"coding":[{"system":"http://terminology.hl7.org/CodeSystem/condition-ver-status","code":"confirmed"}]},"category":[{"coding":[{"system":"http://terminology.hl7.org/CodeSystem/condition-category","code":"encounter-diagnosis","display":"Encounter Diagnosis"}]}],"code":{"coding":[{"system":"http://snomed.info/sct","version":"2021-09","code":"111297002","display":"Nonparalytic stroke (disorder)","userSelected":true}]},"subject":{"reference":"Patient/ff80205a-b7ff-43c2-bd6f-4751ba547026"},"recordedDate":"2025-10-13T08:00:00.000+00:00"},"request":{"method":"PUT","url":"Condition/2939cddf-e5d1-410e-8fd6-8aaedfc669a4"}},{"fullUrl":"https://madie.cms.gov/Organization/40a0a94a-87b1-4bdf-b6e4-58ad234de545","resource":{"resourceType":"Organization","id":"26111c91-b0e2-476c-a20b-e3f39799f8f5","meta":{"profile":["http://hl7.org/fhir/us/qicore/StructureDefinition/qicore-organization"]},"identifier":[{"use":"temp","system":"urn:oid:2.16.840.1.113883.4.4","value":"21-3259825"}],"active":true,"type":[{"coding":[{"system":"http://terminology.hl7.org/CodeSystem/organization-type","code":"pay","display":"Payer"}]}],"name":"Blue Cross Blue Shield of Texas","telecom":[{"system":"phone","value":"(+1) 972-766-6900"}],"address":[{"use":"billing","type":"postal","line":["P.O. Box 660044"],"city":"Dallas","state":"TX","postalCode":"75266-0044","country":"USA"}]},"request":{"method":"PUT","url":"Organization/26111c91-b0e2-476c-a20b-e3f39799f8f5"}},{"fullUrl":"https://madie.cms.gov/Practitioner/918e253b-d476-412a-b1e4-236daabeab8f","resource":{"resourceType":"Practitioner","id":"918e253b-d476-412a-b1e4-236daabeab8f","identifier":[{"system":"http://hl7.org/fhir/sid/us-npi","value":"123456"}],"name":[{"family":"Evil","prefix":["Dr"]}]},"request":{"method":"PUT","url":"Practitioner/918e253b-d476-412a-b1e4-236daabeab8f"}},{"fullUrl":"https://madie.cms.gov/MeasureReport/f53714df-b0b2-43fe-80e8-00088b4ac61d","resource":{"resourceType":"MeasureReport","id":"f53714df-b0b2-43fe-80e8-00088b4ac61d","meta":{"profile":["http://hl7.org/fhir/us/cqfmeasures/StructureDefinition/test-case-cqfm"]},"contained":[{"resourceType":"Parameters","id":"3fed15b4-75e8-4513-93ca-e6fb0e4a7164-parameters","parameter":[{"name":"subject","valueString":"ff80205a-b7ff-43c2-bd6f-4751ba547026"}]}],"extension":[{"url":"http://hl7.org/fhir/us/cqfmeasures/StructureDefinition/cqfm-inputParameters","valueReference":{"reference":"#3fed15b4-75e8-4513-93ca-e6fb0e4a7164-parameters"}},{"url":"http://hl7.org/fhir/us/cqfmeasures/StructureDefinition/cqfm-testCaseDescription","valueMarkdown":"Patient receives CMO order during Observation. ED visit ends 61 min. before Obs start, Obs ends 61 min before Inpatient encounter. Testing HospitalizationWithObservation function.\n"}],"modifierExtension":[{"url":"http://hl7.org/fhir/us/cqfmeasures/StructureDefinition/cqfm-isTestCase","valueBoolean":true}],"status":"complete","type":"individual","measure":"https://madie.cms.gov/Measure/AnticoagulationTherapyforAtrialFibrillationFlutterFHIR","period":{"start":"2025-01-01","end":"2025-12-31"},"group":[{"population":[{"code":{"coding":[{"system":"http://terminology.hl7.org/CodeSystem/measure-population","code":"initial-population","display":"Initial Population"}]},"count":1},{"code":{"coding":[{"system":"http://terminology.hl7.org/CodeSystem/measure-population","code":"denominator","display":"Denominator"}]},"count":1},{"code":{"coding":[{"system":"http://terminology.hl7.org/CodeSystem/measure-population","code":"denominator-exclusion","display":"Denominator Exclusion"}]},"count":0},{"code":{"coding":[{"system":"http://terminology.hl7.org/CodeSystem/measure-population","code":"numerator","display":"Numerator"}]},"count":0},{"code":{"coding":[{"system":"http://terminology.hl7.org/CodeSystem/measure-population","code":"denominator-exception","display":"Denominator Exception"}]},"count":0}]}]},"request":{"method":"PUT","url":"MeasureReport/f53714df-b0b2-43fe-80e8-00088b4ac61d"}}]}