{"resourceType":"Bundle","id":"tests-18912918-19e8-4d17-8160-71849eaede4b-bundle","type":"transaction","entry":[{"fullUrl":"https://madie.cms.gov/Patient/5e0f9cc9-0016-4bb5-983d-38c37f734a8a","resource":{"resourceType":"Patient","id":"5e0f9cc9-0016-4bb5-983d-38c37f734a8a","meta":{"profile":["http://hl7.org/fhir/us/qicore/StructureDefinition/qicore-patient"]},"text":{"status":"generated","div":"<div xmlns=\"http://www.w3.org/1999/xhtml\"><div class=\"hapiHeaderText\">EncPrinDx=Afib/Flutter Rank2 <b>IPPFAIL </b></div><table class=\"hapiPropertyTable\"><tbody><tr><td>Identifier</td><td>2038d8a42effee0cae92f8c6fde4ebe8</td></tr><tr><td>Date of birth</td><td><span>01 December 1960</span></td></tr></tbody></table></div>"},"extension":[{"url":"http://hl7.org/fhir/us/core/StructureDefinition/us-core-race","extension":[{"url":"ombCategory","valueCoding":{"system":"urn:oid:2.16.840.1.113883.6.238","code":"1002-5","display":"American Indian or Alaska Native","userSelected":true}},{"url":"text","valueString":"American Indian or Alaska Native"}]},{"url":"http://hl7.org/fhir/us/core/StructureDefinition/us-core-ethnicity","extension":[{"url":"ombCategory","valueCoding":{"system":"urn:oid:2.16.840.1.113883.6.238","code":"2135-2","display":"Hispanic or Latino","userSelected":true}},{"url":"text","valueString":"Hispanic or Latino"}]}],"identifier":[{"type":{"coding":[{"system":"http://terminology.hl7.org/CodeSystem/v2-0203","code":"MR"}]},"system":"https://bonnie-fhir.healthit.gov/","value":"633c9d040968f8012250fcab"}],"active":true,"name":[{"use":"usual","family":"IPPFail ","given":["EncPrinDx=Afib/Flutter Rank2"]}],"gender":"male","birthDate":"1960-12-01"},"request":{"method":"PUT","url":"Patient/5e0f9cc9-0016-4bb5-983d-38c37f734a8a"}},{"fullUrl":"https://madie.cms.gov/Encounter/42914a6a-1e64-4be9-a078-355b4afea352","resource":{"resourceType":"Encounter","id":"42914a6a-1e64-4be9-a078-355b4afea352","meta":{"profile":["http://hl7.org/fhir/us/qicore/StructureDefinition/qicore-encounter"]},"status":"finished","class":{"system":"http://terminology.hl7.org/CodeSystem/v3-ActCode","code":"IMP","display":"inpatient encounter"},"type":[{"coding":[{"system":"http://snomed.info/sct","code":"32485007"}]}],"subject":{"reference":"Patient/5e0f9cc9-0016-4bb5-983d-38c37f734a8a"},"period":{"start":"2025-02-08T08:00:00.000Z","end":"2025-02-10T08:15:00.000Z"},"length":{"value":2,"unit":"days"},"diagnosis":[{"condition":{"reference":"Condition/ba30a73f-6bf2-4dd1-b9e0-236c7b4ef3d4"},"use":{"coding":[{"system":"http://terminology.hl7.org/CodeSystem/diagnosis-role","code":"billing","display":"Billing"}]},"rank":2}]},"request":{"method":"PUT","url":"Encounter/42914a6a-1e64-4be9-a078-355b4afea352"}},{"fullUrl":"https://madie.cms.gov/Coverage/a81492db-cb95-4133-9f66-908de2173347","resource":{"resourceType":"Coverage","id":"a81492db-cb95-4133-9f66-908de2173347","status":"active","beneficiary":{"reference":"Patient/5e0f9cc9-0016-4bb5-983d-38c37f734a8a"},"period":{"start":"1960-12-01T01:00:00.000Z"},"payor":[{"reference":"Organization/26111c91-b0e2-476c-a20b-e3f39799f8f5"}]},"request":{"method":"PUT","url":"Coverage/a81492db-cb95-4133-9f66-908de2173347"}},{"fullUrl":"https://madie.cms.gov/Condition/ba30a73f-6bf2-4dd1-b9e0-236c7b4ef3d4","resource":{"resourceType":"Condition","id":"ba30a73f-6bf2-4dd1-b9e0-236c7b4ef3d4","meta":{"profile":["http://hl7.org/fhir/us/qicore/StructureDefinition/qicore-condition"]},"clinicalStatus":{"coding":[{"system":"http://terminology.hl7.org/CodeSystem/condition-clinical","code":"active"}]},"verificationStatus":{"coding":[{"system":"http://terminology.hl7.org/CodeSystem/condition-ver-status","code":"confirmed"}]},"category":[{"coding":[{"system":"http://terminology.hl7.org/CodeSystem/condition-category","code":"encounter-diagnosis","display":"Encounter Diagnosis"}]}],"code":{"coding":[{"system":"http://snomed.info/sct","version":"2021-09","code":"120041000119109","display":"Atrial fibrillation with rapid ventricular response (disorder)","userSelected":true}]},"subject":{"reference":"Patient/5e0f9cc9-0016-4bb5-983d-38c37f734a8a"},"recordedDate":"2025-10-13T08:00:00.000+00:00"},"request":{"method":"PUT","url":"Condition/ba30a73f-6bf2-4dd1-b9e0-236c7b4ef3d4"}},{"fullUrl":"https://madie.cms.gov/Organization/0b930a90-7991-4a5c-8c31-ba7ea1869b89","resource":{"resourceType":"Organization","id":"26111c91-b0e2-476c-a20b-e3f39799f8f5","meta":{"profile":["http://hl7.org/fhir/us/qicore/StructureDefinition/qicore-organization"]},"identifier":[{"use":"temp","system":"urn:oid:2.16.840.1.113883.4.4","value":"21-3259825"}],"active":true,"type":[{"coding":[{"system":"http://terminology.hl7.org/CodeSystem/organization-type","code":"pay","display":"Payer"}]}],"name":"Blue Cross Blue Shield of Texas","telecom":[{"system":"phone","value":"(+1) 972-766-6900"}],"address":[{"use":"billing","type":"postal","line":["P.O. Box 660044"],"city":"Dallas","state":"TX","postalCode":"75266-0044","country":"USA"}]},"request":{"method":"PUT","url":"Organization/26111c91-b0e2-476c-a20b-e3f39799f8f5"}},{"fullUrl":"https://madie.cms.gov/Practitioner/0881064a-4a3c-491d-b617-c33fe59cd17f","resource":{"resourceType":"Practitioner","id":"0881064a-4a3c-491d-b617-c33fe59cd17f","identifier":[{"system":"http://hl7.org/fhir/sid/us-npi","value":"123456"}],"name":[{"family":"Evil","prefix":["Dr"]}]},"request":{"method":"PUT","url":"Practitioner/0881064a-4a3c-491d-b617-c33fe59cd17f"}},{"fullUrl":"https://madie.cms.gov/MeasureReport/2599ec64-a9ab-4aba-a8fd-32a54e06094e","resource":{"resourceType":"MeasureReport","id":"2599ec64-a9ab-4aba-a8fd-32a54e06094e","meta":{"profile":["http://hl7.org/fhir/us/cqfmeasures/StructureDefinition/test-case-cqfm"]},"contained":[{"resourceType":"Parameters","id":"1817af68-41e5-4d84-9c09-34e29431c55a-parameters","parameter":[{"name":"subject","valueString":"5e0f9cc9-0016-4bb5-983d-38c37f734a8a"}]}],"extension":[{"url":"http://hl7.org/fhir/us/cqfmeasures/StructureDefinition/cqfm-inputParameters","valueReference":{"reference":"#1817af68-41e5-4d84-9c09-34e29431c55a-parameters"}},{"url":"http://hl7.org/fhir/us/cqfmeasures/StructureDefinition/cqfm-testCaseDescription","valueMarkdown":"Principal diagnosis not in value set\n"}],"modifierExtension":[{"url":"http://hl7.org/fhir/us/cqfmeasures/StructureDefinition/cqfm-isTestCase","valueBoolean":true}],"status":"complete","type":"individual","measure":"https://madie.cms.gov/Measure/AnticoagulationTherapyforAtrialFibrillationFlutterFHIR","period":{"start":"2025-01-01","end":"2025-12-31"},"group":[{"population":[{"code":{"coding":[{"system":"http://terminology.hl7.org/CodeSystem/measure-population","code":"initial-population","display":"Initial Population"}]},"count":0},{"code":{"coding":[{"system":"http://terminology.hl7.org/CodeSystem/measure-population","code":"denominator","display":"Denominator"}]},"count":0},{"code":{"coding":[{"system":"http://terminology.hl7.org/CodeSystem/measure-population","code":"denominator-exclusion","display":"Denominator Exclusion"}]},"count":0},{"code":{"coding":[{"system":"http://terminology.hl7.org/CodeSystem/measure-population","code":"numerator","display":"Numerator"}]},"count":0},{"code":{"coding":[{"system":"http://terminology.hl7.org/CodeSystem/measure-population","code":"denominator-exception","display":"Denominator Exception"}]},"count":0}]}]},"request":{"method":"PUT","url":"MeasureReport/2599ec64-a9ab-4aba-a8fd-32a54e06094e"}}]}