{"resourceType":"Bundle","id":"tests-595ebfd1-fe6a-4b4b-96a1-23a72f6a70da-bundle","type":"transaction","entry":[{"fullUrl":"https://madie.cms.gov/Patient/d3373291-bad4-4137-91f8-262e830418b9","resource":{"resourceType":"Patient","id":"d3373291-bad4-4137-91f8-262e830418b9","meta":{"profile":["http://hl7.org/fhir/us/qicore/StructureDefinition/qicore-patient"]},"text":{"status":"generated","div":"<div xmlns=\"http://www.w3.org/1999/xhtml\"><div class=\"hapiHeaderText\">MedDCPatRefDuringEncInp <b>DENEXCEPPASS </b></div><table class=\"hapiPropertyTable\"><tbody><tr><td>Identifier</td><td>0c63b215784ea7e3383559263b15cd7e</td></tr><tr><td>Date of birth</td><td><span>23 May 1954</span></td></tr></tbody></table></div>"},"extension":[{"url":"http://hl7.org/fhir/us/core/StructureDefinition/us-core-race","extension":[{"url":"ombCategory","valueCoding":{"system":"urn:oid:2.16.840.1.113883.6.238","code":"1002-5","display":"American Indian or Alaska Native","userSelected":true}},{"url":"text","valueString":"American Indian or Alaska Native"}]},{"url":"http://hl7.org/fhir/us/core/StructureDefinition/us-core-ethnicity","extension":[{"url":"ombCategory","valueCoding":{"system":"urn:oid:2.16.840.1.113883.6.238","code":"2135-2","display":"Hispanic or Latino","userSelected":true}},{"url":"text","valueString":"Hispanic or Latino"}]}],"identifier":[{"type":{"coding":[{"system":"http://terminology.hl7.org/CodeSystem/v2-0203","code":"MR"}]},"system":"https://bonnie-fhir.healthit.gov/","value":"633c9d030968f8012250fc8c"}],"active":true,"name":[{"use":"usual","family":"DENEXCEPPass","given":["MedDCPatRefDuringEncInp"]}],"gender":"female","birthDate":"1954-05-23"},"request":{"method":"PUT","url":"Patient/d3373291-bad4-4137-91f8-262e830418b9"}},{"fullUrl":"https://madie.cms.gov/Encounter/4f133102-7a0f-47d1-b64e-11ad817106c1","resource":{"resourceType":"Encounter","id":"4f133102-7a0f-47d1-b64e-11ad817106c1","meta":{"profile":["http://hl7.org/fhir/us/qicore/StructureDefinition/qicore-encounter"]},"status":"finished","class":{"system":"http://terminology.hl7.org/CodeSystem/v3-ActCode","code":"IMP","display":"inpatient encounter"},"type":[{"coding":[{"system":"http://snomed.info/sct","code":"32485007"}]}],"subject":{"reference":"Patient/d3373291-bad4-4137-91f8-262e830418b9"},"period":{"start":"2025-11-20T08:00:00.000Z","end":"2025-11-24T08:15:00.000Z"},"length":{"value":4,"unit":"days"},"diagnosis":[{"condition":{"reference":"Condition/7adb6245-78be-4178-ad52-33095c48b593"},"use":{"coding":[{"system":"http://terminology.hl7.org/CodeSystem/diagnosis-role","code":"billing","display":"Billing"}]},"rank":1}]},"request":{"method":"PUT","url":"Encounter/4f133102-7a0f-47d1-b64e-11ad817106c1"}},{"fullUrl":"https://madie.cms.gov/MedicationRequest/c676a4e3-67c8-40fd-8ec9-9149063dc85b","resource":{"resourceType":"MedicationRequest","id":"c676a4e3-67c8-40fd-8ec9-9149063dc85b","meta":{"profile":["http://hl7.org/fhir/us/qicore/StructureDefinition/qicore-mednotrequested"]},"status":"completed","intent":"order","category":[{"coding":[{"system":"http://terminology.hl7.org/CodeSystem/medicationrequest-category","code":"community"}]}],"doNotPerform":true,"medicationCodeableConcept":{"coding":[{"system":"http://www.nlm.nih.gov/research/umls/rxnorm","code":"308351"}]},"subject":{"reference":"Patient/d3373291-bad4-4137-91f8-262e830418b9"},"authoredOn":"2025-11-24T08:10:00.000+00:00","requester":{"reference":"Practitioner/example"},"reasonCode":[{"coding":[{"system":"http://snomed.info/sct","code":"443390004"}]}]},"request":{"method":"PUT","url":"MedicationRequest/c676a4e3-67c8-40fd-8ec9-9149063dc85b"}},{"fullUrl":"https://madie.cms.gov/Coverage/6ece4aa3-5f87-46e1-b340-7c11bbdd7fb0","resource":{"resourceType":"Coverage","id":"6ece4aa3-5f87-46e1-b340-7c11bbdd7fb0","status":"active","beneficiary":{"reference":"Patient/d3373291-bad4-4137-91f8-262e830418b9"},"period":{"start":"1954-05-23T08:00:00.000Z"},"payor":[{"reference":"Organization/26111c91-b0e2-476c-a20b-e3f39799f8f5"}]},"request":{"method":"PUT","url":"Coverage/6ece4aa3-5f87-46e1-b340-7c11bbdd7fb0"}},{"fullUrl":"https://madie.cms.gov/Procedure/8df1de7f-67bc-4b19-8aa9-3628202effd5","resource":{"resourceType":"Procedure","id":"8df1de7f-67bc-4b19-8aa9-3628202effd5","meta":{"profile":["http://hl7.org/fhir/us/qicore/StructureDefinition/qicore-procedure"]},"extension":[{"url":"http://hl7.org/fhir/us/qicore/StructureDefinition/qicore-recorded","valueDateTime":"2013-04-05T09:35:00-04:00"}],"status":"completed","code":{"coding":[{"system":"http://www.cms.gov/Medicare/Coding/ICD10","code":"02560ZZ"},{"system":"http://snomed.info/sct","code":"175095005"}]},"subject":{"reference":"Patient/d3373291-bad4-4137-91f8-262e830418b9"},"performedPeriod":{"start":"2025-11-20T06:00:00.000Z","end":"2025-11-20T07:15:00.000Z"}},"request":{"method":"PUT","url":"Procedure/8df1de7f-67bc-4b19-8aa9-3628202effd5"}},{"fullUrl":"https://madie.cms.gov/Condition/7adb6245-78be-4178-ad52-33095c48b593","resource":{"resourceType":"Condition","id":"7adb6245-78be-4178-ad52-33095c48b593","meta":{"profile":["http://hl7.org/fhir/us/qicore/StructureDefinition/qicore-condition"]},"clinicalStatus":{"coding":[{"system":"http://terminology.hl7.org/CodeSystem/condition-clinical","code":"active"}]},"verificationStatus":{"coding":[{"system":"http://terminology.hl7.org/CodeSystem/condition-ver-status","code":"confirmed"}]},"category":[{"coding":[{"system":"http://terminology.hl7.org/CodeSystem/condition-category","code":"encounter-diagnosis","display":"Encounter Diagnosis"}]}],"code":{"coding":[{"system":"http://snomed.info/sct","version":"2021-09","code":"111297002","display":"Nonparalytic stroke (disorder)","userSelected":true}]},"subject":{"reference":"Patient/d3373291-bad4-4137-91f8-262e830418b9"},"recordedDate":"2025-10-13T08:00:00.000+00:00"},"request":{"method":"PUT","url":"Condition/7adb6245-78be-4178-ad52-33095c48b593"}},{"fullUrl":"https://madie.cms.gov/Organization/ace53975-95ef-4028-8b1a-5b4bdabbc1eb","resource":{"resourceType":"Organization","id":"26111c91-b0e2-476c-a20b-e3f39799f8f5","meta":{"profile":["http://hl7.org/fhir/us/qicore/StructureDefinition/qicore-organization"]},"identifier":[{"use":"temp","system":"urn:oid:2.16.840.1.113883.4.4","value":"21-3259825"}],"active":true,"type":[{"coding":[{"system":"http://terminology.hl7.org/CodeSystem/organization-type","code":"pay","display":"Payer"}]}],"name":"Blue Cross Blue Shield of Texas","telecom":[{"system":"phone","value":"(+1) 972-766-6900"}],"address":[{"use":"billing","type":"postal","line":["P.O. Box 660044"],"city":"Dallas","state":"TX","postalCode":"75266-0044","country":"USA"}]},"request":{"method":"PUT","url":"Organization/26111c91-b0e2-476c-a20b-e3f39799f8f5"}},{"fullUrl":"https://madie.cms.gov/MeasureReport/7dcb17b8-667e-46c5-bad0-b7c98ec2deba","resource":{"resourceType":"MeasureReport","id":"7dcb17b8-667e-46c5-bad0-b7c98ec2deba","meta":{"profile":["http://hl7.org/fhir/us/cqfmeasures/StructureDefinition/test-case-cqfm"]},"contained":[{"resourceType":"Parameters","id":"4a97e282-1ace-47d7-8a90-79be40d27734-parameters","parameter":[{"name":"subject","valueString":"d3373291-bad4-4137-91f8-262e830418b9"}]}],"extension":[{"url":"http://hl7.org/fhir/us/cqfmeasures/StructureDefinition/cqfm-inputParameters","valueReference":{"reference":"#4a97e282-1ace-47d7-8a90-79be40d27734-parameters"}},{"url":"http://hl7.org/fhir/us/cqfmeasures/StructureDefinition/cqfm-testCaseDescription","valueMarkdown":"Patient did not receive anticoagulant, patient refused\n"}],"modifierExtension":[{"url":"http://hl7.org/fhir/us/cqfmeasures/StructureDefinition/cqfm-isTestCase","valueBoolean":true}],"status":"complete","type":"individual","measure":"https://madie.cms.gov/Measure/AnticoagulationTherapyforAtrialFibrillationFlutterFHIR","period":{"start":"2025-01-01","end":"2025-12-31"},"group":[{"population":[{"code":{"coding":[{"system":"http://terminology.hl7.org/CodeSystem/measure-population","code":"initial-population","display":"Initial Population"}]},"count":1},{"code":{"coding":[{"system":"http://terminology.hl7.org/CodeSystem/measure-population","code":"denominator","display":"Denominator"}]},"count":1},{"code":{"coding":[{"system":"http://terminology.hl7.org/CodeSystem/measure-population","code":"denominator-exclusion","display":"Denominator Exclusion"}]},"count":0},{"code":{"coding":[{"system":"http://terminology.hl7.org/CodeSystem/measure-population","code":"numerator","display":"Numerator"}]},"count":0},{"code":{"coding":[{"system":"http://terminology.hl7.org/CodeSystem/measure-population","code":"denominator-exception","display":"Denominator Exception"}]},"count":1}]}]},"request":{"method":"PUT","url":"MeasureReport/7dcb17b8-667e-46c5-bad0-b7c98ec2deba"}}]}