{"resourceType":"Bundle","id":"tests-0fc5a0c1-02c0-4427-87d8-2e58f4be7b07-bundle","type":"transaction","entry":[{"fullUrl":"https://madie.cms.gov/Patient/b33c62a0-7fce-45f2-8462-5decd9636798","resource":{"resourceType":"Patient","id":"b33c62a0-7fce-45f2-8462-5decd9636798","meta":{"profile":["http://hl7.org/fhir/us/qicore/StructureDefinition/qicore-patient"]},"text":{"status":"generated","div":"<div xmlns=\"http://www.w3.org/1999/xhtml\"><div class=\"hapiHeaderText\">Age&lt;18 <b>IPPFAIL </b></div><table class=\"hapiPropertyTable\"><tbody><tr><td>Identifier</td><td>ca0f0d86cef05422cfb8f64b99a26e8f</td></tr><tr><td>Date of birth</td><td><span>09 February 1994</span></td></tr></tbody></table></div>"},"extension":[{"url":"http://hl7.org/fhir/us/core/StructureDefinition/us-core-race","extension":[{"url":"ombCategory","valueCoding":{"system":"urn:oid:2.16.840.1.113883.6.238","code":"1002-5","display":"American Indian or Alaska Native","userSelected":true}},{"url":"text","valueString":"American Indian or Alaska Native"}]},{"url":"http://hl7.org/fhir/us/core/StructureDefinition/us-core-ethnicity","extension":[{"url":"ombCategory","valueCoding":{"system":"urn:oid:2.16.840.1.113883.6.238","code":"2135-2","display":"Hispanic or Latino","userSelected":true}},{"url":"text","valueString":"Hispanic or Latino"}]}],"identifier":[{"type":{"coding":[{"system":"http://terminology.hl7.org/CodeSystem/v2-0203","code":"MR"}]},"system":"https://bonnie-fhir.healthit.gov/","value":"633c9d030968f8012250fc70"}],"active":true,"name":[{"use":"usual","family":"IPPFail","given":["Age<18"]}],"gender":"male","birthDate":"2007-02-09"},"request":{"method":"PUT","url":"Patient/b33c62a0-7fce-45f2-8462-5decd9636798"}},{"fullUrl":"https://madie.cms.gov/Encounter/f24a6c61-e002-4745-9899-819a89319744","resource":{"resourceType":"Encounter","id":"f24a6c61-e002-4745-9899-819a89319744","meta":{"profile":["http://hl7.org/fhir/us/qicore/StructureDefinition/qicore-encounter"]},"status":"finished","class":{"system":"http://terminology.hl7.org/CodeSystem/v3-ActCode","code":"IMP","display":"inpatient encounter"},"type":[{"coding":[{"system":"http://snomed.info/sct","code":"32485007"}]}],"subject":{"reference":"Patient/b33c62a0-7fce-45f2-8462-5decd9636798"},"period":{"start":"2025-02-08T08:00:00.000Z","end":"2025-02-10T08:15:00.000Z"},"length":{"value":2,"unit":"days"},"diagnosis":[{"condition":{"reference":"Condition/a3a1c02c-d8ac-4c37-9710-1e90932d2bfc"},"rank":1}]},"request":{"method":"PUT","url":"Encounter/f24a6c61-e002-4745-9899-819a89319744"}},{"fullUrl":"https://madie.cms.gov/Coverage/52327b22-0a00-4e75-b687-5212334a6b8b","resource":{"resourceType":"Coverage","id":"52327b22-0a00-4e75-b687-5212334a6b8b","status":"active","beneficiary":{"reference":"Patient/b33c62a0-7fce-45f2-8462-5decd9636798"},"period":{"start":"1994-02-09T08:00:00.000Z"},"payor":[{"reference":"Organization/26111c91-b0e2-476c-a20b-e3f39799f8f5"}]},"request":{"method":"PUT","url":"Coverage/52327b22-0a00-4e75-b687-5212334a6b8b"}},{"fullUrl":"https://madie.cms.gov/Condition/a3a1c02c-d8ac-4c37-9710-1e90932d2bfc","resource":{"resourceType":"Condition","id":"a3a1c02c-d8ac-4c37-9710-1e90932d2bfc","meta":{"profile":["http://hl7.org/fhir/us/qicore/StructureDefinition/qicore-condition"]},"clinicalStatus":{"coding":[{"system":"http://terminology.hl7.org/CodeSystem/condition-clinical","code":"active"}]},"verificationStatus":{"coding":[{"system":"http://terminology.hl7.org/CodeSystem/condition-ver-status","code":"confirmed"}]},"category":[{"coding":[{"system":"http://terminology.hl7.org/CodeSystem/condition-category","code":"encounter-diagnosis","display":"Encounter Diagnosis"}]}],"code":{"coding":[{"system":"http://snomed.info/sct","version":"2021-09","code":"111297002","display":"Nonparalytic stroke (disorder)","userSelected":true}]},"subject":{"reference":"Patient/b33c62a0-7fce-45f2-8462-5decd9636798"},"recordedDate":"2025-10-13T08:00:00.000+00:00"},"request":{"method":"PUT","url":"Condition/a3a1c02c-d8ac-4c37-9710-1e90932d2bfc"}},{"fullUrl":"https://madie.cms.gov/Organization/ce565a21-12a7-4693-82ea-02cbf089fec0","resource":{"resourceType":"Organization","id":"26111c91-b0e2-476c-a20b-e3f39799f8f5","meta":{"profile":["http://hl7.org/fhir/us/qicore/StructureDefinition/qicore-organization"]},"identifier":[{"use":"temp","system":"urn:oid:2.16.840.1.113883.4.4","value":"21-3259825"}],"active":true,"type":[{"coding":[{"system":"http://terminology.hl7.org/CodeSystem/organization-type","code":"pay","display":"Payer"}]}],"name":"Blue Cross Blue Shield of Texas","telecom":[{"system":"phone","value":"(+1) 972-766-6900"}],"address":[{"use":"billing","type":"postal","line":["P.O. Box 660044"],"city":"Dallas","state":"TX","postalCode":"75266-0044","country":"USA"}]},"request":{"method":"PUT","url":"Organization/26111c91-b0e2-476c-a20b-e3f39799f8f5"}},{"fullUrl":"https://madie.cms.gov/Practitioner/1958ff66-9bd8-4792-9942-55c4a04598e6","resource":{"resourceType":"Practitioner","id":"1958ff66-9bd8-4792-9942-55c4a04598e6","identifier":[{"system":"http://hl7.org/fhir/sid/us-npi","value":"123456"}],"name":[{"family":"Evil","prefix":["Dr"]}]},"request":{"method":"PUT","url":"Practitioner/1958ff66-9bd8-4792-9942-55c4a04598e6"}},{"fullUrl":"https://madie.cms.gov/MeasureReport/e3bd4ac6-5294-4ae7-9130-9efca240fddc","resource":{"resourceType":"MeasureReport","id":"e3bd4ac6-5294-4ae7-9130-9efca240fddc","meta":{"profile":["http://hl7.org/fhir/us/cqfmeasures/StructureDefinition/test-case-cqfm"]},"contained":[{"resourceType":"Parameters","id":"59fbbc1f-0a57-4ab4-bed3-215e1495d4c3-parameters","parameter":[{"name":"subject","valueString":"b33c62a0-7fce-45f2-8462-5decd9636798"}]}],"extension":[{"url":"http://hl7.org/fhir/us/cqfmeasures/StructureDefinition/cqfm-inputParameters","valueReference":{"reference":"#59fbbc1f-0a57-4ab4-bed3-215e1495d4c3-parameters"}},{"url":"http://hl7.org/fhir/us/cqfmeasures/StructureDefinition/cqfm-testCaseDescription","valueMarkdown":"Principal diagnosis = ischemic stroke, patient turns 18 one day after OccurA starts\n"}],"modifierExtension":[{"url":"http://hl7.org/fhir/us/cqfmeasures/StructureDefinition/cqfm-isTestCase","valueBoolean":true}],"status":"complete","type":"individual","measure":"https://madie.cms.gov/Measure/AnticoagulationTherapyforAtrialFibrillationFlutterFHIR","period":{"start":"2025-01-01","end":"2025-12-31"},"group":[{"population":[{"code":{"coding":[{"system":"http://terminology.hl7.org/CodeSystem/measure-population","code":"initial-population","display":"Initial Population"}]},"count":0},{"code":{"coding":[{"system":"http://terminology.hl7.org/CodeSystem/measure-population","code":"denominator","display":"Denominator"}]},"count":0},{"code":{"coding":[{"system":"http://terminology.hl7.org/CodeSystem/measure-population","code":"denominator-exclusion","display":"Denominator Exclusion"}]},"count":0},{"code":{"coding":[{"system":"http://terminology.hl7.org/CodeSystem/measure-population","code":"numerator","display":"Numerator"}]},"count":0},{"code":{"coding":[{"system":"http://terminology.hl7.org/CodeSystem/measure-population","code":"denominator-exception","display":"Denominator Exception"}]},"count":0}]}]},"request":{"method":"PUT","url":"MeasureReport/e3bd4ac6-5294-4ae7-9130-9efca240fddc"}}]}