{"resourceType":"Bundle","id":"tests-fb49e13d-3b13-46ae-8862-59033137e1b8-bundle","type":"transaction","entry":[{"fullUrl":"https://madie.cms.gov/Patient/d59da01a-f1b6-4239-8345-ecd4b2359ad2","resource":{"resourceType":"Patient","id":"d59da01a-f1b6-4239-8345-ecd4b2359ad2","meta":{"profile":["http://hl7.org/fhir/us/qicore/StructureDefinition/qicore-patient"]},"text":{"status":"generated","div":"<div xmlns=\"http://www.w3.org/1999/xhtml\"><div class=\"hapiHeaderText\">MedRsnStartTmLTEncAdmTm <b>DENEXCEPFAIL </b></div><table class=\"hapiPropertyTable\"><tbody><tr><td>Identifier</td><td>8a884ee78cd24d8c9b5a7d8bd151cd79</td></tr><tr><td>Date of birth</td><td><span>23 May 1954</span></td></tr></tbody></table></div>"},"extension":[{"url":"http://hl7.org/fhir/us/core/StructureDefinition/us-core-race","extension":[{"url":"ombCategory","valueCoding":{"system":"urn:oid:2.16.840.1.113883.6.238","code":"1002-5","display":"American Indian or Alaska Native","userSelected":true}},{"url":"text","valueString":"American Indian or Alaska Native"}]},{"url":"http://hl7.org/fhir/us/core/StructureDefinition/us-core-ethnicity","extension":[{"url":"ombCategory","valueCoding":{"system":"urn:oid:2.16.840.1.113883.6.238","code":"2135-2","display":"Hispanic or Latino","userSelected":true}},{"url":"text","valueString":"Hispanic or Latino"}]}],"identifier":[{"type":{"coding":[{"system":"http://terminology.hl7.org/CodeSystem/v2-0203","code":"MR"}]},"system":"https://bonnie-fhir.healthit.gov/","value":"633c9d030968f8012250fc8e"}],"active":true,"name":[{"use":"usual","family":"DENEXCEPFail","given":["MedRsnStartTmLTEncAdmTm"]}],"gender":"female","birthDate":"1954-05-23"},"request":{"method":"PUT","url":"Patient/d59da01a-f1b6-4239-8345-ecd4b2359ad2"}},{"fullUrl":"https://madie.cms.gov/Encounter/49e9edfd-97ed-46fc-b4c1-f825c154226b","resource":{"resourceType":"Encounter","id":"49e9edfd-97ed-46fc-b4c1-f825c154226b","meta":{"profile":["http://hl7.org/fhir/us/qicore/StructureDefinition/qicore-encounter"]},"status":"finished","class":{"system":"http://terminology.hl7.org/CodeSystem/v3-ActCode","code":"IMP","display":"inpatient encounter"},"type":[{"coding":[{"system":"http://snomed.info/sct","code":"32485007"}]}],"subject":{"reference":"Patient/d59da01a-f1b6-4239-8345-ecd4b2359ad2"},"period":{"start":"2025-11-20T07:16:00.000Z","end":"2025-11-22T08:15:00.000Z"},"length":{"value":2,"unit":"days"},"diagnosis":[{"condition":{"reference":"Condition/02be5d90-501d-4864-9631-ec185e686967"},"use":{"coding":[{"system":"http://terminology.hl7.org/CodeSystem/diagnosis-role","code":"billing","display":"Billing"}]},"rank":1}]},"request":{"method":"PUT","url":"Encounter/49e9edfd-97ed-46fc-b4c1-f825c154226b"}},{"fullUrl":"https://madie.cms.gov/MedicationRequest/72417d24-2520-43d8-9b27-03e8c7dc5550","resource":{"resourceType":"MedicationRequest","id":"72417d24-2520-43d8-9b27-03e8c7dc5550","meta":{"profile":["http://hl7.org/fhir/us/qicore/StructureDefinition/qicore-mednotrequested"]},"status":"completed","intent":"order","category":[{"coding":[{"system":"http://terminology.hl7.org/CodeSystem/medicationrequest-category","code":"community"}]}],"doNotPerform":true,"medicationCodeableConcept":{"coding":[{"system":"http://www.nlm.nih.gov/research/umls/rxnorm","code":"1037045"}]},"subject":{"reference":"Patient/d59da01a-f1b6-4239-8345-ecd4b2359ad2"},"authoredOn":"2025-11-20T07:15:00.000+00:00","requester":{"reference":"Practitioner/example"},"reasonCode":[{"coding":[{"system":"http://snomed.info/sct","code":"183932001"}]}]},"request":{"method":"PUT","url":"MedicationRequest/72417d24-2520-43d8-9b27-03e8c7dc5550"}},{"fullUrl":"https://madie.cms.gov/Coverage/56429ed8-7d53-48f9-9adc-c6d7e7f0438e","resource":{"resourceType":"Coverage","id":"56429ed8-7d53-48f9-9adc-c6d7e7f0438e","status":"active","beneficiary":{"reference":"Patient/d59da01a-f1b6-4239-8345-ecd4b2359ad2"},"period":{"start":"1954-05-23T08:00:00.000Z"},"payor":[{"reference":"Organization/26111c91-b0e2-476c-a20b-e3f39799f8f5"}]},"request":{"method":"PUT","url":"Coverage/56429ed8-7d53-48f9-9adc-c6d7e7f0438e"}},{"fullUrl":"https://madie.cms.gov/Procedure/3accbe20-fe2c-4d76-852a-d6263f1254ab","resource":{"resourceType":"Procedure","id":"3accbe20-fe2c-4d76-852a-d6263f1254ab","meta":{"profile":["http://hl7.org/fhir/us/qicore/StructureDefinition/qicore-procedure"]},"extension":[{"url":"http://hl7.org/fhir/us/qicore/StructureDefinition/qicore-recorded","valueDateTime":"2013-04-05T09:35:00-04:00"}],"status":"completed","code":{"coding":[{"system":"http://www.cms.gov/Medicare/Coding/ICD10","code":"02560ZZ"},{"system":"http://snomed.info/sct","code":"175095005"}]},"subject":{"reference":"Patient/d59da01a-f1b6-4239-8345-ecd4b2359ad2"},"performedPeriod":{"start":"2025-11-20T07:15:00.000Z","end":"2025-11-20T07:16:00.000Z"}},"request":{"method":"PUT","url":"Procedure/3accbe20-fe2c-4d76-852a-d6263f1254ab"}},{"fullUrl":"https://madie.cms.gov/Condition/02be5d90-501d-4864-9631-ec185e686967","resource":{"resourceType":"Condition","id":"02be5d90-501d-4864-9631-ec185e686967","meta":{"profile":["http://hl7.org/fhir/us/qicore/StructureDefinition/qicore-condition"]},"clinicalStatus":{"coding":[{"system":"http://terminology.hl7.org/CodeSystem/condition-clinical","code":"active"}]},"verificationStatus":{"coding":[{"system":"http://terminology.hl7.org/CodeSystem/condition-ver-status","code":"confirmed"}]},"category":[{"coding":[{"system":"http://terminology.hl7.org/CodeSystem/condition-category","code":"encounter-diagnosis","display":"Encounter Diagnosis"}]}],"code":{"coding":[{"system":"http://snomed.info/sct","version":"2021-09","code":"111297002","display":"Nonparalytic stroke (disorder)","userSelected":true}]},"subject":{"reference":"Patient/d59da01a-f1b6-4239-8345-ecd4b2359ad2"},"recordedDate":"2025-10-13T08:00:00.000+00:00"},"request":{"method":"PUT","url":"Condition/02be5d90-501d-4864-9631-ec185e686967"}},{"fullUrl":"https://madie.cms.gov/Organization/46221eb8-1a5e-4ef4-84fe-241a6a3b6ebb","resource":{"resourceType":"Organization","id":"26111c91-b0e2-476c-a20b-e3f39799f8f5","meta":{"profile":["http://hl7.org/fhir/us/qicore/StructureDefinition/qicore-organization"]},"identifier":[{"use":"temp","system":"urn:oid:2.16.840.1.113883.4.4","value":"21-3259825"}],"active":true,"type":[{"coding":[{"system":"http://terminology.hl7.org/CodeSystem/organization-type","code":"pay","display":"Payer"}]}],"name":"Blue Cross Blue Shield of Texas","telecom":[{"system":"phone","value":"(+1) 972-766-6900"}],"address":[{"use":"billing","type":"postal","line":["P.O. Box 660044"],"city":"Dallas","state":"TX","postalCode":"75266-0044","country":"USA"}]},"request":{"method":"PUT","url":"Organization/26111c91-b0e2-476c-a20b-e3f39799f8f5"}},{"fullUrl":"https://madie.cms.gov/MeasureReport/912c8cfc-1247-4659-a7fd-b4b2912d9d22","resource":{"resourceType":"MeasureReport","id":"912c8cfc-1247-4659-a7fd-b4b2912d9d22","meta":{"profile":["http://hl7.org/fhir/us/cqfmeasures/StructureDefinition/test-case-cqfm"]},"contained":[{"resourceType":"Parameters","id":"0181f833-3dbc-4320-b29b-e945913ffad1-parameters","parameter":[{"name":"subject","valueString":"d59da01a-f1b6-4239-8345-ecd4b2359ad2"}]}],"extension":[{"url":"http://hl7.org/fhir/us/cqfmeasures/StructureDefinition/cqfm-inputParameters","valueReference":{"reference":"#0181f833-3dbc-4320-b29b-e945913ffad1-parameters"}},{"url":"http://hl7.org/fhir/us/cqfmeasures/StructureDefinition/cqfm-testCaseDescription","valueMarkdown":"Patient did not receive anticoagulant on dc due to medical reason, but start date is before start of OccurA\n"}],"modifierExtension":[{"url":"http://hl7.org/fhir/us/cqfmeasures/StructureDefinition/cqfm-isTestCase","valueBoolean":true}],"status":"complete","type":"individual","measure":"https://madie.cms.gov/Measure/AnticoagulationTherapyforAtrialFibrillationFlutterFHIR","period":{"start":"2025-01-01","end":"2025-12-31"},"group":[{"population":[{"code":{"coding":[{"system":"http://terminology.hl7.org/CodeSystem/measure-population","code":"initial-population","display":"Initial Population"}]},"count":1},{"code":{"coding":[{"system":"http://terminology.hl7.org/CodeSystem/measure-population","code":"denominator","display":"Denominator"}]},"count":1},{"code":{"coding":[{"system":"http://terminology.hl7.org/CodeSystem/measure-population","code":"denominator-exclusion","display":"Denominator Exclusion"}]},"count":0},{"code":{"coding":[{"system":"http://terminology.hl7.org/CodeSystem/measure-population","code":"numerator","display":"Numerator"}]},"count":0},{"code":{"coding":[{"system":"http://terminology.hl7.org/CodeSystem/measure-population","code":"denominator-exception","display":"Denominator Exception"}]},"count":0}]}]},"request":{"method":"PUT","url":"MeasureReport/912c8cfc-1247-4659-a7fd-b4b2912d9d22"}}]}