{"resourceType":"Bundle","id":"tests-02ee41e8-26d8-4575-a999-32ee2204d745-bundle","type":"transaction","entry":[{"fullUrl":"https://madie.cms.gov/Patient/c47d93c5-d8de-44b1-b457-63103b10f385","resource":{"resourceType":"Patient","id":"c47d93c5-d8de-44b1-b457-63103b10f385","meta":{"profile":["http://hl7.org/fhir/us/qicore/StructureDefinition/qicore-patient"]},"text":{"status":"generated","div":"<div xmlns=\"http://www.w3.org/1999/xhtml\"><div class=\"hapiHeaderText\">AMA <b>DENEXPASS </b></div><table class=\"hapiPropertyTable\"><tbody><tr><td>Identifier</td><td>b38296647323cdc7f628f752ac1b84d0</td></tr><tr><td>Date of birth</td><td><span>31 July 1969</span></td></tr></tbody></table></div>"},"extension":[{"url":"http://hl7.org/fhir/us/core/StructureDefinition/us-core-race","extension":[{"url":"ombCategory","valueCoding":{"system":"urn:oid:2.16.840.1.113883.6.238","code":"1002-5","display":"American Indian or Alaska Native","userSelected":true}},{"url":"text","valueString":"American Indian or Alaska Native"}]},{"url":"http://hl7.org/fhir/us/core/StructureDefinition/us-core-ethnicity","extension":[{"url":"ombCategory","valueCoding":{"system":"urn:oid:2.16.840.1.113883.6.238","code":"2135-2","display":"Hispanic or Latino","userSelected":true}},{"url":"text","valueString":"Hispanic or Latino"}]}],"identifier":[{"type":{"coding":[{"system":"http://terminology.hl7.org/CodeSystem/v2-0203","code":"MR"}]},"system":"https://bonnie-fhir.healthit.gov/","value":"633c9d020968f8012250fc64"}],"active":true,"name":[{"use":"usual","family":"DENEXPass","given":["AMA"]}],"gender":"male","birthDate":"1969-07-31"},"request":{"method":"PUT","url":"Patient/c47d93c5-d8de-44b1-b457-63103b10f385"}},{"fullUrl":"https://madie.cms.gov/Encounter/45089a04-574e-46b4-82dc-c5683b9c9a48","resource":{"resourceType":"Encounter","id":"45089a04-574e-46b4-82dc-c5683b9c9a48","meta":{"profile":["http://hl7.org/fhir/us/qicore/StructureDefinition/qicore-encounter"]},"status":"finished","class":{"system":"http://terminology.hl7.org/CodeSystem/v3-ActCode","code":"IMP","display":"inpatient encounter"},"type":[{"coding":[{"system":"http://snomed.info/sct","code":"32485007"}]}],"subject":{"reference":"Patient/c47d93c5-d8de-44b1-b457-63103b10f385"},"period":{"start":"2025-11-20T08:00:00.000Z","end":"2025-11-24T08:15:00.000Z"},"length":{"value":4,"unit":"days"},"diagnosis":[{"condition":{"reference":"Condition/826816c2-491f-4f37-8e51-81fb06e7601b"},"use":{"coding":[{"system":"http://terminology.hl7.org/CodeSystem/diagnosis-role","code":"billing","display":"Billing"}]},"rank":1}],"hospitalization":{"dischargeDisposition":{"coding":[{"system":"http://snomed.info/sct","code":"445060000","display":"Left Against Medical Advice"}]}}},"request":{"method":"PUT","url":"Encounter/45089a04-574e-46b4-82dc-c5683b9c9a48"}},{"fullUrl":"https://madie.cms.gov/Coverage/d969cbdd-bf3a-40a0-99d0-8605761d0de0","resource":{"resourceType":"Coverage","id":"d969cbdd-bf3a-40a0-99d0-8605761d0de0","status":"active","beneficiary":{"reference":"Patient/c47d93c5-d8de-44b1-b457-63103b10f385"},"period":{"start":"1969-07-31T08:00:00.000Z"},"payor":[{"reference":"Organization/26111c91-b0e2-476c-a20b-e3f39799f8f5"}]},"request":{"method":"PUT","url":"Coverage/d969cbdd-bf3a-40a0-99d0-8605761d0de0"}},{"fullUrl":"https://madie.cms.gov/Procedure/d94797a4-d488-4227-a576-a7bd5d3c7b7a","resource":{"resourceType":"Procedure","id":"d94797a4-d488-4227-a576-a7bd5d3c7b7a","meta":{"profile":["http://hl7.org/fhir/us/qicore/StructureDefinition/qicore-procedure"]},"extension":[{"url":"http://hl7.org/fhir/us/qicore/StructureDefinition/qicore-recorded","valueDateTime":"2025-11-19T09:35:00-04:00"}],"status":"completed","code":{"coding":[{"system":"http://www.cms.gov/Medicare/Coding/ICD10","code":"02560ZZ"},{"system":"http://snomed.info/sct","code":"175095005"}]},"subject":{"reference":"Patient/c47d93c5-d8de-44b1-b457-63103b10f385"},"performedPeriod":{"start":"2025-11-19T08:00:00.000Z","end":"2025-11-20T08:15:00.000Z"}},"request":{"method":"PUT","url":"Procedure/d94797a4-d488-4227-a576-a7bd5d3c7b7a"}},{"fullUrl":"https://madie.cms.gov/Condition/826816c2-491f-4f37-8e51-81fb06e7601b","resource":{"resourceType":"Condition","id":"826816c2-491f-4f37-8e51-81fb06e7601b","meta":{"profile":["http://hl7.org/fhir/us/qicore/StructureDefinition/qicore-condition"]},"clinicalStatus":{"coding":[{"system":"http://terminology.hl7.org/CodeSystem/condition-clinical","code":"active"}]},"verificationStatus":{"coding":[{"system":"http://terminology.hl7.org/CodeSystem/condition-ver-status","code":"confirmed"}]},"category":[{"coding":[{"system":"http://terminology.hl7.org/CodeSystem/condition-category","code":"encounter-diagnosis","display":"Encounter Diagnosis"}]}],"code":{"coding":[{"system":"http://snomed.info/sct","version":"2021-09","code":"111297002","display":"Nonparalytic stroke (disorder)","userSelected":true}]},"subject":{"reference":"Patient/c47d93c5-d8de-44b1-b457-63103b10f385"},"recordedDate":"2025-10-04T08:00:00.000+00:00"},"request":{"method":"PUT","url":"Condition/826816c2-491f-4f37-8e51-81fb06e7601b"}},{"fullUrl":"https://madie.cms.gov/Organization/75320734-8959-4a07-87b7-1797d6c60562","resource":{"resourceType":"Organization","id":"26111c91-b0e2-476c-a20b-e3f39799f8f5","meta":{"profile":["http://hl7.org/fhir/us/qicore/StructureDefinition/qicore-organization"]},"identifier":[{"use":"temp","system":"urn:oid:2.16.840.1.113883.4.4","value":"21-3259825"}],"active":true,"type":[{"coding":[{"system":"http://terminology.hl7.org/CodeSystem/organization-type","code":"pay","display":"Payer"}]}],"name":"Blue Cross Blue Shield of Texas","telecom":[{"system":"phone","value":"(+1) 972-766-6900"}],"address":[{"use":"billing","type":"postal","line":["P.O. Box 660044"],"city":"Dallas","state":"TX","postalCode":"75266-0044","country":"USA"}]},"request":{"method":"PUT","url":"Organization/26111c91-b0e2-476c-a20b-e3f39799f8f5"}},{"fullUrl":"https://madie.cms.gov/Practitioner/e8f734c8-247b-45ce-847c-3a5b8d057870","resource":{"resourceType":"Practitioner","id":"e8f734c8-247b-45ce-847c-3a5b8d057870","identifier":[{"system":"http://hl7.org/fhir/sid/us-npi","value":"123456"}],"name":[{"family":"Evil","prefix":["Dr"]}]},"request":{"method":"PUT","url":"Practitioner/e8f734c8-247b-45ce-847c-3a5b8d057870"}},{"fullUrl":"https://madie.cms.gov/MeasureReport/c9515069-c01b-4fbf-8662-5b60df2e4196","resource":{"resourceType":"MeasureReport","id":"c9515069-c01b-4fbf-8662-5b60df2e4196","meta":{"profile":["http://hl7.org/fhir/us/cqfmeasures/StructureDefinition/test-case-cqfm"]},"contained":[{"resourceType":"Parameters","id":"11617a5f-3897-437f-a41a-7f14bce51ad5-parameters","parameter":[{"name":"subject","valueString":"c47d93c5-d8de-44b1-b457-63103b10f385"}]}],"extension":[{"url":"http://hl7.org/fhir/us/cqfmeasures/StructureDefinition/cqfm-inputParameters","valueReference":{"reference":"#11617a5f-3897-437f-a41a-7f14bce51ad5-parameters"}},{"url":"http://hl7.org/fhir/us/cqfmeasures/StructureDefinition/cqfm-testCaseDescription","valueMarkdown":"Patient left AMA, so meets denominator exclusion criteria. \n"}],"modifierExtension":[{"url":"http://hl7.org/fhir/us/cqfmeasures/StructureDefinition/cqfm-isTestCase","valueBoolean":true}],"status":"complete","type":"individual","measure":"https://madie.cms.gov/Measure/AnticoagulationTherapyforAtrialFibrillationFlutterFHIR","period":{"start":"2025-01-01","end":"2025-12-31"},"group":[{"population":[{"code":{"coding":[{"system":"http://terminology.hl7.org/CodeSystem/measure-population","code":"initial-population","display":"Initial Population"}]},"count":1},{"code":{"coding":[{"system":"http://terminology.hl7.org/CodeSystem/measure-population","code":"denominator","display":"Denominator"}]},"count":1},{"code":{"coding":[{"system":"http://terminology.hl7.org/CodeSystem/measure-population","code":"denominator-exclusion","display":"Denominator Exclusion"}]},"count":1},{"code":{"coding":[{"system":"http://terminology.hl7.org/CodeSystem/measure-population","code":"numerator","display":"Numerator"}]},"count":0},{"code":{"coding":[{"system":"http://terminology.hl7.org/CodeSystem/measure-population","code":"denominator-exception","display":"Denominator Exception"}]},"count":0}]}]},"request":{"method":"PUT","url":"MeasureReport/c9515069-c01b-4fbf-8662-5b60df2e4196"}}]}