{"resourceType":"Bundle","id":"tests-0c90d2ea-5034-4465-8e4a-4d0d4e17cd5a-bundle","type":"transaction","entry":[{"fullUrl":"https://madie.cms.gov/Patient/9afef2e6-6c54-471c-ad32-e6d1241874ce","resource":{"resourceType":"Patient","id":"9afef2e6-6c54-471c-ad32-e6d1241874ce","meta":{"profile":["http://hl7.org/fhir/us/qicore/StructureDefinition/qicore-patient"]},"text":{"status":"generated","div":"<div xmlns=\"http://www.w3.org/1999/xhtml\"><div class=\"hapiHeaderText\">CMOdurED_ED&gt;1hrObs&gt;1hrBFEnc <b>DENEXFAIL </b></div><table class=\"hapiPropertyTable\"><tbody><tr><td>Identifier</td><td>b071f8846ebde5085dfbfab832ea39a12264592e0d7b151bd51d996298ce6f35</td></tr><tr><td>Date of birth</td><td><span>18 September 1985</span></td></tr></tbody></table></div>"},"extension":[{"url":"http://hl7.org/fhir/us/core/StructureDefinition/us-core-race","extension":[{"url":"ombCategory","valueCoding":{"system":"urn:oid:2.16.840.1.113883.6.238","code":"1002-5","display":"American Indian or Alaska Native","userSelected":true}},{"url":"text","valueString":"American Indian or Alaska Native"}]},{"url":"http://hl7.org/fhir/us/core/StructureDefinition/us-core-ethnicity","extension":[{"url":"ombCategory","valueCoding":{"system":"urn:oid:2.16.840.1.113883.6.238","code":"2135-2","display":"Hispanic or Latino","userSelected":true}},{"url":"text","valueString":"Hispanic or Latino"}]}],"identifier":[{"type":{"coding":[{"system":"http://terminology.hl7.org/CodeSystem/v2-0203","code":"MR"}]},"system":"https://bonnie-fhir.healthit.gov/","value":"633c9d040968f8012250fca7"}],"active":true,"name":[{"use":"usual","family":"DENEXFail","given":["CMOdurED_ED>1hrObs>1hrBFEnc"]}],"gender":"female","birthDate":"1985-09-18"},"request":{"method":"PUT","url":"Patient/9afef2e6-6c54-471c-ad32-e6d1241874ce"}},{"fullUrl":"https://madie.cms.gov/Condition/61bb4618-e19a-4b41-89cc-125be401496f","resource":{"resourceType":"Condition","id":"61bb4618-e19a-4b41-89cc-125be401496f","meta":{"profile":["http://hl7.org/fhir/us/qicore/StructureDefinition/qicore-condition"]},"clinicalStatus":{"coding":[{"system":"http://terminology.hl7.org/CodeSystem/condition-clinical","code":"inactive"}]},"verificationStatus":{"coding":[{"system":"http://terminology.hl7.org/CodeSystem/condition-ver-status","code":"confirmed"}]},"category":[{"coding":[{"system":"http://terminology.hl7.org/CodeSystem/condition-category","code":"encounter-diagnosis","display":"Encounter Diagnosis"}]}],"code":{"coding":[{"system":"http://hl7.org/fhir/sid/icd-9-cm","code":"427.31"},{"system":"http://hl7.org/fhir/sid/icd-10-cm","code":"I48.0"},{"system":"http://snomed.info/sct","code":"5370000"}]},"subject":{"reference":"Patient/9afef2e6-6c54-471c-ad32-e6d1241874ce"},"onsetDateTime":"2025-10-01T09:00:00.000Z","abatementDateTime":"2025-10-12T00:15:00.000Z"},"request":{"method":"PUT","url":"Condition/61bb4618-e19a-4b41-89cc-125be401496f"}},{"fullUrl":"https://madie.cms.gov/Encounter/3b16e5cd-e110-4abc-b6ac-29d3a2b54469","resource":{"resourceType":"Encounter","id":"3b16e5cd-e110-4abc-b6ac-29d3a2b54469","meta":{"profile":["http://hl7.org/fhir/us/qicore/StructureDefinition/qicore-encounter"]},"status":"finished","class":{"system":"http://terminology.hl7.org/CodeSystem/v3-ActCode","code":"EMER","display":"emergency"},"type":[{"coding":[{"system":"http://snomed.info/sct","code":"4525004"}]}],"subject":{"reference":"Patient/9afef2e6-6c54-471c-ad32-e6d1241874ce"},"period":{"start":"2025-09-30T06:59:00.000Z","end":"2025-09-30T07:00:00.000Z"},"length":{"value":0,"unit":"days"}},"request":{"method":"PUT","url":"Encounter/3b16e5cd-e110-4abc-b6ac-29d3a2b54469"}},{"fullUrl":"https://madie.cms.gov/Encounter/9551e589-0b27-4136-b414-838194649ada","resource":{"resourceType":"Encounter","id":"9551e589-0b27-4136-b414-838194649ada","meta":{"profile":["http://hl7.org/fhir/us/qicore/StructureDefinition/qicore-encounter"]},"status":"finished","class":{"system":"http://terminology.hl7.org/CodeSystem/v3-ActCode","code":"OBSENC","display":"observation encounter"},"type":[{"coding":[{"system":"http://snomed.info/sct","code":"448851000124103"}]}],"subject":{"reference":"Patient/9afef2e6-6c54-471c-ad32-e6d1241874ce"},"period":{"start":"2025-09-30T08:01:00.000Z","end":"2025-09-30T08:05:00.000Z"},"length":{"value":0,"unit":"days"}},"request":{"method":"PUT","url":"Encounter/9551e589-0b27-4136-b414-838194649ada"}},{"fullUrl":"https://madie.cms.gov/Encounter/f4a85332-66e2-48da-b07b-783b540cee0f","resource":{"resourceType":"Encounter","id":"f4a85332-66e2-48da-b07b-783b540cee0f","meta":{"profile":["http://hl7.org/fhir/us/qicore/StructureDefinition/qicore-encounter"]},"status":"finished","class":{"system":"http://terminology.hl7.org/CodeSystem/v3-ActCode","code":"IMP","display":"inpatient encounter"},"type":[{"coding":[{"system":"http://snomed.info/sct","code":"32485007"}]}],"subject":{"reference":"Patient/9afef2e6-6c54-471c-ad32-e6d1241874ce"},"period":{"start":"2025-09-30T09:06:00.000Z","end":"2025-10-12T00:15:00.000Z"},"length":{"value":12,"unit":"days"},"diagnosis":[{"condition":{"reference":"Condition/86ade636-0c0b-4b5f-ab3c-93de3ce6ff02"},"use":{"coding":[{"system":"http://terminology.hl7.org/CodeSystem/diagnosis-role","code":"billing","display":"Billing"}]},"rank":1}],"hospitalization":{"dischargeDisposition":{"coding":[{"system":"http://snomed.info/sct","code":"10161009","display":"Discharge To Home Or Police Custody"}]}}},"request":{"method":"PUT","url":"Encounter/f4a85332-66e2-48da-b07b-783b540cee0f"}},{"fullUrl":"https://madie.cms.gov/ServiceRequest/d9054834-21f8-4563-8a0b-7cd9176ed953","resource":{"resourceType":"ServiceRequest","id":"d9054834-21f8-4563-8a0b-7cd9176ed953","meta":{"profile":["http://hl7.org/fhir/us/qicore/StructureDefinition/qicore-servicerequest"]},"status":"active","intent":"order","code":{"coding":[{"system":"http://snomed.info/sct","code":"133918004"}]},"subject":{"reference":"Patient/9afef2e6-6c54-471c-ad32-e6d1241874ce"},"authoredOn":"2025-09-30T06:59:00.000+00:00"},"request":{"method":"PUT","url":"ServiceRequest/d9054834-21f8-4563-8a0b-7cd9176ed953"}},{"fullUrl":"https://madie.cms.gov/Coverage/2236676d-88d2-42ae-b330-68b88ba35fa3","resource":{"resourceType":"Coverage","id":"2236676d-88d2-42ae-b330-68b88ba35fa3","status":"active","beneficiary":{"reference":"Patient/9afef2e6-6c54-471c-ad32-e6d1241874ce"},"period":{"start":"1985-09-18T08:00:00.000Z"},"payor":[{"reference":"Organization/26111c91-b0e2-476c-a20b-e3f39799f8f5"}]},"request":{"method":"PUT","url":"Coverage/2236676d-88d2-42ae-b330-68b88ba35fa3"}},{"fullUrl":"https://madie.cms.gov/Condition/86ade636-0c0b-4b5f-ab3c-93de3ce6ff02","resource":{"resourceType":"Condition","id":"86ade636-0c0b-4b5f-ab3c-93de3ce6ff02","meta":{"profile":["http://hl7.org/fhir/us/qicore/StructureDefinition/qicore-condition"]},"clinicalStatus":{"coding":[{"system":"http://terminology.hl7.org/CodeSystem/condition-clinical","code":"active"}]},"verificationStatus":{"coding":[{"system":"http://terminology.hl7.org/CodeSystem/condition-ver-status","code":"confirmed"}]},"category":[{"coding":[{"system":"http://terminology.hl7.org/CodeSystem/condition-category","code":"encounter-diagnosis","display":"Encounter Diagnosis"}]}],"code":{"coding":[{"system":"http://snomed.info/sct","version":"2021-09","code":"111297002","display":"Nonparalytic stroke (disorder)","userSelected":true}]},"subject":{"reference":"Patient/9afef2e6-6c54-471c-ad32-e6d1241874ce"},"recordedDate":"2025-10-13T08:00:00.000+00:00"},"request":{"method":"PUT","url":"Condition/86ade636-0c0b-4b5f-ab3c-93de3ce6ff02"}},{"fullUrl":"https://madie.cms.gov/Organization/91253fe5-3de7-425e-9ad3-0ee2aa6bcb59","resource":{"resourceType":"Organization","id":"26111c91-b0e2-476c-a20b-e3f39799f8f5","meta":{"profile":["http://hl7.org/fhir/us/qicore/StructureDefinition/qicore-organization"]},"identifier":[{"use":"temp","system":"urn:oid:2.16.840.1.113883.4.4","value":"21-3259825"}],"active":true,"type":[{"coding":[{"system":"http://terminology.hl7.org/CodeSystem/organization-type","code":"pay","display":"Payer"}]}],"name":"Blue Cross Blue Shield of Texas","telecom":[{"system":"phone","value":"(+1) 972-766-6900"}],"address":[{"use":"billing","type":"postal","line":["P.O. Box 660044"],"city":"Dallas","state":"TX","postalCode":"75266-0044","country":"USA"}]},"request":{"method":"PUT","url":"Organization/26111c91-b0e2-476c-a20b-e3f39799f8f5"}},{"fullUrl":"https://madie.cms.gov/Practitioner/b5d35637-32f2-40b0-9c82-a3c9bbd2cedc","resource":{"resourceType":"Practitioner","id":"b5d35637-32f2-40b0-9c82-a3c9bbd2cedc","identifier":[{"system":"http://hl7.org/fhir/sid/us-npi","value":"123456"}],"name":[{"family":"Evil","prefix":["Dr"]}]},"request":{"method":"PUT","url":"Practitioner/b5d35637-32f2-40b0-9c82-a3c9bbd2cedc"}},{"fullUrl":"https://madie.cms.gov/MeasureReport/0fccd077-f2fe-4318-bb26-748bf670c613","resource":{"resourceType":"MeasureReport","id":"0fccd077-f2fe-4318-bb26-748bf670c613","meta":{"profile":["http://hl7.org/fhir/us/cqfmeasures/StructureDefinition/test-case-cqfm"]},"contained":[{"resourceType":"Parameters","id":"af515427-4b7d-4e47-9bf8-1ca48a3490fc-parameters","parameter":[{"name":"subject","valueString":"9afef2e6-6c54-471c-ad32-e6d1241874ce"}]}],"extension":[{"url":"http://hl7.org/fhir/us/cqfmeasures/StructureDefinition/cqfm-inputParameters","valueReference":{"reference":"#af515427-4b7d-4e47-9bf8-1ca48a3490fc-parameters"}},{"url":"http://hl7.org/fhir/us/cqfmeasures/StructureDefinition/cqfm-testCaseDescription","valueMarkdown":"Patient receives CMO order during ED. ED visit ends 61 min. before Obs start, Obs ends 61 min before Inpatient encounter. Testing HospitalizationWithObservation function.\n"}],"modifierExtension":[{"url":"http://hl7.org/fhir/us/cqfmeasures/StructureDefinition/cqfm-isTestCase","valueBoolean":true}],"status":"complete","type":"individual","measure":"https://madie.cms.gov/Measure/AnticoagulationTherapyforAtrialFibrillationFlutterFHIR","period":{"start":"2025-01-01","end":"2025-12-31"},"group":[{"population":[{"code":{"coding":[{"system":"http://terminology.hl7.org/CodeSystem/measure-population","code":"initial-population","display":"Initial Population"}]},"count":1},{"code":{"coding":[{"system":"http://terminology.hl7.org/CodeSystem/measure-population","code":"denominator","display":"Denominator"}]},"count":1},{"code":{"coding":[{"system":"http://terminology.hl7.org/CodeSystem/measure-population","code":"denominator-exclusion","display":"Denominator Exclusion"}]},"count":0},{"code":{"coding":[{"system":"http://terminology.hl7.org/CodeSystem/measure-population","code":"numerator","display":"Numerator"}]},"count":0},{"code":{"coding":[{"system":"http://terminology.hl7.org/CodeSystem/measure-population","code":"denominator-exception","display":"Denominator Exception"}]},"count":0}]}]},"request":{"method":"PUT","url":"MeasureReport/0fccd077-f2fe-4318-bb26-748bf670c613"}}]}