{"resourceType":"Bundle","id":"tests-60216757-e9a7-4e33-90f4-d0b1212bdea9-bundle","type":"transaction","entry":[{"fullUrl":"https://madie.cms.gov/Patient/db6495a1-53dc-435d-b85b-1ad67734310d","resource":{"resourceType":"Patient","id":"db6495a1-53dc-435d-b85b-1ad67734310d","meta":{"profile":["http://hl7.org/fhir/us/qicore/StructureDefinition/qicore-patient"]},"text":{"status":"generated","div":"<div xmlns=\"http://www.w3.org/1999/xhtml\"><div class=\"hapiHeaderText\">DxAfibAtEncEndTimeRelePer <b>DENOMPASS </b></div><table class=\"hapiPropertyTable\"><tbody><tr><td>Identifier</td><td>5a408ee0f4b76e6dba49aa216933f4fd3c68886efc9f6296ba7db457bf6444a8</td></tr><tr><td>Date of birth</td><td><span>01 December 1960</span></td></tr></tbody></table></div>"},"extension":[{"url":"http://hl7.org/fhir/us/core/StructureDefinition/us-core-race","extension":[{"url":"ombCategory","valueCoding":{"system":"urn:oid:2.16.840.1.113883.6.238","code":"1002-5","display":"American Indian or Alaska Native","userSelected":true}},{"url":"text","valueString":"American Indian or Alaska Native"}]},{"url":"http://hl7.org/fhir/us/core/StructureDefinition/us-core-ethnicity","extension":[{"url":"ombCategory","valueCoding":{"system":"urn:oid:2.16.840.1.113883.6.238","code":"2135-2","display":"Hispanic or Latino","userSelected":true}},{"url":"text","valueString":"Hispanic or Latino"}]}],"identifier":[{"type":{"coding":[{"system":"http://terminology.hl7.org/CodeSystem/v2-0203","code":"MR"}]},"system":"https://bonnie-fhir.healthit.gov/","value":"633c9d040968f8012250fca1"}],"active":true,"name":[{"use":"usual","family":"DENOMPass","given":["DxAfibAtEncEndTimeRelePer"]}],"gender":"male","birthDate":"1960-12-01"},"request":{"method":"PUT","url":"Patient/db6495a1-53dc-435d-b85b-1ad67734310d"}},{"fullUrl":"https://madie.cms.gov/Condition/44566e5d-a10e-4760-bcd0-5238d5e56fe3","resource":{"resourceType":"Condition","id":"44566e5d-a10e-4760-bcd0-5238d5e56fe3","meta":{"profile":["http://hl7.org/fhir/us/qicore/StructureDefinition/qicore-condition"]},"clinicalStatus":{"coding":[{"system":"http://terminology.hl7.org/CodeSystem/condition-clinical","code":"inactive"}]},"verificationStatus":{"coding":[{"system":"http://terminology.hl7.org/CodeSystem/condition-ver-status","code":"confirmed"}]},"category":[{"coding":[{"system":"http://terminology.hl7.org/CodeSystem/condition-category","code":"encounter-diagnosis","display":"Encounter Diagnosis"}]}],"code":{"coding":[{"system":"http://snomed.info/sct","code":"195080001"},{"system":"http://hl7.org/fhir/sid/icd-9-cm","code":"427.31"},{"system":"http://hl7.org/fhir/sid/icd-10-cm","code":"I48.0"}]},"subject":{"reference":"Patient/db6495a1-53dc-435d-b85b-1ad67734310d"},"onsetDateTime":"2025-02-10T08:15:00.000Z","abatementDateTime":"2025-02-10T09:15:00.000Z"},"request":{"method":"PUT","url":"Condition/44566e5d-a10e-4760-bcd0-5238d5e56fe3"}},{"fullUrl":"https://madie.cms.gov/Encounter/e9c7304d-536c-45e2-876e-410b39b486a3","resource":{"resourceType":"Encounter","id":"e9c7304d-536c-45e2-876e-410b39b486a3","meta":{"profile":["http://hl7.org/fhir/us/qicore/StructureDefinition/qicore-encounter"]},"status":"finished","class":{"system":"http://terminology.hl7.org/CodeSystem/v3-ActCode","code":"IMP","display":"inpatient encounter"},"type":[{"coding":[{"system":"http://snomed.info/sct","code":"32485007"}]}],"subject":{"reference":"Patient/db6495a1-53dc-435d-b85b-1ad67734310d"},"period":{"start":"2025-02-08T08:00:00.000Z","end":"2025-02-10T08:15:00.000Z"},"length":{"value":2,"unit":"days"},"diagnosis":[{"condition":{"reference":"Condition/530019f0-d3c3-466a-8f75-ab5e54f8a659"},"use":{"coding":[{"system":"http://terminology.hl7.org/CodeSystem/diagnosis-role","code":"billing","display":"Billing"}]},"rank":1}]},"request":{"method":"PUT","url":"Encounter/e9c7304d-536c-45e2-876e-410b39b486a3"}},{"fullUrl":"https://madie.cms.gov/Coverage/dbb629fa-eb29-4aef-b582-d0d9bce3e649","resource":{"resourceType":"Coverage","id":"dbb629fa-eb29-4aef-b582-d0d9bce3e649","status":"active","beneficiary":{"reference":"Patient/db6495a1-53dc-435d-b85b-1ad67734310d"},"period":{"start":"1960-12-01T08:00:00.000Z"},"payor":[{"reference":"Organization/26111c91-b0e2-476c-a20b-e3f39799f8f5"}]},"request":{"method":"PUT","url":"Coverage/dbb629fa-eb29-4aef-b582-d0d9bce3e649"}},{"fullUrl":"https://madie.cms.gov/Condition/530019f0-d3c3-466a-8f75-ab5e54f8a659","resource":{"resourceType":"Condition","id":"530019f0-d3c3-466a-8f75-ab5e54f8a659","meta":{"profile":["http://hl7.org/fhir/us/qicore/StructureDefinition/qicore-condition"]},"clinicalStatus":{"coding":[{"system":"http://terminology.hl7.org/CodeSystem/condition-clinical","code":"active"}]},"verificationStatus":{"coding":[{"system":"http://terminology.hl7.org/CodeSystem/condition-ver-status","code":"confirmed"}]},"category":[{"coding":[{"system":"http://terminology.hl7.org/CodeSystem/condition-category","code":"encounter-diagnosis","display":"Encounter Diagnosis"}]}],"code":{"coding":[{"system":"http://snomed.info/sct","version":"2021-09","code":"111297002","display":"Nonparalytic stroke (disorder)","userSelected":true}]},"subject":{"reference":"Patient/db6495a1-53dc-435d-b85b-1ad67734310d"},"recordedDate":"2025-10-13T08:00:00.000+00:00"},"request":{"method":"PUT","url":"Condition/530019f0-d3c3-466a-8f75-ab5e54f8a659"}},{"fullUrl":"https://madie.cms.gov/Organization/ed926456-7fd3-4013-a622-96a3e1cc9ce5","resource":{"resourceType":"Organization","id":"26111c91-b0e2-476c-a20b-e3f39799f8f5","meta":{"profile":["http://hl7.org/fhir/us/qicore/StructureDefinition/qicore-organization"]},"identifier":[{"use":"temp","system":"urn:oid:2.16.840.1.113883.4.4","value":"21-3259825"}],"active":true,"type":[{"coding":[{"system":"http://terminology.hl7.org/CodeSystem/organization-type","code":"pay","display":"Payer"}]}],"name":"Blue Cross Blue Shield of Texas","telecom":[{"system":"phone","value":"(+1) 972-766-6900"}],"address":[{"use":"billing","type":"postal","line":["P.O. Box 660044"],"city":"Dallas","state":"TX","postalCode":"75266-0044","country":"USA"}]},"request":{"method":"PUT","url":"Organization/26111c91-b0e2-476c-a20b-e3f39799f8f5"}},{"fullUrl":"https://madie.cms.gov/Practitioner/78d68e85-50f0-4622-81ba-0b51d3b8b205","resource":{"resourceType":"Practitioner","id":"78d68e85-50f0-4622-81ba-0b51d3b8b205","identifier":[{"system":"http://hl7.org/fhir/sid/us-npi","value":"123456"}],"name":[{"family":"Evil","prefix":["Dr"]}]},"request":{"method":"PUT","url":"Practitioner/78d68e85-50f0-4622-81ba-0b51d3b8b205"}},{"fullUrl":"https://madie.cms.gov/MeasureReport/fac85bb1-e348-491f-98a4-98da8dd77fc0","resource":{"resourceType":"MeasureReport","id":"fac85bb1-e348-491f-98a4-98da8dd77fc0","meta":{"profile":["http://hl7.org/fhir/us/cqfmeasures/StructureDefinition/test-case-cqfm"]},"contained":[{"resourceType":"Parameters","id":"33a0b8da-694a-4143-98b4-10e66d834cc4-parameters","parameter":[{"name":"subject","valueString":"db6495a1-53dc-435d-b85b-1ad67734310d"}]}],"extension":[{"url":"http://hl7.org/fhir/us/cqfmeasures/StructureDefinition/cqfm-inputParameters","valueReference":{"reference":"#33a0b8da-694a-4143-98b4-10e66d834cc4-parameters"}},{"url":"http://hl7.org/fhir/us/cqfmeasures/StructureDefinition/cqfm-testCaseDescription","valueMarkdown":"\"Afib as a Diagnosis Datatype, starts at OccurA EndDate time\nEdge case to test timing boundaries of diagnosis. \"\n"}],"modifierExtension":[{"url":"http://hl7.org/fhir/us/cqfmeasures/StructureDefinition/cqfm-isTestCase","valueBoolean":true}],"status":"complete","type":"individual","measure":"https://madie.cms.gov/Measure/AnticoagulationTherapyforAtrialFibrillationFlutterFHIR","period":{"start":"2025-01-01","end":"2025-12-31"},"group":[{"population":[{"code":{"coding":[{"system":"http://terminology.hl7.org/CodeSystem/measure-population","code":"initial-population","display":"Initial Population"}]},"count":1},{"code":{"coding":[{"system":"http://terminology.hl7.org/CodeSystem/measure-population","code":"denominator","display":"Denominator"}]},"count":1},{"code":{"coding":[{"system":"http://terminology.hl7.org/CodeSystem/measure-population","code":"denominator-exclusion","display":"Denominator Exclusion"}]},"count":0},{"code":{"coding":[{"system":"http://terminology.hl7.org/CodeSystem/measure-population","code":"numerator","display":"Numerator"}]},"count":0},{"code":{"coding":[{"system":"http://terminology.hl7.org/CodeSystem/measure-population","code":"denominator-exception","display":"Denominator Exception"}]},"count":0}]}]},"request":{"method":"PUT","url":"MeasureReport/fac85bb1-e348-491f-98a4-98da8dd77fc0"}}]}