{"resourceType":"Bundle","id":"tests-a998e27f-e0a9-475d-80e8-0e9344591294-bundle","type":"transaction","entry":[{"fullUrl":"https://madie.cms.gov/Patient/9e30d155-8d91-46f8-9ad2-ad88e5c11c47","resource":{"resourceType":"Patient","id":"9e30d155-8d91-46f8-9ad2-ad88e5c11c47","meta":{"profile":["http://hl7.org/fhir/us/qicore/StructureDefinition/qicore-patient"]},"text":{"status":"generated","div":"<div xmlns=\"http://www.w3.org/1999/xhtml\"><div class=\"hapiHeaderText\">CMOdurED_ED=1hrNoObsBFEnc <b>DENEXPASS </b></div><table class=\"hapiPropertyTable\"><tbody><tr><td>Identifier</td><td>670854918483ca8b7894283bd5cddbcf5037c5392991b8777bf3c4f78ed05f0b</td></tr><tr><td>Date of birth</td><td><span>18 September 1985</span></td></tr></tbody></table></div>"},"extension":[{"url":"http://hl7.org/fhir/us/core/StructureDefinition/us-core-race","extension":[{"url":"ombCategory","valueCoding":{"system":"urn:oid:2.16.840.1.113883.6.238","code":"1002-5","display":"American Indian or Alaska Native","userSelected":true}},{"url":"text","valueString":"American Indian or Alaska Native"}]},{"url":"http://hl7.org/fhir/us/core/StructureDefinition/us-core-ethnicity","extension":[{"url":"ombCategory","valueCoding":{"system":"urn:oid:2.16.840.1.113883.6.238","code":"2135-2","display":"Hispanic or Latino","userSelected":true}},{"url":"text","valueString":"Hispanic or Latino"}]}],"identifier":[{"type":{"coding":[{"system":"http://terminology.hl7.org/CodeSystem/v2-0203","code":"MR"}]},"system":"https://bonnie-fhir.healthit.gov/","value":"633c9d040968f8012250fca3"}],"active":true,"name":[{"use":"usual","family":"DENEXFail","given":["CMOdurEDEDEQ1hrNoObsBFEncdoNotPerform"]}],"gender":"female","birthDate":"1985-09-18"},"request":{"method":"PUT","url":"Patient/9e30d155-8d91-46f8-9ad2-ad88e5c11c47"}},{"fullUrl":"https://madie.cms.gov/Condition/3f1f095f-c65a-447a-bb3f-62e6bab5891f","resource":{"resourceType":"Condition","id":"3f1f095f-c65a-447a-bb3f-62e6bab5891f","meta":{"profile":["http://hl7.org/fhir/us/qicore/StructureDefinition/qicore-condition"]},"clinicalStatus":{"coding":[{"system":"http://terminology.hl7.org/CodeSystem/condition-clinical","code":"inactive"}]},"verificationStatus":{"coding":[{"system":"http://terminology.hl7.org/CodeSystem/condition-ver-status","code":"confirmed"}]},"category":[{"coding":[{"system":"http://terminology.hl7.org/CodeSystem/condition-category","code":"encounter-diagnosis","display":"Encounter Diagnosis"}]}],"code":{"coding":[{"system":"http://hl7.org/fhir/sid/icd-10-cm","code":"I48.20"},{"system":"http://hl7.org/fhir/sid/icd-10-cm","code":"I48.0"},{"system":"http://snomed.info/sct","code":"5370000"}]},"subject":{"reference":"Patient/9e30d155-8d91-46f8-9ad2-ad88e5c11c47"},"onsetDateTime":"2025-10-01T09:01:00.000Z","abatementDateTime":"2025-10-12T00:15:00.000Z"},"request":{"method":"PUT","url":"Condition/3f1f095f-c65a-447a-bb3f-62e6bab5891f"}},{"fullUrl":"https://madie.cms.gov/Encounter/a1860dc5-d517-4f81-ab72-a70bd3f913a9","resource":{"resourceType":"Encounter","id":"a1860dc5-d517-4f81-ab72-a70bd3f913a9","meta":{"profile":["http://hl7.org/fhir/us/qicore/StructureDefinition/qicore-encounter"]},"status":"finished","class":{"system":"http://terminology.hl7.org/CodeSystem/v3-ActCode","code":"EMER","display":"emergency"},"type":[{"coding":[{"system":"http://snomed.info/sct","code":"4525004"}]}],"subject":{"reference":"Patient/9e30d155-8d91-46f8-9ad2-ad88e5c11c47"},"period":{"start":"2025-10-01T09:01:00.000Z","end":"2025-10-01T12:15:00.000Z"},"length":{"value":0,"unit":"days"}},"request":{"method":"PUT","url":"Encounter/a1860dc5-d517-4f81-ab72-a70bd3f913a9"}},{"fullUrl":"https://madie.cms.gov/Encounter/140900ea-328f-407e-b9d4-08654be47436","resource":{"resourceType":"Encounter","id":"140900ea-328f-407e-b9d4-08654be47436","meta":{"profile":["http://hl7.org/fhir/us/qicore/StructureDefinition/qicore-encounter"]},"status":"finished","class":{"system":"http://terminology.hl7.org/CodeSystem/v3-ActCode","code":"IMP","display":"inpatient encounter"},"type":[{"coding":[{"system":"http://snomed.info/sct","code":"32485007"}]}],"subject":{"reference":"Patient/9e30d155-8d91-46f8-9ad2-ad88e5c11c47"},"period":{"start":"2025-10-01T13:15:00.000Z","end":"2025-10-12T00:15:00.000Z"},"length":{"value":11,"unit":"days"},"diagnosis":[{"condition":{"reference":"Condition/04537948-7adc-45e7-9b75-f0b77fbf0552"},"use":{"coding":[{"system":"http://terminology.hl7.org/CodeSystem/diagnosis-role","code":"billing","display":"Billing"}]},"rank":1}]},"request":{"method":"PUT","url":"Encounter/140900ea-328f-407e-b9d4-08654be47436"}},{"fullUrl":"https://madie.cms.gov/ServiceRequest/fee6ba8b-ba11-47a4-b3e3-d473c2f19389","resource":{"resourceType":"ServiceRequest","id":"fee6ba8b-ba11-47a4-b3e3-d473c2f19389","meta":{"profile":["http://hl7.org/fhir/us/qicore/StructureDefinition/qicore-servicerequest"]},"status":"active","intent":"order","doNotPerform":false,"code":{"coding":[{"system":"http://snomed.info/sct","code":"133918004"}]},"subject":{"reference":"Patient/9e30d155-8d91-46f8-9ad2-ad88e5c11c47"},"authoredOn":"2025-10-01T09:15:00.000+00:00"},"request":{"method":"PUT","url":"ServiceRequest/fee6ba8b-ba11-47a4-b3e3-d473c2f19389"}},{"fullUrl":"https://madie.cms.gov/Coverage/7670bfe3-8c29-4dff-a70a-69f06e767f2d","resource":{"resourceType":"Coverage","id":"7670bfe3-8c29-4dff-a70a-69f06e767f2d","status":"active","beneficiary":{"reference":"Patient/9e30d155-8d91-46f8-9ad2-ad88e5c11c47"},"period":{"start":"1985-09-18T08:00:00.000Z"},"payor":[{"reference":"Organization/26111c91-b0e2-476c-a20b-e3f39799f8f5"}]},"request":{"method":"PUT","url":"Coverage/7670bfe3-8c29-4dff-a70a-69f06e767f2d"}},{"fullUrl":"https://madie.cms.gov/Condition/04537948-7adc-45e7-9b75-f0b77fbf0552","resource":{"resourceType":"Condition","id":"04537948-7adc-45e7-9b75-f0b77fbf0552","meta":{"profile":["http://hl7.org/fhir/us/qicore/StructureDefinition/qicore-condition"]},"clinicalStatus":{"coding":[{"system":"http://terminology.hl7.org/CodeSystem/condition-clinical","code":"active"}]},"verificationStatus":{"coding":[{"system":"http://terminology.hl7.org/CodeSystem/condition-ver-status","code":"confirmed"}]},"category":[{"coding":[{"system":"http://terminology.hl7.org/CodeSystem/condition-category","code":"encounter-diagnosis","display":"Encounter Diagnosis"}]}],"code":{"coding":[{"system":"http://snomed.info/sct","version":"2021-09","code":"111297002","display":"Nonparalytic stroke (disorder)","userSelected":true}]},"subject":{"reference":"Patient/9e30d155-8d91-46f8-9ad2-ad88e5c11c47"},"recordedDate":"2025-10-13T08:00:00.000+00:00"},"request":{"method":"PUT","url":"Condition/04537948-7adc-45e7-9b75-f0b77fbf0552"}},{"fullUrl":"https://madie.cms.gov/Organization/d584c344-34e6-4398-8e0d-de8a59257cde","resource":{"resourceType":"Organization","id":"26111c91-b0e2-476c-a20b-e3f39799f8f5","meta":{"profile":["http://hl7.org/fhir/us/qicore/StructureDefinition/qicore-organization"]},"identifier":[{"use":"temp","system":"urn:oid:2.16.840.1.113883.4.4","value":"21-3259825"}],"active":true,"type":[{"coding":[{"system":"http://terminology.hl7.org/CodeSystem/organization-type","code":"pay","display":"Payer"}]}],"name":"Blue Cross Blue Shield of Texas","telecom":[{"system":"phone","value":"(+1) 972-766-6900"}],"address":[{"use":"billing","type":"postal","line":["P.O. Box 660044"],"city":"Dallas","state":"TX","postalCode":"75266-0044","country":"USA"}]},"request":{"method":"PUT","url":"Organization/26111c91-b0e2-476c-a20b-e3f39799f8f5"}},{"fullUrl":"https://madie.cms.gov/Practitioner/940753c2-5b9b-407c-a82a-67aa3ddfc9d6","resource":{"resourceType":"Practitioner","id":"940753c2-5b9b-407c-a82a-67aa3ddfc9d6","identifier":[{"system":"http://hl7.org/fhir/sid/us-npi","value":"123456"}],"name":[{"family":"Evil","prefix":["Dr"]}]},"request":{"method":"PUT","url":"Practitioner/940753c2-5b9b-407c-a82a-67aa3ddfc9d6"}},{"fullUrl":"https://madie.cms.gov/MeasureReport/9a37b696-5ea3-4f61-9bd9-c3c0ff03f2a6","resource":{"resourceType":"MeasureReport","id":"9a37b696-5ea3-4f61-9bd9-c3c0ff03f2a6","meta":{"profile":["http://hl7.org/fhir/us/cqfmeasures/StructureDefinition/test-case-cqfm"]},"contained":[{"resourceType":"Parameters","id":"a8530299-56b0-483a-ba19-b39f571b8a70-parameters","parameter":[{"name":"subject","valueString":"9e30d155-8d91-46f8-9ad2-ad88e5c11c47"}]}],"extension":[{"url":"http://hl7.org/fhir/us/cqfmeasures/StructureDefinition/cqfm-inputParameters","valueReference":{"reference":"#a8530299-56b0-483a-ba19-b39f571b8a70-parameters"}},{"url":"http://hl7.org/fhir/us/cqfmeasures/StructureDefinition/cqfm-testCaseDescription","valueMarkdown":"Testing false donotperform CMO "}],"modifierExtension":[{"url":"http://hl7.org/fhir/us/cqfmeasures/StructureDefinition/cqfm-isTestCase","valueBoolean":true}],"status":"complete","type":"individual","measure":"https://madie.cms.gov/Measure/AnticoagulationTherapyforAtrialFibrillationFlutterFHIR","period":{"start":"2025-01-01","end":"2025-12-31"},"group":[{"population":[{"code":{"coding":[{"system":"http://terminology.hl7.org/CodeSystem/measure-population","code":"initial-population","display":"Initial Population"}]},"count":1},{"code":{"coding":[{"system":"http://terminology.hl7.org/CodeSystem/measure-population","code":"denominator","display":"Denominator"}]},"count":1},{"code":{"coding":[{"system":"http://terminology.hl7.org/CodeSystem/measure-population","code":"denominator-exclusion","display":"Denominator Exclusion"}]},"count":1},{"code":{"coding":[{"system":"http://terminology.hl7.org/CodeSystem/measure-population","code":"numerator","display":"Numerator"}]},"count":0},{"code":{"coding":[{"system":"http://terminology.hl7.org/CodeSystem/measure-population","code":"denominator-exception","display":"Denominator Exception"}]},"count":0}]}]},"request":{"method":"PUT","url":"MeasureReport/9a37b696-5ea3-4f61-9bd9-c3c0ff03f2a6"}}]}