{"resourceType":"Bundle","id":"tests-2ed389dd-10d2-49b1-966b-f8bada7df530-bundle","type":"transaction","entry":[{"fullUrl":"https://madie.cms.gov/Patient/765fe893-c352-446f-8a23-27887d698b38","resource":{"resourceType":"Patient","id":"765fe893-c352-446f-8a23-27887d698b38","meta":{"profile":["http://hl7.org/fhir/us/qicore/StructureDefinition/qicore-patient"]},"text":{"status":"generated","div":"<div xmlns=\"http://www.w3.org/1999/xhtml\"><div class=\"hapiHeaderText\">CMOdurEnc_ED=1hrNoObsBFEnc <b>DENEXPASS </b></div><table class=\"hapiPropertyTable\"><tbody><tr><td>Identifier</td><td>c13349494c162d88448cb3ad5c0d4a05</td></tr><tr><td>Date of birth</td><td><span>18 September 1985</span></td></tr></tbody></table></div>"},"extension":[{"url":"http://hl7.org/fhir/us/core/StructureDefinition/us-core-race","extension":[{"url":"ombCategory","valueCoding":{"system":"urn:oid:2.16.840.1.113883.6.238","code":"1002-5","display":"American Indian or Alaska Native","userSelected":true}},{"url":"text","valueString":"American Indian or Alaska Native"}]},{"url":"http://hl7.org/fhir/us/core/StructureDefinition/us-core-ethnicity","extension":[{"url":"ombCategory","valueCoding":{"system":"urn:oid:2.16.840.1.113883.6.238","code":"2135-2","display":"Hispanic or Latino","userSelected":true}},{"url":"text","valueString":"Hispanic or Latino"}]}],"identifier":[{"type":{"coding":[{"system":"http://terminology.hl7.org/CodeSystem/v2-0203","code":"MR"}]},"system":"https://bonnie-fhir.healthit.gov/","value":"633c9d030968f8012250fc83"}],"active":true,"name":[{"use":"usual","family":"DENEXPass","given":["CMOdurEnc_ED=1hrNoObsBFEnc"]}],"gender":"female","birthDate":"1985-09-18"},"request":{"method":"PUT","url":"Patient/765fe893-c352-446f-8a23-27887d698b38"}},{"fullUrl":"https://madie.cms.gov/Condition/a04898fe-0919-4b7a-bffb-0fe589fb55f8","resource":{"resourceType":"Condition","id":"a04898fe-0919-4b7a-bffb-0fe589fb55f8","meta":{"profile":["http://hl7.org/fhir/us/qicore/StructureDefinition/qicore-condition"]},"clinicalStatus":{"coding":[{"system":"http://terminology.hl7.org/CodeSystem/condition-clinical","code":"inactive"}]},"verificationStatus":{"coding":[{"system":"http://terminology.hl7.org/CodeSystem/condition-ver-status","code":"confirmed"}]},"category":[{"coding":[{"system":"http://terminology.hl7.org/CodeSystem/condition-category","code":"encounter-diagnosis","display":"Encounter Diagnosis"}]}],"code":{"coding":[{"system":"http://hl7.org/fhir/sid/icd-10-cm","code":"I48.20"},{"system":"http://hl7.org/fhir/sid/icd-10-cm","code":"I48.0"},{"system":"http://snomed.info/sct","code":"5370000"}]},"subject":{"reference":"Patient/765fe893-c352-446f-8a23-27887d698b38"},"onsetDateTime":"2025-10-01T09:00:00.000Z","abatementDateTime":"2025-10-12T00:15:00.000Z"},"request":{"method":"PUT","url":"Condition/a04898fe-0919-4b7a-bffb-0fe589fb55f8"}},{"fullUrl":"https://madie.cms.gov/Encounter/5dc1e21e-fd8d-4943-a76e-cefbe3e27eb2","resource":{"resourceType":"Encounter","id":"5dc1e21e-fd8d-4943-a76e-cefbe3e27eb2","meta":{"profile":["http://hl7.org/fhir/us/qicore/StructureDefinition/qicore-encounter"]},"status":"finished","class":{"system":"http://terminology.hl7.org/CodeSystem/v3-ActCode","code":"EMER","display":"emergency"},"type":[{"coding":[{"system":"http://snomed.info/sct","code":"4525004"}]}],"subject":{"reference":"Patient/765fe893-c352-446f-8a23-27887d698b38"},"period":{"start":"2025-10-01T08:00:00.000Z","end":"2025-10-01T09:00:00.000Z"},"length":{"value":0,"unit":"days"}},"request":{"method":"PUT","url":"Encounter/5dc1e21e-fd8d-4943-a76e-cefbe3e27eb2"}},{"fullUrl":"https://madie.cms.gov/Encounter/6f3262f9-bd07-4939-9bb2-9a07296647e9","resource":{"resourceType":"Encounter","id":"6f3262f9-bd07-4939-9bb2-9a07296647e9","meta":{"profile":["http://hl7.org/fhir/us/qicore/StructureDefinition/qicore-encounter"]},"status":"finished","class":{"system":"http://terminology.hl7.org/CodeSystem/v3-ActCode","code":"IMP","display":"inpatient encounter"},"type":[{"coding":[{"system":"http://snomed.info/sct","code":"32485007"}]}],"subject":{"reference":"Patient/765fe893-c352-446f-8a23-27887d698b38"},"period":{"start":"2025-10-01T09:00:00.000Z","end":"2025-10-12T00:15:00.000Z"},"length":{"value":11,"unit":"days"},"diagnosis":[{"condition":{"reference":"Condition/239d4cfd-55f8-483f-8b2d-aa3e71fd72c1"},"use":{"coding":[{"system":"http://terminology.hl7.org/CodeSystem/diagnosis-role","code":"billing","display":"Billing"}]},"rank":1}]},"request":{"method":"PUT","url":"Encounter/6f3262f9-bd07-4939-9bb2-9a07296647e9"}},{"fullUrl":"https://madie.cms.gov/ServiceRequest/b4d31ccc-f070-4607-a39d-7267e473771b","resource":{"resourceType":"ServiceRequest","id":"b4d31ccc-f070-4607-a39d-7267e473771b","meta":{"profile":["http://hl7.org/fhir/us/qicore/StructureDefinition/qicore-servicerequest"]},"status":"active","intent":"order","code":{"coding":[{"system":"http://snomed.info/sct","code":"133918004"}]},"subject":{"reference":"Patient/765fe893-c352-446f-8a23-27887d698b38"},"authoredOn":"2025-10-01T09:15:00.000+00:00"},"request":{"method":"PUT","url":"ServiceRequest/b4d31ccc-f070-4607-a39d-7267e473771b"}},{"fullUrl":"https://madie.cms.gov/Coverage/ced16e93-be51-4001-8afe-388ede2f3858","resource":{"resourceType":"Coverage","id":"ced16e93-be51-4001-8afe-388ede2f3858","status":"active","beneficiary":{"reference":"Patient/765fe893-c352-446f-8a23-27887d698b38"},"period":{"start":"1985-09-18T08:00:00.000Z"},"payor":[{"reference":"Organization/26111c91-b0e2-476c-a20b-e3f39799f8f5"}]},"request":{"method":"PUT","url":"Coverage/ced16e93-be51-4001-8afe-388ede2f3858"}},{"fullUrl":"https://madie.cms.gov/Condition/239d4cfd-55f8-483f-8b2d-aa3e71fd72c1","resource":{"resourceType":"Condition","id":"239d4cfd-55f8-483f-8b2d-aa3e71fd72c1","meta":{"profile":["http://hl7.org/fhir/us/qicore/StructureDefinition/qicore-condition"]},"clinicalStatus":{"coding":[{"system":"http://terminology.hl7.org/CodeSystem/condition-clinical","code":"active"}]},"verificationStatus":{"coding":[{"system":"http://terminology.hl7.org/CodeSystem/condition-ver-status","code":"confirmed"}]},"category":[{"coding":[{"system":"http://terminology.hl7.org/CodeSystem/condition-category","code":"encounter-diagnosis","display":"Encounter Diagnosis"}]}],"code":{"coding":[{"system":"http://snomed.info/sct","version":"2021-09","code":"111297002","display":"Nonparalytic stroke (disorder)","userSelected":true}]},"subject":{"reference":"Patient/765fe893-c352-446f-8a23-27887d698b38"},"recordedDate":"2025-10-13T08:00:00.000+00:00"},"request":{"method":"PUT","url":"Condition/239d4cfd-55f8-483f-8b2d-aa3e71fd72c1"}},{"fullUrl":"https://madie.cms.gov/Organization/908f815b-2cb7-4d54-bfcc-e2ea871395ad","resource":{"resourceType":"Organization","id":"26111c91-b0e2-476c-a20b-e3f39799f8f5","meta":{"profile":["http://hl7.org/fhir/us/qicore/StructureDefinition/qicore-organization"]},"identifier":[{"use":"temp","system":"urn:oid:2.16.840.1.113883.4.4","value":"21-3259825"}],"active":true,"type":[{"coding":[{"system":"http://terminology.hl7.org/CodeSystem/organization-type","code":"pay","display":"Payer"}]}],"name":"Blue Cross Blue Shield of Texas","telecom":[{"system":"phone","value":"(+1) 972-766-6900"}],"address":[{"use":"billing","type":"postal","line":["P.O. Box 660044"],"city":"Dallas","state":"TX","postalCode":"75266-0044","country":"USA"}]},"request":{"method":"PUT","url":"Organization/26111c91-b0e2-476c-a20b-e3f39799f8f5"}},{"fullUrl":"https://madie.cms.gov/Practitioner/69282549-6cb9-43bf-9ef1-8db0367cdb7a","resource":{"resourceType":"Practitioner","id":"69282549-6cb9-43bf-9ef1-8db0367cdb7a","identifier":[{"system":"http://hl7.org/fhir/sid/us-npi","value":"123456"}],"name":[{"family":"Evil","prefix":["Dr"]}]},"request":{"method":"PUT","url":"Practitioner/69282549-6cb9-43bf-9ef1-8db0367cdb7a"}},{"fullUrl":"https://madie.cms.gov/MeasureReport/50e2efb3-6d8b-4408-9884-811d409e48c8","resource":{"resourceType":"MeasureReport","id":"50e2efb3-6d8b-4408-9884-811d409e48c8","meta":{"profile":["http://hl7.org/fhir/us/cqfmeasures/StructureDefinition/test-case-cqfm"]},"contained":[{"resourceType":"Parameters","id":"74030f7e-aaa2-46d3-bbd5-f5910ddd7553-parameters","parameter":[{"name":"subject","valueString":"765fe893-c352-446f-8a23-27887d698b38"}]}],"extension":[{"url":"http://hl7.org/fhir/us/cqfmeasures/StructureDefinition/cqfm-inputParameters","valueReference":{"reference":"#74030f7e-aaa2-46d3-bbd5-f5910ddd7553-parameters"}},{"url":"http://hl7.org/fhir/us/cqfmeasures/StructureDefinition/cqfm-testCaseDescription","valueMarkdown":"Patient receives CMO during inpatient encounter. ED starts 60 minutes before inpatient encounter start. No Observation. Testing HospitalizationWithObservation function.\n"}],"modifierExtension":[{"url":"http://hl7.org/fhir/us/cqfmeasures/StructureDefinition/cqfm-isTestCase","valueBoolean":true}],"status":"complete","type":"individual","measure":"https://madie.cms.gov/Measure/AnticoagulationTherapyforAtrialFibrillationFlutterFHIR","period":{"start":"2025-01-01","end":"2025-12-31"},"group":[{"population":[{"code":{"coding":[{"system":"http://terminology.hl7.org/CodeSystem/measure-population","code":"initial-population","display":"Initial Population"}]},"count":1},{"code":{"coding":[{"system":"http://terminology.hl7.org/CodeSystem/measure-population","code":"denominator","display":"Denominator"}]},"count":1},{"code":{"coding":[{"system":"http://terminology.hl7.org/CodeSystem/measure-population","code":"denominator-exclusion","display":"Denominator Exclusion"}]},"count":1},{"code":{"coding":[{"system":"http://terminology.hl7.org/CodeSystem/measure-population","code":"numerator","display":"Numerator"}]},"count":0},{"code":{"coding":[{"system":"http://terminology.hl7.org/CodeSystem/measure-population","code":"denominator-exception","display":"Denominator Exception"}]},"count":0}]}]},"request":{"method":"PUT","url":"MeasureReport/50e2efb3-6d8b-4408-9884-811d409e48c8"}}]}