{"resourceType":"Bundle","id":"tests-05ddb4d0-26ee-47e7-8d57-825bdab98515-bundle","type":"transaction","entry":[{"fullUrl":"https://madie.cms.gov/Patient/d710be7b-4b35-48d7-89ba-32d595fe46a1","resource":{"resourceType":"Patient","id":"d710be7b-4b35-48d7-89ba-32d595fe46a1","meta":{"profile":["http://hl7.org/fhir/us/qicore/StructureDefinition/qicore-patient"]},"text":{"status":"generated","div":"<div xmlns=\"http://www.w3.org/1999/xhtml\"><div class=\"hapiHeaderText\">2IPPass1IPFail DENEXPass <b>NUMERPASSX1 </b></div><table class=\"hapiPropertyTable\"><tbody><tr><td>Identifier</td><td>52c14de634122f39abfbd9ffaa41bc27</td></tr><tr><td>Date of birth</td><td><span>23 May 1954</span></td></tr></tbody></table></div>"},"extension":[{"url":"http://hl7.org/fhir/us/core/StructureDefinition/us-core-race","extension":[{"url":"ombCategory","valueCoding":{"system":"urn:oid:2.16.840.1.113883.6.238","code":"1002-5","display":"American Indian or Alaska Native","userSelected":true}},{"url":"text","valueString":"American Indian or Alaska Native"}]},{"url":"http://hl7.org/fhir/us/core/StructureDefinition/us-core-ethnicity","extension":[{"url":"ombCategory","valueCoding":{"system":"urn:oid:2.16.840.1.113883.6.238","code":"2135-2","display":"Hispanic or Latino","userSelected":true}},{"url":"text","valueString":"Hispanic or Latino"}]}],"identifier":[{"type":{"coding":[{"system":"http://terminology.hl7.org/CodeSystem/v2-0203","code":"MR"}]},"system":"https://bonnie-fhir.healthit.gov/","value":"633c9d040968f8012250fcaf"}],"active":true,"name":[{"use":"usual","family":"NUMERPassX1","given":["2IPPass1IPFail DENEXPass"]}],"gender":"female","birthDate":"1954-05-23"},"request":{"method":"PUT","url":"Patient/d710be7b-4b35-48d7-89ba-32d595fe46a1"}},{"fullUrl":"https://madie.cms.gov/Encounter/ef5c53d9-d461-488f-9ddb-4000782810fb","resource":{"resourceType":"Encounter","id":"ef5c53d9-d461-488f-9ddb-4000782810fb","meta":{"profile":["http://hl7.org/fhir/us/qicore/StructureDefinition/qicore-encounter"]},"status":"finished","class":{"system":"http://terminology.hl7.org/CodeSystem/v3-ActCode","code":"IMP","display":"inpatient encounter"},"type":[{"coding":[{"system":"http://snomed.info/sct","code":"32485007"}]}],"subject":{"reference":"Patient/d710be7b-4b35-48d7-89ba-32d595fe46a1"},"period":{"start":"2025-11-20T08:00:00.000Z","end":"2025-11-24T08:15:00.000Z"},"length":{"value":4,"unit":"days"},"diagnosis":[{"condition":{"reference":"Condition/823a3f46-e43b-4cae-8f46-7ccdcbce90fd"},"use":{"coding":[{"system":"http://terminology.hl7.org/CodeSystem/diagnosis-role","code":"billing","display":"Billing"}]},"rank":1}]},"request":{"method":"PUT","url":"Encounter/ef5c53d9-d461-488f-9ddb-4000782810fb"}},{"fullUrl":"https://madie.cms.gov/Encounter/f99dd7a8-cb1b-4ed7-9474-8f6739e85b4b","resource":{"resourceType":"Encounter","id":"f99dd7a8-cb1b-4ed7-9474-8f6739e85b4b","meta":{"profile":["http://hl7.org/fhir/us/qicore/StructureDefinition/qicore-encounter"]},"status":"finished","class":{"system":"http://terminology.hl7.org/CodeSystem/v3-ActCode","code":"IMP","display":"inpatient encounter"},"type":[{"coding":[{"system":"http://snomed.info/sct","code":"183452005"}]}],"subject":{"reference":"Patient/d710be7b-4b35-48d7-89ba-32d595fe46a1"},"period":{"start":"2025-10-28T08:00:00.000Z","end":"2025-10-30T08:15:00.000Z"},"diagnosis":[{"condition":{"reference":"Condition/3470d14c-6597-4b8f-aa2c-8905f6300b46"},"use":{"coding":[{"system":"http://terminology.hl7.org/CodeSystem/diagnosis-role","code":"billing","display":"Billing"}]},"rank":2}]},"request":{"method":"PUT","url":"Encounter/f99dd7a8-cb1b-4ed7-9474-8f6739e85b4b"}},{"fullUrl":"https://madie.cms.gov/Encounter/b8c6d202-90f5-4736-997d-66cd4a6f3dc0","resource":{"resourceType":"Encounter","id":"b8c6d202-90f5-4736-997d-66cd4a6f3dc0","meta":{"profile":["http://hl7.org/fhir/us/qicore/StructureDefinition/qicore-encounter"]},"status":"finished","class":{"system":"http://terminology.hl7.org/CodeSystem/v3-ActCode","code":"IMP","display":"inpatient encounter"},"type":[{"coding":[{"system":"http://snomed.info/sct","code":"183452005"}]}],"subject":{"reference":"Patient/d710be7b-4b35-48d7-89ba-32d595fe46a1"},"period":{"start":"2025-09-03T08:00:00.000Z","end":"2025-09-07T08:15:00.000Z"},"length":{"value":4,"unit":"days"},"diagnosis":[{"condition":{"reference":"condition/atrial-ablation-19a5"},"use":{"coding":[{"system":"http://www.cms.gov/Medicare/Coding/ICD10","code":"02560ZZ","display":"Destruction of Right Atrium, Open Approach"}]}},{"condition":{"reference":"Condition/054e470b-dce2-44ed-9aaf-8a3dd39f758e"},"use":{"coding":[{"system":"http://terminology.hl7.org/CodeSystem/diagnosis-role","code":"billing","display":"Billing"}]}},{"condition":{"reference":"Condition/27fe96a6-8c0c-4082-9ae8-25ff1b20dd55"},"use":{"coding":[{"system":"http://terminology.hl7.org/CodeSystem/diagnosis-role","code":"billing","display":"Billing"}]},"rank":1}]},"request":{"method":"PUT","url":"Encounter/b8c6d202-90f5-4736-997d-66cd4a6f3dc0"}},{"fullUrl":"https://madie.cms.gov/ServiceRequest/1d6a0dea-481c-46db-9442-6f6545e1c4b7","resource":{"resourceType":"ServiceRequest","id":"1d6a0dea-481c-46db-9442-6f6545e1c4b7","meta":{"profile":["http://hl7.org/fhir/us/qicore/StructureDefinition/qicore-servicerequest"]},"status":"active","intent":"order","code":{"coding":[{"system":"http://snomed.info/sct","code":"133918004"}]},"subject":{"reference":"Patient/d710be7b-4b35-48d7-89ba-32d595fe46a1"},"authoredOn":"2025-11-20T08:00:00.000+00:00"},"request":{"method":"PUT","url":"ServiceRequest/1d6a0dea-481c-46db-9442-6f6545e1c4b7"}},{"fullUrl":"https://madie.cms.gov/MedicationRequest/84d0d3a6-26c7-4c9d-ae9f-28ac61e40c8d","resource":{"resourceType":"MedicationRequest","id":"84d0d3a6-26c7-4c9d-ae9f-28ac61e40c8d","meta":{"profile":["http://hl7.org/fhir/us/qicore/StructureDefinition/qicore-medicationrequest"]},"status":"active","intent":"order","category":[{"coding":[{"system":"http://terminology.hl7.org/CodeSystem/medicationrequest-category","code":"discharge","display":"Discharge","userSelected":true}]}],"medicationCodeableConcept":{"coding":[{"system":"http://www.nlm.nih.gov/research/umls/rxnorm","code":"308351"}]},"subject":{"reference":"Patient/d710be7b-4b35-48d7-89ba-32d595fe46a1"},"authoredOn":"2025-11-24T08:00:00.000+00:00","requester":{"reference":"Practitioner/example"}},"request":{"method":"PUT","url":"MedicationRequest/84d0d3a6-26c7-4c9d-ae9f-28ac61e40c8d"}},{"fullUrl":"https://madie.cms.gov/MedicationRequest/7378107d-49b7-4a3d-9ad3-02907a3b5929","resource":{"resourceType":"MedicationRequest","id":"7378107d-49b7-4a3d-9ad3-02907a3b5929","meta":{"profile":["http://hl7.org/fhir/us/qicore/StructureDefinition/qicore-medicationrequest"]},"status":"active","intent":"order","category":[{"coding":[{"system":"http://terminology.hl7.org/CodeSystem/medicationrequest-category","code":"community","display":"Community","userSelected":true}]}],"medicationCodeableConcept":{"coding":[{"system":"http://www.nlm.nih.gov/research/umls/rxnorm","version":"2022-01","code":"1114198","display":"rivaroxaban 10 MG Oral Tablet","userSelected":true}]},"subject":{"reference":"Patient/d710be7b-4b35-48d7-89ba-32d595fe46a1"},"authoredOn":"2025-09-07T08:00:00.000+00:00","requester":{"reference":"Practitioner/example"}},"request":{"method":"PUT","url":"MedicationRequest/7378107d-49b7-4a3d-9ad3-02907a3b5929"}},{"fullUrl":"https://madie.cms.gov/Coverage/68c0d9b3-2f52-40c4-8d3b-ce579364b6a1","resource":{"resourceType":"Coverage","id":"68c0d9b3-2f52-40c4-8d3b-ce579364b6a1","status":"active","beneficiary":{"reference":"Patient/d710be7b-4b35-48d7-89ba-32d595fe46a1"},"period":{"start":"1954-05-23T08:00:00.000Z"},"payor":[{"reference":"Organization/26111c91-b0e2-476c-a20b-e3f39799f8f5"}]},"request":{"method":"PUT","url":"Coverage/68c0d9b3-2f52-40c4-8d3b-ce579364b6a1"}},{"fullUrl":"https://madie.cms.gov/Procedure/f5dd0f09-21e3-4923-b563-781caa3910ce","resource":{"resourceType":"Procedure","id":"f5dd0f09-21e3-4923-b563-781caa3910ce","meta":{"profile":["http://hl7.org/fhir/us/qicore/StructureDefinition/qicore-procedure"]},"extension":[{"url":"http://hl7.org/fhir/us/qicore/StructureDefinition/qicore-recorded","valueDateTime":"2025-11-19T09:35:00-04:00"}],"status":"completed","code":{"coding":[{"system":"http://www.cms.gov/Medicare/Coding/ICD10","code":"02560ZZ"},{"system":"http://snomed.info/sct","code":"175095005"}]},"subject":{"reference":"Patient/d710be7b-4b35-48d7-89ba-32d595fe46a1"},"performedPeriod":{"start":"2025-11-20T06:00:00.000Z","end":"2025-11-20T07:15:00.000Z"}},"request":{"method":"PUT","url":"Procedure/f5dd0f09-21e3-4923-b563-781caa3910ce"}},{"fullUrl":"https://madie.cms.gov/Condition/823a3f46-e43b-4cae-8f46-7ccdcbce90fd","resource":{"resourceType":"Condition","id":"823a3f46-e43b-4cae-8f46-7ccdcbce90fd","meta":{"profile":["http://hl7.org/fhir/us/qicore/StructureDefinition/qicore-condition"]},"clinicalStatus":{"coding":[{"system":"http://terminology.hl7.org/CodeSystem/condition-clinical","code":"active"}]},"verificationStatus":{"coding":[{"system":"http://terminology.hl7.org/CodeSystem/condition-ver-status","code":"confirmed"}]},"category":[{"coding":[{"system":"http://terminology.hl7.org/CodeSystem/condition-category","code":"encounter-diagnosis","display":"Encounter Diagnosis"}]}],"code":{"coding":[{"system":"http://snomed.info/sct","version":"2021-09","code":"111297002","display":"Nonparalytic stroke (disorder)","userSelected":true}]},"subject":{"reference":"Patient/d710be7b-4b35-48d7-89ba-32d595fe46a1"},"recordedDate":"2025-10-13T08:00:00.000+00:00"},"request":{"method":"PUT","url":"Condition/823a3f46-e43b-4cae-8f46-7ccdcbce90fd"}},{"fullUrl":"https://madie.cms.gov/Condition/3470d14c-6597-4b8f-aa2c-8905f6300b46","resource":{"resourceType":"Condition","id":"3470d14c-6597-4b8f-aa2c-8905f6300b46","meta":{"profile":["http://hl7.org/fhir/us/qicore/StructureDefinition/qicore-condition"]},"clinicalStatus":{"coding":[{"system":"http://terminology.hl7.org/CodeSystem/condition-clinical","code":"active"}]},"verificationStatus":{"coding":[{"system":"http://terminology.hl7.org/CodeSystem/condition-ver-status","code":"confirmed"}]},"category":[{"coding":[{"system":"http://terminology.hl7.org/CodeSystem/condition-category","code":"encounter-diagnosis","display":"Encounter Diagnosis"}]}],"code":{"coding":[{"system":"http://www.icd10data.com/icd10pcs","version":"2022","code":"02560ZZ","display":"Destruction of Right Atrium, Open Approach","userSelected":true}]},"subject":{"reference":"Patient/d710be7b-4b35-48d7-89ba-32d595fe46a1"},"recordedDate":"2025-10-13T08:00:00.000+00:00"},"request":{"method":"PUT","url":"Condition/3470d14c-6597-4b8f-aa2c-8905f6300b46"}},{"fullUrl":"https://madie.cms.gov/Condition/9318f0e5-cda0-4e68-90b4-d5758146b2ac","resource":{"resourceType":"Condition","id":"9318f0e5-cda0-4e68-90b4-d5758146b2ac","meta":{"profile":["http://hl7.org/fhir/us/qicore/StructureDefinition/qicore-condition"]},"clinicalStatus":{"coding":[{"system":"http://terminology.hl7.org/CodeSystem/condition-clinical","code":"active"}]},"verificationStatus":{"coding":[{"system":"http://terminology.hl7.org/CodeSystem/condition-ver-status","code":"confirmed"}]},"category":[{"coding":[{"system":"http://terminology.hl7.org/CodeSystem/condition-category","code":"encounter-diagnosis","display":"Encounter Diagnosis"}]}],"code":{"coding":[{"system":"http://snomed.info/sct","version":"2021-09","code":"111297002","display":"Nonparalytic stroke (disorder)","userSelected":true}]},"subject":{"reference":"Patient/d710be7b-4b35-48d7-89ba-32d595fe46a1"},"recordedDate":"2025-10-13T08:00:00.000+00:00"},"request":{"method":"PUT","url":"Condition/9318f0e5-cda0-4e68-90b4-d5758146b2ac"}},{"fullUrl":"https://madie.cms.gov/Condition/054e470b-dce2-44ed-9aaf-8a3dd39f758e","resource":{"resourceType":"Condition","id":"054e470b-dce2-44ed-9aaf-8a3dd39f758e","meta":{"profile":["http://hl7.org/fhir/us/qicore/StructureDefinition/qicore-condition"]},"clinicalStatus":{"coding":[{"system":"http://terminology.hl7.org/CodeSystem/condition-clinical","code":"active"}]},"verificationStatus":{"coding":[{"system":"http://terminology.hl7.org/CodeSystem/condition-ver-status","code":"confirmed"}]},"category":[{"coding":[{"system":"http://terminology.hl7.org/CodeSystem/condition-category","code":"encounter-diagnosis","display":"Encounter Diagnosis"}]}],"code":{"coding":[{"system":"http://snomed.info/sct","version":"2021-09","code":"120041000119109","display":"Atrial fibrillation with rapid ventricular response (disorder)","userSelected":true}]},"subject":{"reference":"Patient/d710be7b-4b35-48d7-89ba-32d595fe46a1"},"recordedDate":"2025-10-13T08:00:00.000+00:00"},"request":{"method":"PUT","url":"Condition/054e470b-dce2-44ed-9aaf-8a3dd39f758e"}},{"fullUrl":"https://madie.cms.gov/Condition/27fe96a6-8c0c-4082-9ae8-25ff1b20dd55","resource":{"resourceType":"Condition","id":"27fe96a6-8c0c-4082-9ae8-25ff1b20dd55","meta":{"profile":["http://hl7.org/fhir/us/qicore/StructureDefinition/qicore-condition"]},"clinicalStatus":{"coding":[{"system":"http://terminology.hl7.org/CodeSystem/condition-clinical","code":"active"}]},"verificationStatus":{"coding":[{"system":"http://terminology.hl7.org/CodeSystem/condition-ver-status","code":"confirmed"}]},"category":[{"coding":[{"system":"http://terminology.hl7.org/CodeSystem/condition-category","code":"encounter-diagnosis","display":"Encounter Diagnosis"}]}],"code":{"coding":[{"system":"http://snomed.info/sct","version":"2021-09","code":"111297002","display":"Nonparalytic stroke (disorder)","userSelected":true}]},"subject":{"reference":"Patient/d710be7b-4b35-48d7-89ba-32d595fe46a1"},"recordedDate":"2025-10-13T08:00:00.000+00:00"},"request":{"method":"PUT","url":"Condition/27fe96a6-8c0c-4082-9ae8-25ff1b20dd55"}},{"fullUrl":"https://madie.cms.gov/Organization/f48e046d-635e-4148-8144-d11f721b6b92","resource":{"resourceType":"Organization","id":"26111c91-b0e2-476c-a20b-e3f39799f8f5","meta":{"profile":["http://hl7.org/fhir/us/qicore/StructureDefinition/qicore-organization"]},"identifier":[{"use":"temp","system":"urn:oid:2.16.840.1.113883.4.4","value":"21-3259825"}],"active":true,"type":[{"coding":[{"system":"http://terminology.hl7.org/CodeSystem/organization-type","code":"pay","display":"Payer"}]}],"name":"Blue Cross Blue Shield of Texas","telecom":[{"system":"phone","value":"(+1) 972-766-6900"}],"address":[{"use":"billing","type":"postal","line":["P.O. Box 660044"],"city":"Dallas","state":"TX","postalCode":"75266-0044","country":"USA"}]},"request":{"method":"PUT","url":"Organization/26111c91-b0e2-476c-a20b-e3f39799f8f5"}},{"fullUrl":"https://madie.cms.gov/Practitioner/d7ff9fea-bb3f-4efc-ae6a-48b6c6f4808b","resource":{"resourceType":"Practitioner","id":"d7ff9fea-bb3f-4efc-ae6a-48b6c6f4808b","identifier":[{"system":"http://hl7.org/fhir/sid/us-npi","value":"123456"}],"name":[{"family":"Evil","prefix":["Dr"]}]},"request":{"method":"PUT","url":"Practitioner/d7ff9fea-bb3f-4efc-ae6a-48b6c6f4808b"}},{"fullUrl":"https://madie.cms.gov/MeasureReport/b90d3ad8-13c0-4052-a220-62564415b802","resource":{"resourceType":"MeasureReport","id":"b90d3ad8-13c0-4052-a220-62564415b802","meta":{"profile":["http://hl7.org/fhir/us/cqfmeasures/StructureDefinition/test-case-cqfm"]},"contained":[{"resourceType":"Parameters","id":"a98cb49b-43f4-4202-9ccc-4af8cfc2c27c-parameters","parameter":[{"name":"subject","valueString":"d710be7b-4b35-48d7-89ba-32d595fe46a1"}]}],"extension":[{"url":"http://hl7.org/fhir/us/cqfmeasures/StructureDefinition/cqfm-inputParameters","valueReference":{"reference":"#a98cb49b-43f4-4202-9ccc-4af8cfc2c27c-parameters"}},{"url":"http://hl7.org/fhir/us/cqfmeasures/StructureDefinition/cqfm-testCaseDescription","valueMarkdown":"Pt. discharged on anticoagulant, starts during encounter 1. Encounter 2 has admitting diagnosis with rank 2. Encounter 3 satisfies IPP and Denom. \n"}],"modifierExtension":[{"url":"http://hl7.org/fhir/us/cqfmeasures/StructureDefinition/cqfm-isTestCase","valueBoolean":true}],"status":"complete","type":"individual","measure":"https://madie.cms.gov/Measure/AnticoagulationTherapyforAtrialFibrillationFlutterFHIR","period":{"start":"2025-01-01","end":"2025-12-31"},"group":[{"population":[{"code":{"coding":[{"system":"http://terminology.hl7.org/CodeSystem/measure-population","code":"initial-population","display":"Initial Population"}]},"count":2},{"code":{"coding":[{"system":"http://terminology.hl7.org/CodeSystem/measure-population","code":"denominator","display":"Denominator"}]},"count":2},{"code":{"coding":[{"system":"http://terminology.hl7.org/CodeSystem/measure-population","code":"denominator-exclusion","display":"Denominator Exclusion"}]},"count":1},{"code":{"coding":[{"system":"http://terminology.hl7.org/CodeSystem/measure-population","code":"numerator","display":"Numerator"}]},"count":1},{"code":{"coding":[{"system":"http://terminology.hl7.org/CodeSystem/measure-population","code":"denominator-exception","display":"Denominator Exception"}]},"count":0}]}]},"request":{"method":"PUT","url":"MeasureReport/b90d3ad8-13c0-4052-a220-62564415b802"}}]}