{"resourceType":"Bundle","id":"tests-2c1e6f23-20a1-44c3-8c2a-0bec67c3d2f5-bundle","type":"transaction","entry":[{"fullUrl":"https://madie.cms.gov/Patient/8be52d50-675b-49d2-a1cf-a7496c3574fa","resource":{"resourceType":"Patient","id":"8be52d50-675b-49d2-a1cf-a7496c3574fa","meta":{"profile":["http://hl7.org/fhir/us/qicore/StructureDefinition/qicore-patient"]},"text":{"status":"generated","div":"<div xmlns=\"http://www.w3.org/1999/xhtml\"><div class=\"hapiHeaderText\">EncPrinDx=IschemicStroke <b>IPPPASS </b></div><table class=\"hapiPropertyTable\"><tbody><tr><td>Identifier</td><td>e24e934ef2385ddb5e9ee5c55913bf5e</td></tr><tr><td>Date of birth</td><td><span>01 December 1960</span></td></tr></tbody></table></div>"},"extension":[{"url":"http://hl7.org/fhir/us/core/StructureDefinition/us-core-race","extension":[{"url":"ombCategory","valueCoding":{"system":"urn:oid:2.16.840.1.113883.6.238","code":"1002-5","display":"American Indian or Alaska Native","userSelected":true}},{"url":"text","valueString":"American Indian or Alaska Native"}]},{"url":"http://hl7.org/fhir/us/core/StructureDefinition/us-core-ethnicity","extension":[{"url":"ombCategory","valueCoding":{"system":"urn:oid:2.16.840.1.113883.6.238","code":"2135-2","display":"Hispanic or Latino","userSelected":true}},{"url":"text","valueString":"Hispanic or Latino"}]}],"identifier":[{"type":{"coding":[{"system":"http://terminology.hl7.org/CodeSystem/v2-0203","code":"MR"}]},"system":"https://bonnie-fhir.healthit.gov/","value":"633c9d030968f8012250fc6b"}],"active":true,"name":[{"use":"usual","family":"IPPPass ","given":["EncPrinDx=IschemicStroke"]}],"gender":"male","birthDate":"1960-12-01"},"request":{"method":"PUT","url":"Patient/8be52d50-675b-49d2-a1cf-a7496c3574fa"}},{"fullUrl":"https://madie.cms.gov/Encounter/8120d949-7798-4dbe-8525-f5d09dec2c29","resource":{"resourceType":"Encounter","id":"8120d949-7798-4dbe-8525-f5d09dec2c29","meta":{"profile":["http://hl7.org/fhir/us/qicore/StructureDefinition/qicore-encounter"]},"status":"finished","class":{"system":"http://terminology.hl7.org/CodeSystem/v3-ActCode","code":"IMP","display":"inpatient encounter"},"type":[{"coding":[{"system":"http://snomed.info/sct","code":"32485007"}]}],"subject":{"reference":"Patient/8be52d50-675b-49d2-a1cf-a7496c3574fa"},"period":{"start":"2025-02-08T08:00:00.000Z","end":"2025-02-10T08:15:00.000Z"},"length":{"value":2,"unit":"days"},"diagnosis":[{"condition":{"reference":"Condition/891a8120-f20e-4413-9706-55ef2a2331a0"},"use":{"coding":[{"system":"http://terminology.hl7.org/CodeSystem/diagnosis-role","code":"billing","display":"Billing"}]},"rank":1}]},"request":{"method":"PUT","url":"Encounter/8120d949-7798-4dbe-8525-f5d09dec2c29"}},{"fullUrl":"https://madie.cms.gov/Coverage/65553401-8c18-4019-9bdd-477014e479a8","resource":{"resourceType":"Coverage","id":"65553401-8c18-4019-9bdd-477014e479a8","status":"active","beneficiary":{"reference":"Patient/8be52d50-675b-49d2-a1cf-a7496c3574fa"},"period":{"start":"1960-12-01T08:00:00.000Z"},"payor":[{"reference":"Organization/26111c91-b0e2-476c-a20b-e3f39799f8f5"}]},"request":{"method":"PUT","url":"Coverage/65553401-8c18-4019-9bdd-477014e479a8"}},{"fullUrl":"https://madie.cms.gov/Condition/891a8120-f20e-4413-9706-55ef2a2331a0","resource":{"resourceType":"Condition","id":"891a8120-f20e-4413-9706-55ef2a2331a0","meta":{"profile":["http://hl7.org/fhir/us/qicore/StructureDefinition/qicore-condition"]},"clinicalStatus":{"coding":[{"system":"http://terminology.hl7.org/CodeSystem/condition-clinical","code":"active"}]},"verificationStatus":{"coding":[{"system":"http://terminology.hl7.org/CodeSystem/condition-ver-status","code":"confirmed"}]},"category":[{"coding":[{"system":"http://terminology.hl7.org/CodeSystem/condition-category","code":"encounter-diagnosis","display":"Encounter Diagnosis"}]}],"code":{"coding":[{"system":"http://snomed.info/sct","version":"2021-09","code":"111297002","display":"Nonparalytic stroke (disorder)","userSelected":true}]},"subject":{"reference":"Patient/8be52d50-675b-49d2-a1cf-a7496c3574fa"},"recordedDate":"2025-10-13T08:00:00.000+00:00"},"request":{"method":"PUT","url":"Condition/891a8120-f20e-4413-9706-55ef2a2331a0"}},{"fullUrl":"https://madie.cms.gov/Organization/205c6066-f181-4eb8-9e84-7a6c4b67a69b","resource":{"resourceType":"Organization","id":"26111c91-b0e2-476c-a20b-e3f39799f8f5","meta":{"profile":["http://hl7.org/fhir/us/qicore/StructureDefinition/qicore-organization"]},"identifier":[{"use":"temp","system":"urn:oid:2.16.840.1.113883.4.4","value":"21-3259825"}],"active":true,"type":[{"coding":[{"system":"http://terminology.hl7.org/CodeSystem/organization-type","code":"pay","display":"Payer"}]}],"name":"Blue Cross Blue Shield of Texas","telecom":[{"system":"phone","value":"(+1) 972-766-6900"}],"address":[{"use":"billing","type":"postal","line":["P.O. Box 660044"],"city":"Dallas","state":"TX","postalCode":"75266-0044","country":"USA"}]},"request":{"method":"PUT","url":"Organization/26111c91-b0e2-476c-a20b-e3f39799f8f5"}},{"fullUrl":"https://madie.cms.gov/Practitioner/960486a6-3fc1-4ecf-b4bf-3230942b8bb0","resource":{"resourceType":"Practitioner","id":"960486a6-3fc1-4ecf-b4bf-3230942b8bb0","identifier":[{"system":"http://hl7.org/fhir/sid/us-npi","value":"123456"}],"name":[{"family":"Evil","prefix":["Dr"]}]},"request":{"method":"PUT","url":"Practitioner/960486a6-3fc1-4ecf-b4bf-3230942b8bb0"}},{"fullUrl":"https://madie.cms.gov/MeasureReport/7b73a056-cab2-4260-91dc-7b56c50d9c09","resource":{"resourceType":"MeasureReport","id":"7b73a056-cab2-4260-91dc-7b56c50d9c09","meta":{"profile":["http://hl7.org/fhir/us/cqfmeasures/StructureDefinition/test-case-cqfm"]},"contained":[{"resourceType":"Parameters","id":"3e8b2e54-ac1d-4625-94c8-af1806366f1d-parameters","parameter":[{"name":"subject","valueString":"8be52d50-675b-49d2-a1cf-a7496c3574fa"}]}],"extension":[{"url":"http://hl7.org/fhir/us/cqfmeasures/StructureDefinition/cqfm-inputParameters","valueReference":{"reference":"#3e8b2e54-ac1d-4625-94c8-af1806366f1d-parameters"}},{"url":"http://hl7.org/fhir/us/cqfmeasures/StructureDefinition/cqfm-testCaseDescription","valueMarkdown":"Principal diagnosis = ischemic stroke, age GT 18\n"}],"modifierExtension":[{"url":"http://hl7.org/fhir/us/cqfmeasures/StructureDefinition/cqfm-isTestCase","valueBoolean":true}],"status":"complete","type":"individual","measure":"https://madie.cms.gov/Measure/AnticoagulationTherapyforAtrialFibrillationFlutterFHIR","period":{"start":"2025-01-01","end":"2025-12-31"},"group":[{"population":[{"code":{"coding":[{"system":"http://terminology.hl7.org/CodeSystem/measure-population","code":"initial-population","display":"Initial Population"}]},"count":1},{"code":{"coding":[{"system":"http://terminology.hl7.org/CodeSystem/measure-population","code":"denominator","display":"Denominator"}]},"count":0},{"code":{"coding":[{"system":"http://terminology.hl7.org/CodeSystem/measure-population","code":"denominator-exclusion","display":"Denominator Exclusion"}]},"count":0},{"code":{"coding":[{"system":"http://terminology.hl7.org/CodeSystem/measure-population","code":"numerator","display":"Numerator"}]},"count":0},{"code":{"coding":[{"system":"http://terminology.hl7.org/CodeSystem/measure-population","code":"denominator-exception","display":"Denominator Exception"}]},"count":0}]}]},"request":{"method":"PUT","url":"MeasureReport/7b73a056-cab2-4260-91dc-7b56c50d9c09"}}]}