{"resourceType":"Bundle","id":"tests-3b8d6a18-b4a3-4369-b33c-6a6daa6b5b4c-bundle","type":"transaction","entry":[{"fullUrl":"https://madie.cms.gov/Patient/fb08faa1-e666-4acb-8bcd-873a3224b479","resource":{"resourceType":"Patient","id":"fb08faa1-e666-4acb-8bcd-873a3224b479","meta":{"profile":["http://hl7.org/fhir/us/qicore/StructureDefinition/qicore-patient"]},"text":{"status":"generated","div":"<div xmlns=\"http://www.w3.org/1999/xhtml\"><div class=\"hapiHeaderText\">MedDCAnticoaStartTmEQEncDischTm <b>NUMERPASS </b></div><table class=\"hapiPropertyTable\"><tbody><tr><td>Identifier</td><td>9128716b0b21eec571089f9d5d345182</td></tr><tr><td>Date of birth</td><td><span>23 May 1954</span></td></tr></tbody></table></div>"},"extension":[{"url":"http://hl7.org/fhir/us/core/StructureDefinition/us-core-race","extension":[{"url":"ombCategory","valueCoding":{"system":"urn:oid:2.16.840.1.113883.6.238","code":"1002-5","display":"American Indian or Alaska Native","userSelected":true}},{"url":"text","valueString":"American Indian or Alaska Native"}]},{"url":"http://hl7.org/fhir/us/core/StructureDefinition/us-core-ethnicity","extension":[{"url":"ombCategory","valueCoding":{"system":"urn:oid:2.16.840.1.113883.6.238","code":"2135-2","display":"Hispanic or Latino","userSelected":true}},{"url":"text","valueString":"Hispanic or Latino"}]}],"identifier":[{"type":{"coding":[{"system":"http://terminology.hl7.org/CodeSystem/v2-0203","code":"MR"}]},"system":"https://bonnie-fhir.healthit.gov/","value":"633c9d030968f8012250fc9d"}],"active":true,"name":[{"use":"usual","family":"NUMERPass","given":["MedDCAnticoaStartTmEQEncDischTm"]}],"gender":"female","birthDate":"1954-05-23"},"request":{"method":"PUT","url":"Patient/fb08faa1-e666-4acb-8bcd-873a3224b479"}},{"fullUrl":"https://madie.cms.gov/Encounter/db42deea-e924-4a66-a9a7-43212fdef4b3","resource":{"resourceType":"Encounter","id":"db42deea-e924-4a66-a9a7-43212fdef4b3","meta":{"profile":["http://hl7.org/fhir/us/qicore/StructureDefinition/qicore-encounter"]},"status":"finished","class":{"system":"http://terminology.hl7.org/CodeSystem/v3-ActCode","code":"IMP","display":"inpatient encounter"},"type":[{"coding":[{"system":"http://snomed.info/sct","code":"32485007"}]}],"subject":{"reference":"Patient/fb08faa1-e666-4acb-8bcd-873a3224b479"},"period":{"start":"2025-11-20T08:00:00.000Z","end":"2025-11-24T08:15:00.000Z"},"length":{"value":4,"unit":"days"},"diagnosis":[{"condition":{"reference":"Condition/e4b6a17a-dedd-4efa-a675-3fc53375c6ae"},"use":{"coding":[{"system":"http://terminology.hl7.org/CodeSystem/diagnosis-role","code":"billing","display":"Billing"}]},"rank":1}]},"request":{"method":"PUT","url":"Encounter/db42deea-e924-4a66-a9a7-43212fdef4b3"}},{"fullUrl":"https://madie.cms.gov/MedicationRequest/1bad7d75-12f1-4f7b-9f2c-4909828b1c26","resource":{"resourceType":"MedicationRequest","id":"1bad7d75-12f1-4f7b-9f2c-4909828b1c26","meta":{"profile":["http://hl7.org/fhir/us/qicore/StructureDefinition/qicore-medicationrequest"]},"status":"active","intent":"order","category":[{"coding":[{"system":"http://terminology.hl7.org/CodeSystem/medicationrequest-category","code":"community","display":"Community","userSelected":true}]}],"medicationCodeableConcept":{"coding":[{"system":"http://www.nlm.nih.gov/research/umls/rxnorm","code":"308351"}]},"subject":{"reference":"Patient/fb08faa1-e666-4acb-8bcd-873a3224b479"},"authoredOn":"2025-11-24T08:15:00.000+00:00","requester":{"reference":"Practitioner/example"}},"request":{"method":"PUT","url":"MedicationRequest/1bad7d75-12f1-4f7b-9f2c-4909828b1c26"}},{"fullUrl":"https://madie.cms.gov/Coverage/c51eb49c-dc38-454e-a270-5ebb6b5cd6b0","resource":{"resourceType":"Coverage","id":"c51eb49c-dc38-454e-a270-5ebb6b5cd6b0","status":"active","beneficiary":{"reference":"Patient/fb08faa1-e666-4acb-8bcd-873a3224b479"},"period":{"start":"1954-05-23T08:00:00.000Z"},"payor":[{"reference":"Organization/26111c91-b0e2-476c-a20b-e3f39799f8f5"}]},"request":{"method":"PUT","url":"Coverage/c51eb49c-dc38-454e-a270-5ebb6b5cd6b0"}},{"fullUrl":"https://madie.cms.gov/Procedure/74138ac6-0a44-433d-9cdf-238f8a956226","resource":{"resourceType":"Procedure","id":"74138ac6-0a44-433d-9cdf-238f8a956226","meta":{"profile":["http://hl7.org/fhir/us/qicore/StructureDefinition/qicore-procedure"]},"extension":[{"url":"http://hl7.org/fhir/us/qicore/StructureDefinition/qicore-recorded","valueDateTime":"2025-11-19T09:35:00-04:00"}],"status":"unknown","code":{"coding":[{"system":"http://www.cms.gov/Medicare/Coding/ICD10","code":"02560ZZ"},{"system":"http://snomed.info/sct","code":"175095005"}]},"subject":{"reference":"Patient/fb08faa1-e666-4acb-8bcd-873a3224b479"},"performedPeriod":{"start":"2025-11-20T06:00:00.000Z","end":"2025-11-20T07:15:00.000Z"}},"request":{"method":"PUT","url":"Procedure/74138ac6-0a44-433d-9cdf-238f8a956226"}},{"fullUrl":"https://madie.cms.gov/Condition/e4b6a17a-dedd-4efa-a675-3fc53375c6ae","resource":{"resourceType":"Condition","id":"e4b6a17a-dedd-4efa-a675-3fc53375c6ae","meta":{"profile":["http://hl7.org/fhir/us/qicore/StructureDefinition/qicore-condition"]},"clinicalStatus":{"coding":[{"system":"http://terminology.hl7.org/CodeSystem/condition-clinical","code":"active"}]},"verificationStatus":{"coding":[{"system":"http://terminology.hl7.org/CodeSystem/condition-ver-status","code":"confirmed"}]},"category":[{"coding":[{"system":"http://terminology.hl7.org/CodeSystem/condition-category","code":"encounter-diagnosis","display":"Encounter Diagnosis"}]}],"code":{"coding":[{"system":"http://snomed.info/sct","version":"2021-09","code":"111297002","display":"Nonparalytic stroke (disorder)","userSelected":true}]},"subject":{"reference":"Patient/fb08faa1-e666-4acb-8bcd-873a3224b479"},"recordedDate":"2025-10-13T08:00:00.000+00:00"},"request":{"method":"PUT","url":"Condition/e4b6a17a-dedd-4efa-a675-3fc53375c6ae"}},{"fullUrl":"https://madie.cms.gov/Organization/0744898b-8006-46ee-831d-8e66ad67469a","resource":{"resourceType":"Organization","id":"26111c91-b0e2-476c-a20b-e3f39799f8f5","meta":{"profile":["http://hl7.org/fhir/us/qicore/StructureDefinition/qicore-organization"]},"identifier":[{"use":"temp","system":"urn:oid:2.16.840.1.113883.4.4","value":"21-3259825"}],"active":true,"type":[{"coding":[{"system":"http://terminology.hl7.org/CodeSystem/organization-type","code":"pay","display":"Payer"}]}],"name":"Blue Cross Blue Shield of Texas","telecom":[{"system":"phone","value":"(+1) 972-766-6900"}],"address":[{"use":"billing","type":"postal","line":["P.O. Box 660044"],"city":"Dallas","state":"TX","postalCode":"75266-0044","country":"USA"}]},"request":{"method":"PUT","url":"Organization/26111c91-b0e2-476c-a20b-e3f39799f8f5"}},{"fullUrl":"https://madie.cms.gov/Practitioner/9f96151c-5bb2-4261-b5f3-58d085bcfcdd","resource":{"resourceType":"Practitioner","id":"9f96151c-5bb2-4261-b5f3-58d085bcfcdd","identifier":[{"system":"http://hl7.org/fhir/sid/us-npi","value":"123456"}],"name":[{"family":"Evil","prefix":["Dr"]}]},"request":{"method":"PUT","url":"Practitioner/9f96151c-5bb2-4261-b5f3-58d085bcfcdd"}},{"fullUrl":"https://madie.cms.gov/MeasureReport/7860995d-ed94-4f24-b0b3-217e28c4056b","resource":{"resourceType":"MeasureReport","id":"7860995d-ed94-4f24-b0b3-217e28c4056b","meta":{"profile":["http://hl7.org/fhir/us/cqfmeasures/StructureDefinition/test-case-cqfm"]},"contained":[{"resourceType":"Parameters","id":"852eca2b-5775-49ae-a460-cb97b4f12dcb-parameters","parameter":[{"name":"subject","valueString":"fb08faa1-e666-4acb-8bcd-873a3224b479"}]}],"extension":[{"url":"http://hl7.org/fhir/us/cqfmeasures/StructureDefinition/cqfm-inputParameters","valueReference":{"reference":"#852eca2b-5775-49ae-a460-cb97b4f12dcb-parameters"}},{"url":"http://hl7.org/fhir/us/cqfmeasures/StructureDefinition/cqfm-testCaseDescription","valueMarkdown":"Coverage for AA procedure listed as unknown"}],"modifierExtension":[{"url":"http://hl7.org/fhir/us/cqfmeasures/StructureDefinition/cqfm-isTestCase","valueBoolean":true}],"status":"complete","type":"individual","measure":"https://madie.cms.gov/Measure/AnticoagulationTherapyforAtrialFibrillationFlutterFHIR","period":{"start":"2025-01-01","end":"2025-12-31"},"group":[{"population":[{"code":{"coding":[{"system":"http://terminology.hl7.org/CodeSystem/measure-population","code":"initial-population","display":"Initial Population"}]},"count":1},{"code":{"coding":[{"system":"http://terminology.hl7.org/CodeSystem/measure-population","code":"denominator","display":"Denominator"}]},"count":0},{"code":{"coding":[{"system":"http://terminology.hl7.org/CodeSystem/measure-population","code":"denominator-exclusion","display":"Denominator Exclusion"}]},"count":0},{"code":{"coding":[{"system":"http://terminology.hl7.org/CodeSystem/measure-population","code":"numerator","display":"Numerator"}]},"count":0},{"code":{"coding":[{"system":"http://terminology.hl7.org/CodeSystem/measure-population","code":"denominator-exception","display":"Denominator Exception"}]},"count":0}]}]},"request":{"method":"PUT","url":"MeasureReport/7860995d-ed94-4f24-b0b3-217e28c4056b"}}]}