{"resourceType":"Bundle","id":"tests-43d04e08-768c-4e5e-a7eb-44219c5e94b1-bundle","type":"transaction","entry":[{"fullUrl":"https://madie.cms.gov/Patient/5cf0e88b-62c0-4128-b0a3-d37d065b7b75","resource":{"resourceType":"Patient","id":"5cf0e88b-62c0-4128-b0a3-d37d065b7b75","meta":{"profile":["http://hl7.org/fhir/us/qicore/StructureDefinition/qicore-patient"]},"text":{"status":"generated","div":"<div xmlns=\"http://www.w3.org/1999/xhtml\"><div class=\"hapiHeaderText\">DxAfibAtEncEndTime <b>DENOMPASS </b></div><table class=\"hapiPropertyTable\"><tbody><tr><td>Identifier</td><td>07d1b6cfb79c3da7b4c3edf0c8bcb5f1</td></tr><tr><td>Date of birth</td><td><span>01 December 1960</span></td></tr></tbody></table></div>"},"extension":[{"url":"http://hl7.org/fhir/us/core/StructureDefinition/us-core-race","extension":[{"url":"ombCategory","valueCoding":{"system":"urn:oid:2.16.840.1.113883.6.238","code":"1002-5","display":"American Indian or Alaska Native","userSelected":true}},{"url":"text","valueString":"American Indian or Alaska Native"}]},{"url":"http://hl7.org/fhir/us/core/StructureDefinition/us-core-ethnicity","extension":[{"url":"ombCategory","valueCoding":{"system":"urn:oid:2.16.840.1.113883.6.238","code":"2135-2","display":"Hispanic or Latino","userSelected":true}},{"url":"text","valueString":"Hispanic or Latino"}]}],"identifier":[{"type":{"coding":[{"system":"http://terminology.hl7.org/CodeSystem/v2-0203","code":"MR"}]},"system":"https://bonnie-fhir.healthit.gov/","value":"633c9d030968f8012250fc90"}],"active":true,"name":[{"use":"usual","family":"DENOMPass","given":["DxAfibAtEncEndTime"]}],"gender":"male","birthDate":"1960-12-01"},"request":{"method":"PUT","url":"Patient/5cf0e88b-62c0-4128-b0a3-d37d065b7b75"}},{"fullUrl":"https://madie.cms.gov/Condition/03346570-edf3-41f9-8ce7-08626cb5099a","resource":{"resourceType":"Condition","id":"03346570-edf3-41f9-8ce7-08626cb5099a","meta":{"profile":["http://hl7.org/fhir/us/qicore/StructureDefinition/qicore-condition"]},"clinicalStatus":{"coding":[{"system":"http://terminology.hl7.org/CodeSystem/condition-clinical","code":"inactive"}]},"verificationStatus":{"coding":[{"system":"http://terminology.hl7.org/CodeSystem/condition-ver-status","code":"confirmed"}]},"category":[{"coding":[{"system":"http://terminology.hl7.org/CodeSystem/condition-category","code":"encounter-diagnosis","display":"Encounter Diagnosis"}]}],"code":{"coding":[{"system":"http://snomed.info/sct","code":"195080001"},{"system":"http://hl7.org/fhir/sid/icd-9-cm","code":"427.31"},{"system":"http://hl7.org/fhir/sid/icd-10-cm","code":"I48.0"}]},"subject":{"reference":"Patient/5cf0e88b-62c0-4128-b0a3-d37d065b7b75"},"onsetDateTime":"2025-02-10T08:15:00.000Z","abatementDateTime":"2025-02-10T08:15:00.000Z"},"request":{"method":"PUT","url":"Condition/03346570-edf3-41f9-8ce7-08626cb5099a"}},{"fullUrl":"https://madie.cms.gov/Encounter/df892ed1-2769-4e1f-95aa-6aed364c884d","resource":{"resourceType":"Encounter","id":"df892ed1-2769-4e1f-95aa-6aed364c884d","meta":{"profile":["http://hl7.org/fhir/us/qicore/StructureDefinition/qicore-encounter"]},"status":"finished","class":{"system":"http://terminology.hl7.org/CodeSystem/v3-ActCode","code":"IMP","display":"inpatient encounter"},"type":[{"coding":[{"system":"http://snomed.info/sct","code":"32485007"}]}],"subject":{"reference":"Patient/5cf0e88b-62c0-4128-b0a3-d37d065b7b75"},"period":{"start":"2025-02-08T08:00:00.000Z","end":"2025-02-10T08:15:00.000Z"},"length":{"value":2,"unit":"days"},"diagnosis":[{"condition":{"reference":"Condition/12b62b7c-7436-4226-abe5-ce932f8cbaea"},"use":{"coding":[{"system":"http://terminology.hl7.org/CodeSystem/diagnosis-role","code":"billing","display":"Billing"}]},"rank":1}]},"request":{"method":"PUT","url":"Encounter/df892ed1-2769-4e1f-95aa-6aed364c884d"}},{"fullUrl":"https://madie.cms.gov/Coverage/4db42a2a-6fd4-4d8b-824d-568cf71981da","resource":{"resourceType":"Coverage","id":"4db42a2a-6fd4-4d8b-824d-568cf71981da","status":"active","beneficiary":{"reference":"Patient/5cf0e88b-62c0-4128-b0a3-d37d065b7b75"},"period":{"start":"1960-12-01T08:00:00.000Z"},"payor":[{"reference":"Organization/26111c91-b0e2-476c-a20b-e3f39799f8f5"}]},"request":{"method":"PUT","url":"Coverage/4db42a2a-6fd4-4d8b-824d-568cf71981da"}},{"fullUrl":"https://madie.cms.gov/Condition/12b62b7c-7436-4226-abe5-ce932f8cbaea","resource":{"resourceType":"Condition","id":"12b62b7c-7436-4226-abe5-ce932f8cbaea","meta":{"profile":["http://hl7.org/fhir/us/qicore/StructureDefinition/qicore-condition"]},"clinicalStatus":{"coding":[{"system":"http://terminology.hl7.org/CodeSystem/condition-clinical","code":"active"}]},"verificationStatus":{"coding":[{"system":"http://terminology.hl7.org/CodeSystem/condition-ver-status","code":"confirmed"}]},"category":[{"coding":[{"system":"http://terminology.hl7.org/CodeSystem/condition-category","code":"encounter-diagnosis","display":"Encounter Diagnosis"}]}],"code":{"coding":[{"system":"http://snomed.info/sct","version":"2021-09","code":"111297002","display":"Nonparalytic stroke (disorder)","userSelected":true}]},"subject":{"reference":"Patient/5cf0e88b-62c0-4128-b0a3-d37d065b7b75"},"recordedDate":"2025-10-13T08:00:00.000+00:00"},"request":{"method":"PUT","url":"Condition/12b62b7c-7436-4226-abe5-ce932f8cbaea"}},{"fullUrl":"https://madie.cms.gov/Organization/0e12c1e1-2d3c-40e5-8331-eb9286b27716","resource":{"resourceType":"Organization","id":"26111c91-b0e2-476c-a20b-e3f39799f8f5","meta":{"profile":["http://hl7.org/fhir/us/qicore/StructureDefinition/qicore-organization"]},"identifier":[{"use":"temp","system":"urn:oid:2.16.840.1.113883.4.4","value":"21-3259825"}],"active":true,"type":[{"coding":[{"system":"http://terminology.hl7.org/CodeSystem/organization-type","code":"pay","display":"Payer"}]}],"name":"Blue Cross Blue Shield of Texas","telecom":[{"system":"phone","value":"(+1) 972-766-6900"}],"address":[{"use":"billing","type":"postal","line":["P.O. Box 660044"],"city":"Dallas","state":"TX","postalCode":"75266-0044","country":"USA"}]},"request":{"method":"PUT","url":"Organization/26111c91-b0e2-476c-a20b-e3f39799f8f5"}},{"fullUrl":"https://madie.cms.gov/Practitioner/069c3f7e-e1be-444e-8a7b-76b838779f77","resource":{"resourceType":"Practitioner","id":"069c3f7e-e1be-444e-8a7b-76b838779f77","identifier":[{"system":"http://hl7.org/fhir/sid/us-npi","value":"123456"}],"name":[{"family":"Evil","prefix":["Dr"]}]},"request":{"method":"PUT","url":"Practitioner/069c3f7e-e1be-444e-8a7b-76b838779f77"}},{"fullUrl":"https://madie.cms.gov/MeasureReport/aa59c667-160d-4195-bf72-4f6c0977da31","resource":{"resourceType":"MeasureReport","id":"aa59c667-160d-4195-bf72-4f6c0977da31","meta":{"profile":["http://hl7.org/fhir/us/cqfmeasures/StructureDefinition/test-case-cqfm"]},"contained":[{"resourceType":"Parameters","id":"3d5bcbdf-6e70-4daf-b0fe-f6d23c5563fd-parameters","parameter":[{"name":"subject","valueString":"5cf0e88b-62c0-4128-b0a3-d37d065b7b75"}]}],"extension":[{"url":"http://hl7.org/fhir/us/cqfmeasures/StructureDefinition/cqfm-inputParameters","valueReference":{"reference":"#3d5bcbdf-6e70-4daf-b0fe-f6d23c5563fd-parameters"}},{"url":"http://hl7.org/fhir/us/cqfmeasures/StructureDefinition/cqfm-testCaseDescription","valueMarkdown":"\"Afib as a Diagnosis Datatype, starts at OccurA EndDate\nEdge case to test timing boundaries of diagnosis. \"\n"}],"modifierExtension":[{"url":"http://hl7.org/fhir/us/cqfmeasures/StructureDefinition/cqfm-isTestCase","valueBoolean":true}],"status":"complete","type":"individual","measure":"https://madie.cms.gov/Measure/AnticoagulationTherapyforAtrialFibrillationFlutterFHIR","period":{"start":"2025-01-01","end":"2025-12-31"},"group":[{"population":[{"code":{"coding":[{"system":"http://terminology.hl7.org/CodeSystem/measure-population","code":"initial-population","display":"Initial Population"}]},"count":1},{"code":{"coding":[{"system":"http://terminology.hl7.org/CodeSystem/measure-population","code":"denominator","display":"Denominator"}]},"count":1},{"code":{"coding":[{"system":"http://terminology.hl7.org/CodeSystem/measure-population","code":"denominator-exclusion","display":"Denominator Exclusion"}]},"count":0},{"code":{"coding":[{"system":"http://terminology.hl7.org/CodeSystem/measure-population","code":"numerator","display":"Numerator"}]},"count":0},{"code":{"coding":[{"system":"http://terminology.hl7.org/CodeSystem/measure-population","code":"denominator-exception","display":"Denominator Exception"}]},"count":0}]}]},"request":{"method":"PUT","url":"MeasureReport/aa59c667-160d-4195-bf72-4f6c0977da31"}}]}