{"resourceType":"Bundle","id":"tests-f07b7d1a-b0da-4d44-acc6-eb2a6dfa0da3-bundle","type":"transaction","entry":[{"fullUrl":"https://madie.cms.gov/Patient/3f1ce286-a824-44dd-9b5c-a8258afd4df0","resource":{"resourceType":"Patient","id":"3f1ce286-a824-44dd-9b5c-a8258afd4df0","meta":{"profile":["http://hl7.org/fhir/us/qicore/StructureDefinition/qicore-patient"]},"text":{"status":"generated","div":"<div xmlns=\"http://www.w3.org/1999/xhtml\"><div class=\"hapiHeaderText\">Anticoag@DC <b>NUMERPASS </b></div><table class=\"hapiPropertyTable\"><tbody><tr><td>Identifier</td><td>52c14de634122f39abfbd9ffaa41bc27</td></tr><tr><td>Date of birth</td><td><span>23 May 1954</span></td></tr></tbody></table></div>"},"extension":[{"url":"http://hl7.org/fhir/us/core/StructureDefinition/us-core-race","extension":[{"url":"ombCategory","valueCoding":{"system":"urn:oid:2.16.840.1.113883.6.238","code":"1002-5","display":"American Indian or Alaska Native","userSelected":true}},{"url":"text","valueString":"American Indian or Alaska Native"}]},{"url":"http://hl7.org/fhir/us/core/StructureDefinition/us-core-ethnicity","extension":[{"url":"ombCategory","valueCoding":{"system":"urn:oid:2.16.840.1.113883.6.238","code":"2135-2","display":"Hispanic or Latino","userSelected":true}},{"url":"text","valueString":"Hispanic or Latino"}]}],"identifier":[{"type":{"coding":[{"system":"http://terminology.hl7.org/CodeSystem/v2-0203","code":"MR"}]},"system":"https://bonnie-fhir.healthit.gov/","value":"633c9d020968f8012250fc66"}],"active":true,"name":[{"use":"usual","family":"NUMERPass","given":["Anticoag@DC"]}],"gender":"female","birthDate":"1954-05-23"},"request":{"method":"PUT","url":"Patient/3f1ce286-a824-44dd-9b5c-a8258afd4df0"}},{"fullUrl":"https://madie.cms.gov/Encounter/e8945d26-74fb-4326-8131-b1334e232079","resource":{"resourceType":"Encounter","id":"e8945d26-74fb-4326-8131-b1334e232079","meta":{"profile":["http://hl7.org/fhir/us/qicore/StructureDefinition/qicore-encounter"]},"status":"finished","class":{"system":"http://terminology.hl7.org/CodeSystem/v3-ActCode","code":"IMP","display":"inpatient encounter"},"type":[{"coding":[{"system":"http://snomed.info/sct","code":"32485007"}]}],"subject":{"reference":"Patient/3f1ce286-a824-44dd-9b5c-a8258afd4df0"},"period":{"start":"2025-11-20T08:00:00.000Z","end":"2025-11-24T08:15:00.000Z"},"length":{"value":4,"unit":"days"},"diagnosis":[{"condition":{"reference":"Condition/cdb48c9a-0e44-4a99-8f05-b2233c4b99c1"},"use":{"coding":[{"system":"http://terminology.hl7.org/CodeSystem/diagnosis-role","code":"billing","display":"Billing"}]},"rank":1}]},"request":{"method":"PUT","url":"Encounter/e8945d26-74fb-4326-8131-b1334e232079"}},{"fullUrl":"https://madie.cms.gov/MedicationRequest/990dba62-7f1a-48a0-b7f5-a9712bc81a17","resource":{"resourceType":"MedicationRequest","id":"990dba62-7f1a-48a0-b7f5-a9712bc81a17","meta":{"profile":["http://hl7.org/fhir/us/qicore/StructureDefinition/qicore-medicationrequest"]},"status":"completed","intent":"order","category":[{"coding":[{"system":"http://terminology.hl7.org/CodeSystem/medicationrequest-category","code":"community","display":"Community","userSelected":true}]}],"medicationCodeableConcept":{"coding":[{"system":"http://www.nlm.nih.gov/research/umls/rxnorm","version":"2022-01","code":"308351","display":"2.5 ML argatroban 100 MG/ML Injection","userSelected":true}]},"subject":{"reference":"Patient/3f1ce286-a824-44dd-9b5c-a8258afd4df0"},"authoredOn":"2025-11-24T08:00:00.000+00:00","requester":{"reference":"Practitioner/example"}},"request":{"method":"PUT","url":"MedicationRequest/990dba62-7f1a-48a0-b7f5-a9712bc81a17"}},{"fullUrl":"https://madie.cms.gov/Coverage/5b754313-a1d5-42dc-adae-93dac7334eb3","resource":{"resourceType":"Coverage","id":"5b754313-a1d5-42dc-adae-93dac7334eb3","status":"active","beneficiary":{"reference":"Patient/3f1ce286-a824-44dd-9b5c-a8258afd4df0"},"period":{"start":"1954-05-23T08:00:00.000Z"},"payor":[{"reference":"Organization/26111c91-b0e2-476c-a20b-e3f39799f8f5"}]},"request":{"method":"PUT","url":"Coverage/5b754313-a1d5-42dc-adae-93dac7334eb3"}},{"fullUrl":"https://madie.cms.gov/Procedure/838e8a5f-c09c-4c1d-863b-496c4546326f","resource":{"resourceType":"Procedure","id":"838e8a5f-c09c-4c1d-863b-496c4546326f","meta":{"profile":["http://hl7.org/fhir/us/qicore/StructureDefinition/qicore-procedure"]},"extension":[{"url":"http://hl7.org/fhir/us/qicore/StructureDefinition/qicore-recorded","valueDateTime":"2025-11-19T09:35:00-04:00"}],"status":"completed","code":{"coding":[{"system":"http://www.cms.gov/Medicare/Coding/ICD10","code":"02560ZZ"},{"system":"http://snomed.info/sct","code":"175095005"}]},"subject":{"reference":"Patient/3f1ce286-a824-44dd-9b5c-a8258afd4df0"},"performedPeriod":{"start":"2025-11-20T06:00:00.000Z","end":"2025-11-20T07:15:00.000Z"}},"request":{"method":"PUT","url":"Procedure/838e8a5f-c09c-4c1d-863b-496c4546326f"}},{"fullUrl":"https://madie.cms.gov/Condition/cdb48c9a-0e44-4a99-8f05-b2233c4b99c1","resource":{"resourceType":"Condition","id":"cdb48c9a-0e44-4a99-8f05-b2233c4b99c1","meta":{"profile":["http://hl7.org/fhir/us/qicore/StructureDefinition/qicore-condition"]},"clinicalStatus":{"coding":[{"system":"http://terminology.hl7.org/CodeSystem/condition-clinical","code":"active"}]},"verificationStatus":{"coding":[{"system":"http://terminology.hl7.org/CodeSystem/condition-ver-status","code":"confirmed"}]},"category":[{"coding":[{"system":"http://terminology.hl7.org/CodeSystem/condition-category","code":"encounter-diagnosis","display":"Encounter Diagnosis"}]}],"code":{"coding":[{"system":"http://snomed.info/sct","version":"2021-09","code":"111297002","display":"Nonparalytic stroke (disorder)","userSelected":true}]},"subject":{"reference":"Patient/3f1ce286-a824-44dd-9b5c-a8258afd4df0"},"recordedDate":"2025-10-13T08:00:00.000+00:00"},"request":{"method":"PUT","url":"Condition/cdb48c9a-0e44-4a99-8f05-b2233c4b99c1"}},{"fullUrl":"https://madie.cms.gov/Organization/aaf9c091-08fa-4de1-9651-889331ed02bd","resource":{"resourceType":"Organization","id":"26111c91-b0e2-476c-a20b-e3f39799f8f5","meta":{"profile":["http://hl7.org/fhir/us/qicore/StructureDefinition/qicore-organization"]},"identifier":[{"use":"temp","system":"urn:oid:2.16.840.1.113883.4.4","value":"21-3259825"}],"active":true,"type":[{"coding":[{"system":"http://terminology.hl7.org/CodeSystem/organization-type","code":"pay","display":"Payer"}]}],"name":"Blue Cross Blue Shield of Texas","telecom":[{"system":"phone","value":"(+1) 972-766-6900"}],"address":[{"use":"billing","type":"postal","line":["P.O. Box 660044"],"city":"Dallas","state":"TX","postalCode":"75266-0044","country":"USA"}]},"request":{"method":"PUT","url":"Organization/26111c91-b0e2-476c-a20b-e3f39799f8f5"}},{"fullUrl":"https://madie.cms.gov/Practitioner/9fc54a87-3c6e-4e23-8e87-f8f5e4fc032c","resource":{"resourceType":"Practitioner","id":"9fc54a87-3c6e-4e23-8e87-f8f5e4fc032c","identifier":[{"system":"http://hl7.org/fhir/sid/us-npi","value":"123456"}],"name":[{"family":"Evil","prefix":["Dr"]}]},"request":{"method":"PUT","url":"Practitioner/9fc54a87-3c6e-4e23-8e87-f8f5e4fc032c"}},{"fullUrl":"https://madie.cms.gov/MeasureReport/ebe5908c-8f4c-43a0-982a-6f3f7c6586f9","resource":{"resourceType":"MeasureReport","id":"ebe5908c-8f4c-43a0-982a-6f3f7c6586f9","meta":{"profile":["http://hl7.org/fhir/us/cqfmeasures/StructureDefinition/test-case-cqfm"]},"contained":[{"resourceType":"Parameters","id":"2f9374ef-5295-4672-991b-2864f193cb56-parameters","parameter":[{"name":"subject","valueString":"3f1ce286-a824-44dd-9b5c-a8258afd4df0"}]}],"extension":[{"url":"http://hl7.org/fhir/us/cqfmeasures/StructureDefinition/cqfm-inputParameters","valueReference":{"reference":"#2f9374ef-5295-4672-991b-2864f193cb56-parameters"}},{"url":"http://hl7.org/fhir/us/cqfmeasures/StructureDefinition/cqfm-testCaseDescription","valueMarkdown":"Pt. discharged on anticoagulant, starts during OccurA\n"}],"modifierExtension":[{"url":"http://hl7.org/fhir/us/cqfmeasures/StructureDefinition/cqfm-isTestCase","valueBoolean":true}],"status":"complete","type":"individual","measure":"https://madie.cms.gov/Measure/AnticoagulationTherapyforAtrialFibrillationFlutterFHIR","period":{"start":"2025-01-01","end":"2025-12-31"},"group":[{"population":[{"code":{"coding":[{"system":"http://terminology.hl7.org/CodeSystem/measure-population","code":"initial-population","display":"Initial Population"}]},"count":1},{"code":{"coding":[{"system":"http://terminology.hl7.org/CodeSystem/measure-population","code":"denominator","display":"Denominator"}]},"count":1},{"code":{"coding":[{"system":"http://terminology.hl7.org/CodeSystem/measure-population","code":"denominator-exclusion","display":"Denominator Exclusion"}]},"count":0},{"code":{"coding":[{"system":"http://terminology.hl7.org/CodeSystem/measure-population","code":"numerator","display":"Numerator"}]},"count":1},{"code":{"coding":[{"system":"http://terminology.hl7.org/CodeSystem/measure-population","code":"denominator-exception","display":"Denominator Exception"}]},"count":0}]}]},"request":{"method":"PUT","url":"MeasureReport/ebe5908c-8f4c-43a0-982a-6f3f7c6586f9"}}]}