{"resourceType":"Bundle","id":"tests-85774da1-da62-45f3-9bf8-12223f13d82a-bundle","type":"transaction","entry":[{"fullUrl":"https://madie.cms.gov/Patient/c7a0ac49-aab7-4ca1-bcc3-9b360c6971e2","resource":{"resourceType":"Patient","id":"c7a0ac49-aab7-4ca1-bcc3-9b360c6971e2","meta":{"profile":["http://hl7.org/fhir/us/qicore/StructureDefinition/qicore-patient"]},"text":{"status":"generated","div":"<div xmlns=\"http://www.w3.org/1999/xhtml\"><div class=\"hapiHeaderText\">DxAfibAtEncStart <b>DENOMPASS </b></div><table class=\"hapiPropertyTable\"><tbody><tr><td>Identifier</td><td>fd376d7a447108fc2cb6203808235ba3</td></tr><tr><td>Date of birth</td><td><span>01 December 1960</span></td></tr></tbody></table></div>"},"extension":[{"url":"http://hl7.org/fhir/us/core/StructureDefinition/us-core-race","extension":[{"url":"ombCategory","valueCoding":{"system":"urn:oid:2.16.840.1.113883.6.238","code":"1002-5","display":"American Indian or Alaska Native","userSelected":true}},{"url":"text","valueString":"American Indian or Alaska Native"}]},{"url":"http://hl7.org/fhir/us/core/StructureDefinition/us-core-ethnicity","extension":[{"url":"ombCategory","valueCoding":{"system":"urn:oid:2.16.840.1.113883.6.238","code":"2135-2","display":"Hispanic or Latino","userSelected":true}},{"url":"text","valueString":"Hispanic or Latino"}]}],"identifier":[{"type":{"coding":[{"system":"http://terminology.hl7.org/CodeSystem/v2-0203","code":"MR"}]},"system":"https://bonnie-fhir.healthit.gov/","value":"633c9d030968f8012250fc7c"}],"active":true,"name":[{"use":"usual","family":"DENOMPass","given":["DxAfibAtEncStart"]}],"gender":"male","birthDate":"1960-12-01"},"request":{"method":"PUT","url":"Patient/c7a0ac49-aab7-4ca1-bcc3-9b360c6971e2"}},{"fullUrl":"https://madie.cms.gov/Condition/913c593d-432d-4a23-a659-9dc6035ba702","resource":{"resourceType":"Condition","id":"913c593d-432d-4a23-a659-9dc6035ba702","meta":{"profile":["http://hl7.org/fhir/us/qicore/StructureDefinition/qicore-condition"]},"clinicalStatus":{"coding":[{"system":"http://terminology.hl7.org/CodeSystem/condition-clinical","code":"inactive"}]},"verificationStatus":{"coding":[{"system":"http://terminology.hl7.org/CodeSystem/condition-ver-status","code":"confirmed"}]},"category":[{"coding":[{"system":"http://terminology.hl7.org/CodeSystem/condition-category","code":"encounter-diagnosis","display":"Encounter Diagnosis"}]}],"code":{"coding":[{"system":"http://hl7.org/fhir/sid/icd-9-cm","code":"427.31"},{"system":"http://hl7.org/fhir/sid/icd-10-cm","code":"I48.0"},{"system":"http://snomed.info/sct","code":"5370000"}]},"subject":{"reference":"Patient/c7a0ac49-aab7-4ca1-bcc3-9b360c6971e2"},"onsetDateTime":"2025-02-08T08:00:00.000Z"},"request":{"method":"PUT","url":"Condition/913c593d-432d-4a23-a659-9dc6035ba702"}},{"fullUrl":"https://madie.cms.gov/Encounter/92607e91-6d5b-4f57-8fb6-e183c618fcce","resource":{"resourceType":"Encounter","id":"92607e91-6d5b-4f57-8fb6-e183c618fcce","meta":{"profile":["http://hl7.org/fhir/us/qicore/StructureDefinition/qicore-encounter"]},"status":"finished","class":{"system":"http://terminology.hl7.org/CodeSystem/v3-ActCode","code":"IMP","display":"inpatient encounter"},"type":[{"coding":[{"system":"http://snomed.info/sct","code":"32485007"}]}],"subject":{"reference":"Patient/c7a0ac49-aab7-4ca1-bcc3-9b360c6971e2"},"period":{"start":"2025-02-08T08:00:00.000Z","end":"2025-02-10T08:15:00.000Z"},"length":{"value":2,"unit":"days"},"diagnosis":[{"condition":{"reference":"Condition/5127b3d5-ef97-49e8-acad-065511c53f4d"},"use":{"coding":[{"system":"http://terminology.hl7.org/CodeSystem/diagnosis-role","code":"billing","display":"Billing"}]},"rank":1}]},"request":{"method":"PUT","url":"Encounter/92607e91-6d5b-4f57-8fb6-e183c618fcce"}},{"fullUrl":"https://madie.cms.gov/Coverage/5430650e-ab5a-4598-b402-d82b1d1c5078","resource":{"resourceType":"Coverage","id":"5430650e-ab5a-4598-b402-d82b1d1c5078","status":"active","beneficiary":{"reference":"Patient/c7a0ac49-aab7-4ca1-bcc3-9b360c6971e2"},"period":{"start":"1960-12-01T08:00:00.000Z"},"payor":[{"reference":"Organization/26111c91-b0e2-476c-a20b-e3f39799f8f5"}]},"request":{"method":"PUT","url":"Coverage/5430650e-ab5a-4598-b402-d82b1d1c5078"}},{"fullUrl":"https://madie.cms.gov/Condition/5127b3d5-ef97-49e8-acad-065511c53f4d","resource":{"resourceType":"Condition","id":"5127b3d5-ef97-49e8-acad-065511c53f4d","meta":{"profile":["http://hl7.org/fhir/us/qicore/StructureDefinition/qicore-condition"]},"clinicalStatus":{"coding":[{"system":"http://terminology.hl7.org/CodeSystem/condition-clinical","code":"active"}]},"verificationStatus":{"coding":[{"system":"http://terminology.hl7.org/CodeSystem/condition-ver-status","code":"confirmed"}]},"category":[{"coding":[{"system":"http://terminology.hl7.org/CodeSystem/condition-category","code":"encounter-diagnosis","display":"Encounter Diagnosis"}]}],"code":{"coding":[{"system":"http://snomed.info/sct","version":"2021-09","code":"111297002","display":"Nonparalytic stroke (disorder)","userSelected":true}]},"subject":{"reference":"Patient/c7a0ac49-aab7-4ca1-bcc3-9b360c6971e2"},"recordedDate":"2025-10-13T08:00:00.000+00:00"},"request":{"method":"PUT","url":"Condition/5127b3d5-ef97-49e8-acad-065511c53f4d"}},{"fullUrl":"https://madie.cms.gov/Organization/bdc62c56-f346-42f7-9df6-891c62b62ae8","resource":{"resourceType":"Organization","id":"26111c91-b0e2-476c-a20b-e3f39799f8f5","meta":{"profile":["http://hl7.org/fhir/us/qicore/StructureDefinition/qicore-organization"]},"identifier":[{"use":"temp","system":"urn:oid:2.16.840.1.113883.4.4","value":"21-3259825"}],"active":true,"type":[{"coding":[{"system":"http://terminology.hl7.org/CodeSystem/organization-type","code":"pay","display":"Payer"}]}],"name":"Blue Cross Blue Shield of Texas","telecom":[{"system":"phone","value":"(+1) 972-766-6900"}],"address":[{"use":"billing","type":"postal","line":["P.O. Box 660044"],"city":"Dallas","state":"TX","postalCode":"75266-0044","country":"USA"}]},"request":{"method":"PUT","url":"Organization/26111c91-b0e2-476c-a20b-e3f39799f8f5"}},{"fullUrl":"https://madie.cms.gov/Practitioner/3c461f53-a10f-4de2-9bbd-8ad002ebe1e4","resource":{"resourceType":"Practitioner","id":"3c461f53-a10f-4de2-9bbd-8ad002ebe1e4","identifier":[{"system":"http://hl7.org/fhir/sid/us-npi","value":"123456"}],"name":[{"family":"Evil","prefix":["Dr"]}]},"request":{"method":"PUT","url":"Practitioner/3c461f53-a10f-4de2-9bbd-8ad002ebe1e4"}},{"fullUrl":"https://madie.cms.gov/MeasureReport/6fa23eca-8368-46b3-a84b-ce24d97fe251","resource":{"resourceType":"MeasureReport","id":"6fa23eca-8368-46b3-a84b-ce24d97fe251","meta":{"profile":["http://hl7.org/fhir/us/cqfmeasures/StructureDefinition/test-case-cqfm"]},"contained":[{"resourceType":"Parameters","id":"c741d748-9ebd-4263-813d-f6ecae03071c-parameters","parameter":[{"name":"subject","valueString":"c7a0ac49-aab7-4ca1-bcc3-9b360c6971e2"}]}],"extension":[{"url":"http://hl7.org/fhir/us/cqfmeasures/StructureDefinition/cqfm-inputParameters","valueReference":{"reference":"#c741d748-9ebd-4263-813d-f6ecae03071c-parameters"}},{"url":"http://hl7.org/fhir/us/cqfmeasures/StructureDefinition/cqfm-testCaseDescription","valueMarkdown":"Afib as a condition, starts at start of OccurA\n"}],"modifierExtension":[{"url":"http://hl7.org/fhir/us/cqfmeasures/StructureDefinition/cqfm-isTestCase","valueBoolean":true}],"status":"complete","type":"individual","measure":"https://madie.cms.gov/Measure/AnticoagulationTherapyforAtrialFibrillationFlutterFHIR","period":{"start":"2025-01-01","end":"2025-12-31"},"group":[{"population":[{"code":{"coding":[{"system":"http://terminology.hl7.org/CodeSystem/measure-population","code":"initial-population","display":"Initial Population"}]},"count":1},{"code":{"coding":[{"system":"http://terminology.hl7.org/CodeSystem/measure-population","code":"denominator","display":"Denominator"}]},"count":1},{"code":{"coding":[{"system":"http://terminology.hl7.org/CodeSystem/measure-population","code":"denominator-exclusion","display":"Denominator Exclusion"}]},"count":0},{"code":{"coding":[{"system":"http://terminology.hl7.org/CodeSystem/measure-population","code":"numerator","display":"Numerator"}]},"count":0},{"code":{"coding":[{"system":"http://terminology.hl7.org/CodeSystem/measure-population","code":"denominator-exception","display":"Denominator Exception"}]},"count":0}]}]},"request":{"method":"PUT","url":"MeasureReport/6fa23eca-8368-46b3-a84b-ce24d97fe251"}}]}