{"resourceType":"Bundle","id":"tests-81386d2f-e6d7-4433-b477-314e658f8cfe-bundle","type":"transaction","entry":[{"fullUrl":"https://madie.cms.gov/Patient/32ad87d8-feef-49d7-87ec-c0328b126d60","resource":{"resourceType":"Patient","id":"32ad87d8-feef-49d7-87ec-c0328b126d60","meta":{"profile":["http://hl7.org/fhir/us/qicore/StructureDefinition/qicore-patient"]},"text":{"status":"generated","div":"<div xmlns=\"http://www.w3.org/1999/xhtml\"><div class=\"hapiHeaderText\">MedDCAnticoaStartTmEQEncAdmTm <b>NUMERPASS </b></div><table class=\"hapiPropertyTable\"><tbody><tr><td>Identifier</td><td>31fcea6cd6f0c1c8b9c40622729fede7</td></tr><tr><td>Date of birth</td><td><span>23 May 1954</span></td></tr></tbody></table></div>"},"extension":[{"url":"http://hl7.org/fhir/us/core/StructureDefinition/us-core-race","extension":[{"url":"ombCategory","valueCoding":{"system":"urn:oid:2.16.840.1.113883.6.238","code":"1002-5","display":"American Indian or Alaska Native","userSelected":true}},{"url":"text","valueString":"American Indian or Alaska Native"}]},{"url":"http://hl7.org/fhir/us/core/StructureDefinition/us-core-ethnicity","extension":[{"url":"ombCategory","valueCoding":{"system":"urn:oid:2.16.840.1.113883.6.238","code":"2135-2","display":"Hispanic or Latino","userSelected":true}},{"url":"text","valueString":"Hispanic or Latino"}]}],"identifier":[{"type":{"coding":[{"system":"http://terminology.hl7.org/CodeSystem/v2-0203","code":"MR"}]},"system":"https://bonnie-fhir.healthit.gov/","value":"633c9d030968f8012250fc93"}],"active":true,"name":[{"use":"usual","family":"NUMERPass","given":["MedDCAnticoaStartTmEQEncAdmTm"]}],"gender":"female","birthDate":"1954-05-23"},"request":{"method":"PUT","url":"Patient/32ad87d8-feef-49d7-87ec-c0328b126d60"}},{"fullUrl":"https://madie.cms.gov/Condition/c8a8c7c8-9e94-477c-82a5-158c1933cfb4","resource":{"resourceType":"Condition","id":"c8a8c7c8-9e94-477c-82a5-158c1933cfb4","meta":{"profile":["http://hl7.org/fhir/us/qicore/StructureDefinition/qicore-condition"]},"clinicalStatus":{"coding":[{"system":"http://terminology.hl7.org/CodeSystem/condition-clinical","code":"inactive"}]},"verificationStatus":{"coding":[{"system":"http://terminology.hl7.org/CodeSystem/condition-ver-status","code":"confirmed"}]},"category":[{"coding":[{"system":"http://terminology.hl7.org/CodeSystem/condition-category","code":"encounter-diagnosis","display":"Encounter Diagnosis"}]}],"code":{"coding":[{"system":"http://snomed.info/sct","code":"195080001"},{"system":"http://hl7.org/fhir/sid/icd-9-cm","code":"427.31"},{"system":"http://hl7.org/fhir/sid/icd-10-cm","code":"I48.0"}]},"subject":{"reference":"Patient/32ad87d8-feef-49d7-87ec-c0328b126d60"},"onsetDateTime":"2025-11-20T06:00:00.000Z","abatementDateTime":"2025-11-20T07:15:00.000Z"},"request":{"method":"PUT","url":"Condition/c8a8c7c8-9e94-477c-82a5-158c1933cfb4"}},{"fullUrl":"https://madie.cms.gov/Encounter/322d80c5-ef22-4e7f-8760-705b4ffb9d4c","resource":{"resourceType":"Encounter","id":"322d80c5-ef22-4e7f-8760-705b4ffb9d4c","meta":{"profile":["http://hl7.org/fhir/us/qicore/StructureDefinition/qicore-encounter"]},"status":"finished","class":{"system":"http://terminology.hl7.org/CodeSystem/v3-ActCode","code":"IMP","display":"inpatient encounter"},"type":[{"coding":[{"system":"http://snomed.info/sct","code":"32485007"}]}],"subject":{"reference":"Patient/32ad87d8-feef-49d7-87ec-c0328b126d60"},"period":{"start":"2025-11-20T08:00:00.000Z","end":"2025-11-24T08:15:00.000Z"},"length":{"value":4,"unit":"days"},"diagnosis":[{"condition":{"reference":"Condition/08a31fb9-81ef-4e7f-8c68-ffe5d1732821"},"use":{"coding":[{"system":"http://terminology.hl7.org/CodeSystem/diagnosis-role","code":"billing","display":"Billing"}]},"rank":1}]},"request":{"method":"PUT","url":"Encounter/322d80c5-ef22-4e7f-8760-705b4ffb9d4c"}},{"fullUrl":"https://madie.cms.gov/MedicationRequest/515d3cb8-534e-4722-ba27-48dc8f782bb5","resource":{"resourceType":"MedicationRequest","id":"515d3cb8-534e-4722-ba27-48dc8f782bb5","meta":{"profile":["http://hl7.org/fhir/us/qicore/StructureDefinition/qicore-medicationrequest"]},"status":"active","intent":"order","category":[{"coding":[{"system":"http://terminology.hl7.org/CodeSystem/medicationrequest-category","code":"community","display":"Community","userSelected":true}]}],"medicationCodeableConcept":{"coding":[{"system":"http://www.nlm.nih.gov/research/umls/rxnorm","code":"308351"}]},"subject":{"reference":"Patient/32ad87d8-feef-49d7-87ec-c0328b126d60"},"authoredOn":"2025-11-20T08:00:00.000+00:00","requester":{"reference":"Practitioner/example"}},"request":{"method":"PUT","url":"MedicationRequest/515d3cb8-534e-4722-ba27-48dc8f782bb5"}},{"fullUrl":"https://madie.cms.gov/Coverage/be8bccbf-bbc5-4983-9cfb-76257e775027","resource":{"resourceType":"Coverage","id":"be8bccbf-bbc5-4983-9cfb-76257e775027","status":"active","beneficiary":{"reference":"Patient/32ad87d8-feef-49d7-87ec-c0328b126d60"},"period":{"start":"1954-05-23T08:00:00.000Z"},"payor":[{"reference":"Organization/26111c91-b0e2-476c-a20b-e3f39799f8f5"}]},"request":{"method":"PUT","url":"Coverage/be8bccbf-bbc5-4983-9cfb-76257e775027"}},{"fullUrl":"https://madie.cms.gov/Condition/08a31fb9-81ef-4e7f-8c68-ffe5d1732821","resource":{"resourceType":"Condition","id":"08a31fb9-81ef-4e7f-8c68-ffe5d1732821","meta":{"profile":["http://hl7.org/fhir/us/qicore/StructureDefinition/qicore-condition"]},"clinicalStatus":{"coding":[{"system":"http://terminology.hl7.org/CodeSystem/condition-clinical","code":"active"}]},"verificationStatus":{"coding":[{"system":"http://terminology.hl7.org/CodeSystem/condition-ver-status","code":"confirmed"}]},"category":[{"coding":[{"system":"http://terminology.hl7.org/CodeSystem/condition-category","code":"encounter-diagnosis","display":"Encounter Diagnosis"}]}],"code":{"coding":[{"system":"http://snomed.info/sct","version":"2021-09","code":"111297002","display":"Nonparalytic stroke (disorder)","userSelected":true}]},"subject":{"reference":"Patient/32ad87d8-feef-49d7-87ec-c0328b126d60"},"recordedDate":"2025-10-13T08:00:00.000+00:00"},"request":{"method":"PUT","url":"Condition/08a31fb9-81ef-4e7f-8c68-ffe5d1732821"}},{"fullUrl":"https://madie.cms.gov/Organization/5e45351f-187a-424f-9a19-f747449742ad","resource":{"resourceType":"Organization","id":"26111c91-b0e2-476c-a20b-e3f39799f8f5","meta":{"profile":["http://hl7.org/fhir/us/qicore/StructureDefinition/qicore-organization"]},"identifier":[{"use":"temp","system":"urn:oid:2.16.840.1.113883.4.4","value":"21-3259825"}],"active":true,"type":[{"coding":[{"system":"http://terminology.hl7.org/CodeSystem/organization-type","code":"pay","display":"Payer"}]}],"name":"Blue Cross Blue Shield of Texas","telecom":[{"system":"phone","value":"(+1) 972-766-6900"}],"address":[{"use":"billing","type":"postal","line":["P.O. Box 660044"],"city":"Dallas","state":"TX","postalCode":"75266-0044","country":"USA"}]},"request":{"method":"PUT","url":"Organization/26111c91-b0e2-476c-a20b-e3f39799f8f5"}},{"fullUrl":"https://madie.cms.gov/Practitioner/2b61cc2b-c7cd-4922-8f2a-3958afd14bba","resource":{"resourceType":"Practitioner","id":"2b61cc2b-c7cd-4922-8f2a-3958afd14bba","identifier":[{"system":"http://hl7.org/fhir/sid/us-npi","value":"123456"}],"name":[{"family":"Evil","prefix":["Dr"]}]},"request":{"method":"PUT","url":"Practitioner/2b61cc2b-c7cd-4922-8f2a-3958afd14bba"}},{"fullUrl":"https://madie.cms.gov/MeasureReport/1da69843-64d8-43d3-90f5-9eb6b048d64c","resource":{"resourceType":"MeasureReport","id":"1da69843-64d8-43d3-90f5-9eb6b048d64c","meta":{"profile":["http://hl7.org/fhir/us/cqfmeasures/StructureDefinition/test-case-cqfm"]},"contained":[{"resourceType":"Parameters","id":"f70ddbed-fc1b-46cc-bda5-aed23975ec46-parameters","parameter":[{"name":"subject","valueString":"32ad87d8-feef-49d7-87ec-c0328b126d60"}]}],"extension":[{"url":"http://hl7.org/fhir/us/cqfmeasures/StructureDefinition/cqfm-inputParameters","valueReference":{"reference":"#f70ddbed-fc1b-46cc-bda5-aed23975ec46-parameters"}},{"url":"http://hl7.org/fhir/us/cqfmeasures/StructureDefinition/cqfm-testCaseDescription","valueMarkdown":"Pt. discharged on anticoagulant, starts same time as OccurA, patient has a history of atrial fibrillation\n"}],"modifierExtension":[{"url":"http://hl7.org/fhir/us/cqfmeasures/StructureDefinition/cqfm-isTestCase","valueBoolean":true}],"status":"complete","type":"individual","measure":"https://madie.cms.gov/Measure/AnticoagulationTherapyforAtrialFibrillationFlutterFHIR","period":{"start":"2025-01-01","end":"2025-12-31"},"group":[{"population":[{"code":{"coding":[{"system":"http://terminology.hl7.org/CodeSystem/measure-population","code":"initial-population","display":"Initial Population"}]},"count":1},{"code":{"coding":[{"system":"http://terminology.hl7.org/CodeSystem/measure-population","code":"denominator","display":"Denominator"}]},"count":1},{"code":{"coding":[{"system":"http://terminology.hl7.org/CodeSystem/measure-population","code":"denominator-exclusion","display":"Denominator Exclusion"}]},"count":0},{"code":{"coding":[{"system":"http://terminology.hl7.org/CodeSystem/measure-population","code":"numerator","display":"Numerator"}]},"count":1},{"code":{"coding":[{"system":"http://terminology.hl7.org/CodeSystem/measure-population","code":"denominator-exception","display":"Denominator Exception"}]},"count":0}]}]},"request":{"method":"PUT","url":"MeasureReport/1da69843-64d8-43d3-90f5-9eb6b048d64c"}}]}