{"resourceType":"Bundle","id":"tests-52951a0c-ccd4-4e47-9133-16ff3984ef12-bundle","type":"transaction","entry":[{"fullUrl":"https://madie.cms.gov/Patient/6c75a932-b20d-4857-91e6-c6116539a8cd","resource":{"resourceType":"Patient","id":"6c75a932-b20d-4857-91e6-c6116539a8cd","meta":{"profile":["http://hl7.org/fhir/us/qicore/StructureDefinition/qicore-patient"]},"text":{"status":"generated","div":"<div xmlns=\"http://www.w3.org/1999/xhtml\"><div class=\"hapiHeaderText\">PatientExpired <b>DENEXPASS </b></div><table class=\"hapiPropertyTable\"><tbody><tr><td>Identifier</td><td>c3d01f7f78785bb49d9eef86bf245a1a</td></tr><tr><td>Date of birth</td><td><span>31 July 1969</span></td></tr></tbody></table></div>"},"extension":[{"url":"http://hl7.org/fhir/us/core/StructureDefinition/us-core-race","extension":[{"url":"ombCategory","valueCoding":{"system":"urn:oid:2.16.840.1.113883.6.238","code":"1002-5","display":"American Indian or Alaska Native","userSelected":true}},{"url":"text","valueString":"American Indian or Alaska Native"}]},{"url":"http://hl7.org/fhir/us/core/StructureDefinition/us-core-ethnicity","extension":[{"url":"ombCategory","valueCoding":{"system":"urn:oid:2.16.840.1.113883.6.238","code":"2135-2","display":"Hispanic or Latino","userSelected":true}},{"url":"text","valueString":"Hispanic or Latino"}]}],"identifier":[{"type":{"coding":[{"system":"http://terminology.hl7.org/CodeSystem/v2-0203","code":"MR"}]},"system":"https://bonnie-fhir.healthit.gov/","value":"633c9d020968f8012250fc68"}],"active":true,"name":[{"use":"usual","family":"DENEXPass","given":["PatientExpired"]}],"gender":"male","birthDate":"1969-07-31"},"request":{"method":"PUT","url":"Patient/6c75a932-b20d-4857-91e6-c6116539a8cd"}},{"fullUrl":"https://madie.cms.gov/Encounter/6bded34a-e8f4-4aec-97e4-5b76f6f6cd66","resource":{"resourceType":"Encounter","id":"6bded34a-e8f4-4aec-97e4-5b76f6f6cd66","meta":{"profile":["http://hl7.org/fhir/us/qicore/StructureDefinition/qicore-encounter"]},"status":"finished","class":{"system":"http://terminology.hl7.org/CodeSystem/v3-ActCode","code":"IMP","display":"inpatient encounter"},"type":[{"coding":[{"system":"http://snomed.info/sct","code":"32485007"}]}],"subject":{"reference":"Patient/6c75a932-b20d-4857-91e6-c6116539a8cd"},"period":{"start":"2025-11-20T08:00:00.000Z","end":"2025-11-24T08:15:00.000Z"},"length":{"value":4,"unit":"days"},"diagnosis":[{"condition":{"reference":"Condition/895d6993-3660-497d-a457-813e52e056e2"},"use":{"coding":[{"system":"http://terminology.hl7.org/CodeSystem/diagnosis-role","code":"billing","display":"Billing"}]},"rank":1}],"hospitalization":{"dischargeDisposition":{"coding":[{"system":"http://snomed.info/sct","code":"371828006","display":"Patient Expired"}]}}},"request":{"method":"PUT","url":"Encounter/6bded34a-e8f4-4aec-97e4-5b76f6f6cd66"}},{"fullUrl":"https://madie.cms.gov/Coverage/7bad5651-9bae-4380-975b-2d0e95aa4adb","resource":{"resourceType":"Coverage","id":"7bad5651-9bae-4380-975b-2d0e95aa4adb","status":"active","beneficiary":{"reference":"Patient/6c75a932-b20d-4857-91e6-c6116539a8cd"},"period":{"start":"1969-07-31T08:00:00.000Z"},"payor":[{"reference":"Organization/26111c91-b0e2-476c-a20b-e3f39799f8f5"}]},"request":{"method":"PUT","url":"Coverage/7bad5651-9bae-4380-975b-2d0e95aa4adb"}},{"fullUrl":"https://madie.cms.gov/Procedure/f7046d4b-5c2b-4ce7-9f90-eed041e300cd","resource":{"resourceType":"Procedure","id":"f7046d4b-5c2b-4ce7-9f90-eed041e300cd","meta":{"profile":["http://hl7.org/fhir/us/qicore/StructureDefinition/qicore-procedure"]},"extension":[{"url":"http://hl7.org/fhir/us/qicore/StructureDefinition/qicore-recorded","valueDateTime":"2025-11-19T09:35:00-04:00"}],"status":"completed","code":{"coding":[{"system":"http://www.cms.gov/Medicare/Coding/ICD10","code":"02560ZZ"},{"system":"http://snomed.info/sct","code":"175095005"}]},"subject":{"reference":"Patient/6c75a932-b20d-4857-91e6-c6116539a8cd"},"performedPeriod":{"start":"2025-11-19T08:00:00.000Z","end":"2025-11-20T08:15:00.000Z"}},"request":{"method":"PUT","url":"Procedure/f7046d4b-5c2b-4ce7-9f90-eed041e300cd"}},{"fullUrl":"https://madie.cms.gov/Condition/895d6993-3660-497d-a457-813e52e056e2","resource":{"resourceType":"Condition","id":"895d6993-3660-497d-a457-813e52e056e2","meta":{"profile":["http://hl7.org/fhir/us/qicore/StructureDefinition/qicore-condition"]},"clinicalStatus":{"coding":[{"system":"http://terminology.hl7.org/CodeSystem/condition-clinical","code":"active"}]},"verificationStatus":{"coding":[{"system":"http://terminology.hl7.org/CodeSystem/condition-ver-status","code":"confirmed"}]},"category":[{"coding":[{"system":"http://terminology.hl7.org/CodeSystem/condition-category","code":"encounter-diagnosis","display":"Encounter Diagnosis"}]}],"code":{"coding":[{"system":"http://snomed.info/sct","version":"2021-09","code":"111297002","display":"Nonparalytic stroke (disorder)","userSelected":true}]},"subject":{"reference":"Patient/6c75a932-b20d-4857-91e6-c6116539a8cd"},"recordedDate":"2025-10-13T08:00:00.000+00:00"},"request":{"method":"PUT","url":"Condition/895d6993-3660-497d-a457-813e52e056e2"}},{"fullUrl":"https://madie.cms.gov/Organization/4b08def9-4cd1-4b83-a8b0-9b2c476651c0","resource":{"resourceType":"Organization","id":"26111c91-b0e2-476c-a20b-e3f39799f8f5","meta":{"profile":["http://hl7.org/fhir/us/qicore/StructureDefinition/qicore-organization"]},"identifier":[{"use":"temp","system":"urn:oid:2.16.840.1.113883.4.4","value":"21-3259825"}],"active":true,"type":[{"coding":[{"system":"http://terminology.hl7.org/CodeSystem/organization-type","code":"pay","display":"Payer"}]}],"name":"Blue Cross Blue Shield of Texas","telecom":[{"system":"phone","value":"(+1) 972-766-6900"}],"address":[{"use":"billing","type":"postal","line":["P.O. Box 660044"],"city":"Dallas","state":"TX","postalCode":"75266-0044","country":"USA"}]},"request":{"method":"PUT","url":"Organization/26111c91-b0e2-476c-a20b-e3f39799f8f5"}},{"fullUrl":"https://madie.cms.gov/Practitioner/6627e42b-455b-4f60-9363-1075936c6e1f","resource":{"resourceType":"Practitioner","id":"6627e42b-455b-4f60-9363-1075936c6e1f","identifier":[{"system":"http://hl7.org/fhir/sid/us-npi","value":"123456"}],"name":[{"family":"Evil","prefix":["Dr"]}]},"request":{"method":"PUT","url":"Practitioner/6627e42b-455b-4f60-9363-1075936c6e1f"}},{"fullUrl":"https://madie.cms.gov/MeasureReport/31912417-fcd7-4aa1-9f44-045ed330dba8","resource":{"resourceType":"MeasureReport","id":"31912417-fcd7-4aa1-9f44-045ed330dba8","meta":{"profile":["http://hl7.org/fhir/us/cqfmeasures/StructureDefinition/test-case-cqfm"]},"contained":[{"resourceType":"Parameters","id":"089b210a-9a6a-4da7-b550-d47fa634a8f2-parameters","parameter":[{"name":"subject","valueString":"6c75a932-b20d-4857-91e6-c6116539a8cd"}]}],"extension":[{"url":"http://hl7.org/fhir/us/cqfmeasures/StructureDefinition/cqfm-inputParameters","valueReference":{"reference":"#089b210a-9a6a-4da7-b550-d47fa634a8f2-parameters"}},{"url":"http://hl7.org/fhir/us/cqfmeasures/StructureDefinition/cqfm-testCaseDescription","valueMarkdown":"Patient expired.\n"}],"modifierExtension":[{"url":"http://hl7.org/fhir/us/cqfmeasures/StructureDefinition/cqfm-isTestCase","valueBoolean":true}],"status":"complete","type":"individual","measure":"https://madie.cms.gov/Measure/AnticoagulationTherapyforAtrialFibrillationFlutterFHIR","period":{"start":"2025-01-01","end":"2025-12-31"},"group":[{"population":[{"code":{"coding":[{"system":"http://terminology.hl7.org/CodeSystem/measure-population","code":"initial-population","display":"Initial Population"}]},"count":1},{"code":{"coding":[{"system":"http://terminology.hl7.org/CodeSystem/measure-population","code":"denominator","display":"Denominator"}]},"count":1},{"code":{"coding":[{"system":"http://terminology.hl7.org/CodeSystem/measure-population","code":"denominator-exclusion","display":"Denominator Exclusion"}]},"count":1},{"code":{"coding":[{"system":"http://terminology.hl7.org/CodeSystem/measure-population","code":"numerator","display":"Numerator"}]},"count":0},{"code":{"coding":[{"system":"http://terminology.hl7.org/CodeSystem/measure-population","code":"denominator-exception","display":"Denominator Exception"}]},"count":0}]}]},"request":{"method":"PUT","url":"MeasureReport/31912417-fcd7-4aa1-9f44-045ed330dba8"}}]}