{"resourceType":"Bundle","id":"tests-c7da5140-b9ed-4122-a159-914963fe387f-bundle","type":"transaction","entry":[{"fullUrl":"https://madie.cms.gov/Patient/6a4af5c7-e48f-427f-b70d-e8372829ef91","resource":{"resourceType":"Patient","id":"6a4af5c7-e48f-427f-b70d-e8372829ef91","meta":{"profile":["http://hl7.org/fhir/us/qicore/StructureDefinition/qicore-patient"]},"text":{"status":"generated","div":"<div xmlns=\"http://www.w3.org/1999/xhtml\"><div class=\"hapiHeaderText\">CMOdurED_ED&gt;1hrNoObsBFEnc <b>DENEXFAIL </b></div><table class=\"hapiPropertyTable\"><tbody><tr><td>Identifier</td><td>9cbedc03548b163b74bc78c7e9738116</td></tr><tr><td>Date of birth</td><td><span>18 September 1985</span></td></tr></tbody></table></div>"},"extension":[{"url":"http://hl7.org/fhir/us/core/StructureDefinition/us-core-race","extension":[{"url":"ombCategory","valueCoding":{"system":"urn:oid:2.16.840.1.113883.6.238","code":"1002-5","display":"American Indian or Alaska Native","userSelected":true}},{"url":"text","valueString":"American Indian or Alaska Native"}]},{"url":"http://hl7.org/fhir/us/core/StructureDefinition/us-core-ethnicity","extension":[{"url":"ombCategory","valueCoding":{"system":"urn:oid:2.16.840.1.113883.6.238","code":"2135-2","display":"Hispanic or Latino","userSelected":true}},{"url":"text","valueString":"Hispanic or Latino"}]}],"identifier":[{"type":{"coding":[{"system":"http://terminology.hl7.org/CodeSystem/v2-0203","code":"MR"}]},"system":"https://bonnie-fhir.healthit.gov/","value":"633c9d030968f8012250fc82"}],"active":true,"name":[{"use":"usual","family":"DENEXFail","given":["CMOdurED_ED>1hrNoObsBFEnc"]}],"gender":"female","birthDate":"1985-09-18"},"request":{"method":"PUT","url":"Patient/6a4af5c7-e48f-427f-b70d-e8372829ef91"}},{"fullUrl":"https://madie.cms.gov/Condition/8b135b35-5893-417f-8235-beeef11ea239","resource":{"resourceType":"Condition","id":"8b135b35-5893-417f-8235-beeef11ea239","meta":{"profile":["http://hl7.org/fhir/us/qicore/StructureDefinition/qicore-condition"]},"clinicalStatus":{"coding":[{"system":"http://terminology.hl7.org/CodeSystem/condition-clinical","code":"inactive"}]},"verificationStatus":{"coding":[{"system":"http://terminology.hl7.org/CodeSystem/condition-ver-status","code":"confirmed"}]},"category":[{"coding":[{"system":"http://terminology.hl7.org/CodeSystem/condition-category","code":"encounter-diagnosis","display":"Encounter Diagnosis"}]}],"code":{"coding":[{"system":"http://hl7.org/fhir/sid/icd-9-cm","code":"427.31"},{"system":"http://hl7.org/fhir/sid/icd-10-cm","code":"I48.0"},{"system":"http://snomed.info/sct","code":"5370000"}]},"subject":{"reference":"Patient/6a4af5c7-e48f-427f-b70d-e8372829ef91"},"onsetDateTime":"2025-10-01T09:00:00.000Z","abatementDateTime":"2025-10-12T00:15:00.000Z"},"request":{"method":"PUT","url":"Condition/8b135b35-5893-417f-8235-beeef11ea239"}},{"fullUrl":"https://madie.cms.gov/Encounter/f8e6bf0d-dab9-4d65-a7ff-48fc7802cb78","resource":{"resourceType":"Encounter","id":"f8e6bf0d-dab9-4d65-a7ff-48fc7802cb78","meta":{"profile":["http://hl7.org/fhir/us/qicore/StructureDefinition/qicore-encounter"]},"status":"finished","class":{"system":"http://terminology.hl7.org/CodeSystem/v3-ActCode","code":"EMER","display":"emergency"},"type":[{"coding":[{"system":"http://snomed.info/sct","code":"4525004"}]}],"subject":{"reference":"Patient/6a4af5c7-e48f-427f-b70d-e8372829ef91"},"period":{"start":"2025-09-30T07:59:00.000Z","end":"2025-09-30T09:00:00.000Z"},"length":{"value":0,"unit":"days"}},"request":{"method":"PUT","url":"Encounter/f8e6bf0d-dab9-4d65-a7ff-48fc7802cb78"}},{"fullUrl":"https://madie.cms.gov/Encounter/06d09df4-03c3-42ae-8141-dee7ce2bc2e6","resource":{"resourceType":"Encounter","id":"06d09df4-03c3-42ae-8141-dee7ce2bc2e6","meta":{"profile":["http://hl7.org/fhir/us/qicore/StructureDefinition/qicore-encounter"]},"status":"finished","class":{"system":"http://terminology.hl7.org/CodeSystem/v3-ActCode","code":"IMP","display":"inpatient encounter"},"type":[{"coding":[{"system":"http://snomed.info/sct","code":"32485007"}]}],"subject":{"reference":"Patient/6a4af5c7-e48f-427f-b70d-e8372829ef91"},"period":{"start":"2025-09-30T10:01:00.000Z","end":"2025-10-12T00:15:00.000Z"},"length":{"value":12,"unit":"days"},"diagnosis":[{"condition":{"reference":"Condition/a67ee76d-9668-4964-83e0-9fbd2a38d5ea"},"use":{"coding":[{"system":"http://terminology.hl7.org/CodeSystem/diagnosis-role","code":"billing","display":"Billing"}]},"rank":1}]},"request":{"method":"PUT","url":"Encounter/06d09df4-03c3-42ae-8141-dee7ce2bc2e6"}},{"fullUrl":"https://madie.cms.gov/ServiceRequest/63f1a0f1-e6c5-4a76-99b0-4daefc089923","resource":{"resourceType":"ServiceRequest","id":"63f1a0f1-e6c5-4a76-99b0-4daefc089923","meta":{"profile":["http://hl7.org/fhir/us/qicore/StructureDefinition/qicore-servicerequest"]},"status":"active","intent":"order","code":{"coding":[{"system":"http://snomed.info/sct","code":"133918004"}]},"subject":{"reference":"Patient/6a4af5c7-e48f-427f-b70d-e8372829ef91"},"authoredOn":"2025-09-30T08:01:00.000+00:00"},"request":{"method":"PUT","url":"ServiceRequest/63f1a0f1-e6c5-4a76-99b0-4daefc089923"}},{"fullUrl":"https://madie.cms.gov/Coverage/42961e0f-defb-4fc8-820c-8e43d5a959f5","resource":{"resourceType":"Coverage","id":"42961e0f-defb-4fc8-820c-8e43d5a959f5","status":"active","beneficiary":{"reference":"Patient/6a4af5c7-e48f-427f-b70d-e8372829ef91"},"period":{"start":"1985-09-18T08:00:00.000Z"},"payor":[{"reference":"Organization/26111c91-b0e2-476c-a20b-e3f39799f8f5"}]},"request":{"method":"PUT","url":"Coverage/42961e0f-defb-4fc8-820c-8e43d5a959f5"}},{"fullUrl":"https://madie.cms.gov/Condition/a67ee76d-9668-4964-83e0-9fbd2a38d5ea","resource":{"resourceType":"Condition","id":"a67ee76d-9668-4964-83e0-9fbd2a38d5ea","meta":{"profile":["http://hl7.org/fhir/us/qicore/StructureDefinition/qicore-condition"]},"clinicalStatus":{"coding":[{"system":"http://terminology.hl7.org/CodeSystem/condition-clinical","code":"active"}]},"verificationStatus":{"coding":[{"system":"http://terminology.hl7.org/CodeSystem/condition-ver-status","code":"confirmed"}]},"category":[{"coding":[{"system":"http://terminology.hl7.org/CodeSystem/condition-category","code":"encounter-diagnosis","display":"Encounter Diagnosis"}]}],"code":{"coding":[{"system":"http://snomed.info/sct","version":"2021-09","code":"111297002","display":"Nonparalytic stroke (disorder)","userSelected":true}]},"subject":{"reference":"Patient/6a4af5c7-e48f-427f-b70d-e8372829ef91"},"recordedDate":"2025-10-13T08:00:00.000+00:00"},"request":{"method":"PUT","url":"Condition/a67ee76d-9668-4964-83e0-9fbd2a38d5ea"}},{"fullUrl":"https://madie.cms.gov/Organization/62d4d107-3066-4c7a-b437-6c2d29760680","resource":{"resourceType":"Organization","id":"26111c91-b0e2-476c-a20b-e3f39799f8f5","meta":{"profile":["http://hl7.org/fhir/us/qicore/StructureDefinition/qicore-organization"]},"identifier":[{"use":"temp","system":"urn:oid:2.16.840.1.113883.4.4","value":"21-3259825"}],"active":true,"type":[{"coding":[{"system":"http://terminology.hl7.org/CodeSystem/organization-type","code":"pay","display":"Payer"}]}],"name":"Blue Cross Blue Shield of Texas","telecom":[{"system":"phone","value":"(+1) 972-766-6900"}],"address":[{"use":"billing","type":"postal","line":["P.O. Box 660044"],"city":"Dallas","state":"TX","postalCode":"75266-0044","country":"USA"}]},"request":{"method":"PUT","url":"Organization/26111c91-b0e2-476c-a20b-e3f39799f8f5"}},{"fullUrl":"https://madie.cms.gov/MeasureReport/f6a811ea-d895-4f9b-8f0c-558fea92bf37","resource":{"resourceType":"MeasureReport","id":"f6a811ea-d895-4f9b-8f0c-558fea92bf37","meta":{"profile":["http://hl7.org/fhir/us/cqfmeasures/StructureDefinition/test-case-cqfm"]},"contained":[{"resourceType":"Parameters","id":"1476cfd7-2e15-4ad6-92d6-e54cde3a96ee-parameters","parameter":[{"name":"subject","valueString":"6a4af5c7-e48f-427f-b70d-e8372829ef91"}]}],"extension":[{"url":"http://hl7.org/fhir/us/cqfmeasures/StructureDefinition/cqfm-inputParameters","valueReference":{"reference":"#1476cfd7-2e15-4ad6-92d6-e54cde3a96ee-parameters"}},{"url":"http://hl7.org/fhir/us/cqfmeasures/StructureDefinition/cqfm-testCaseDescription","valueMarkdown":"Patient receives CMO during ED. ED ends 61 min before inaptient start. No Obs. Testing HospitalizationWithObservation function\n"}],"modifierExtension":[{"url":"http://hl7.org/fhir/us/cqfmeasures/StructureDefinition/cqfm-isTestCase","valueBoolean":true}],"status":"complete","type":"individual","measure":"https://madie.cms.gov/Measure/AnticoagulationTherapyforAtrialFibrillationFlutterFHIR","period":{"start":"2025-01-01","end":"2025-12-31"},"group":[{"population":[{"code":{"coding":[{"system":"http://terminology.hl7.org/CodeSystem/measure-population","code":"initial-population","display":"Initial Population"}]},"count":1},{"code":{"coding":[{"system":"http://terminology.hl7.org/CodeSystem/measure-population","code":"denominator","display":"Denominator"}]},"count":1},{"code":{"coding":[{"system":"http://terminology.hl7.org/CodeSystem/measure-population","code":"denominator-exclusion","display":"Denominator Exclusion"}]},"count":0},{"code":{"coding":[{"system":"http://terminology.hl7.org/CodeSystem/measure-population","code":"numerator","display":"Numerator"}]},"count":0},{"code":{"coding":[{"system":"http://terminology.hl7.org/CodeSystem/measure-population","code":"denominator-exception","display":"Denominator Exception"}]},"count":0}]}]},"request":{"method":"PUT","url":"MeasureReport/f6a811ea-d895-4f9b-8f0c-558fea92bf37"}}]}