{
  "resourceType": "Bundle",
  "id": "612e6b1702c62a011f2ec653",
  "type": "transaction",
  "entry": [ {
    "fullUrl": "https://madie.cms.gov/Patient/1d907390-04db-46f5-b429-955aa427e815",
    "resource": {
      "resourceType": "Patient",
      "id": "1d907390-04db-46f5-b429-955aa427e815",
      "meta": {
        "profile": [ "http://hl7.org/fhir/us/qicore/StructureDefinition/qicore-patient" ]
      },
      "text": {
        "status": "generated",
        "div": "<div xmlns=\"http://www.w3.org/1999/xhtml\"><div class=\"hapiHeaderText\">NOccur1FailIP1NumMAWarfSameDayBFAdmit <b>NUMERPASS </b></div><table class=\"hapiPropertyTable\"><tbody><tr><td>Identifier</td><td>f6b3ce4fb2b87a4aa5f00ca8118e0e9a</td></tr><tr><td>Date of birth</td><td><span>02 January 1974</span></td></tr></tbody></table></div>"
      },
      "extension": [ {
        "url": "http://hl7.org/fhir/us/core/StructureDefinition/us-core-race",
        "extension": [ {
          "url": "ombCategory",
          "valueCoding": {
            "system": "urn:oid:2.16.840.1.113883.6.238",
            "code": "1002-5",
            "display": "American Indian or Alaska Native",
            "userSelected": true
          }
        }, {
          "url": "text",
          "valueString": "American Indian or Alaska Native"
        } ]
      }, {
        "url": "http://hl7.org/fhir/us/core/StructureDefinition/us-core-ethnicity",
        "extension": [ {
          "url": "ombCategory",
          "valueCoding": {
            "system": "urn:oid:2.16.840.1.113883.6.238",
            "code": "2135-2",
            "display": "Hispanic or Latino",
            "userSelected": true
          }
        }, {
          "url": "text",
          "valueString": "Hispanic or Latino"
        } ]
      } ],
      "identifier": [ {
        "type": {
          "coding": [ {
            "system": "http://terminology.hl7.org/CodeSystem/v2-0203",
            "code": "MR"
          } ]
        },
        "system": "https://bonnie-fhir.healthit.gov/",
        "value": "612e6b1702c62a011f2ec653"
      } ],
      "active": true,
      "name": [ {
        "use": "usual",
        "family": "NUMERPass",
        "given": [ "NOccur1FailIP1NumMAWarfSameDayBFAdmit" ]
      } ],
      "gender": "male",
      "birthDate": "1974-01-02"
    },
    "request": {
      "method": "POST",
      "url": "Patient/1d907390-04db-46f5-b429-955aa427e815"
    }
  }, {
    "fullUrl": "https://madie.cms.gov/Encounter/5ca6295eb8484628b8de1da1",
    "resource": {
      "resourceType": "Encounter",
      "id": "5ca6295eb8484628b8de1da1",
      "meta": {
        "profile": [ "http://hl7.org/fhir/us/qicore/StructureDefinition/qicore-encounter" ]
      },
      "status": "finished",
      "class": {
        "system": "http://terminology.hl7.org/CodeSystem/v3-ActCode",
        "code": "IMP",
        "display": "inpatient encounter"
      },
      "type": [ {
        "coding": [ {
          "system": "http://snomed.info/sct",
          "code": "8715000"
        } ]
      } ],
      "subject": {
        "reference": "Patient/1d907390-04db-46f5-b429-955aa427e815"
      },
      "period": {
        "start": "2025-10-03T08:00:00+00:00",
        "end": "2025-10-05T08:15:00+00:00"
      },
      "length": {
        "value": 2.0,
        "unit": "days"
      },
      "diagnosis": [ {
        "condition": {
          "reference": "Condition/obstetrics-2506"
        }
      } ]
    },
    "request": {
      "method": "POST",
      "url": "Encounter/5ca6295eb8484628b8de1da1"
    }
  }, {
    "fullUrl": "https://madie.cms.gov/Encounter/5ca6295eb8484628b8de1da2",
    "resource": {
      "resourceType": "Encounter",
      "id": "5ca6295eb8484628b8de1da2",
      "meta": {
        "profile": [ "http://hl7.org/fhir/us/qicore/StructureDefinition/qicore-encounter" ]
      },
      "status": "finished",
      "class": {
        "system": "http://terminology.hl7.org/CodeSystem/v3-ActCode",
        "code": "IMP",
        "display": "inpatient encounter"
      },
      "type": [ {
        "coding": [ {
          "system": "http://snomed.info/sct",
          "code": "8715000"
        } ]
      } ],
      "subject": {
        "reference": "Patient/1d907390-04db-46f5-b429-955aa427e815"
      },
      "period": {
        "start": "2025-11-01T08:00:00+00:00",
        "end": "2025-11-26T08:15:00+00:00"
      },
      "length": {
        "value": 25.0,
        "unit": "days"
      }
    },
    "request": {
      "method": "POST",
      "url": "Encounter/5ca6295eb8484628b8de1da2"
    }
  }, {
    "fullUrl": "https://madie.cms.gov/Coverage/5fa041691c76ba66d99593a0",
    "resource": {
      "resourceType": "Coverage",
      "id": "5fa041691c76ba66d99593a0",
      "status": "active",
      "beneficiary": {
        "reference": "Patient/1d907390-04db-46f5-b429-955aa427e815"
      },
      "period": {
        "start": "1974-01-02T08:00:00+00:00"
      },
      "payor": [ {
        "reference": "Organization/123456"
      } ]
    },
    "request": {
      "method": "POST",
      "url": "Coverage/5fa041691c76ba66d99593a0"
    }
  }, {
    "fullUrl": "https://madie.cms.gov/MedicationAdministration/5ca6295eb8484628b8de1da3",
    "resource": {
      "resourceType": "MedicationAdministration",
      "id": "5ca6295eb8484628b8de1da3",
      "meta": {
        "profile": [ "http://hl7.org/fhir/us/qicore/StructureDefinition/qicore-medicationadministration" ]
      },
      "status": "completed",
      "medicationCodeableConcept": {
        "coding": [ {
          "system": "http://www.nlm.nih.gov/research/umls/rxnorm",
          "code": "855288"
        } ]
      },
      "subject": {
        "reference": "Patient/1d907390-04db-46f5-b429-955aa427e815"
      },
      "effectivePeriod": {
        "start": "2025-11-01T06:00:00+00:00",
        "end": "2025-11-01T06:15:00+00:00"
      }
    },
    "request": {
      "method": "POST",
      "url": "MedicationAdministration/5ca6295eb8484628b8de1da3"
    }
  }, {
    "fullUrl": "https://madie.cms.gov/Condition/obstetrics-2506",
    "resource": {
      "resourceType": "Condition",
      "id": "obstetrics-2506",
      "meta": {
        "profile": [ "http://hl7.org/fhir/us/qicore/StructureDefinition/qicore-condition" ]
      },
      "category": [ {
        "coding": [ {
          "system": "http://terminology.hl7.org/CodeSystem/condition-category",
          "code": "encounter-diagnosis",
          "display": "Encounter Diagnosis"
        } ]
      } ],
      "code": {
        "coding": [ {
          "system": "http://snomed.info/sct",
          "version": "2025-03",
          "code": "10217006",
          "display": "Third degree perineal laceration (disorder)",
          "userSelected": true
        } ]
      },
      "subject": {
        "reference": "Patient/1d907390-04db-46f5-b429-955aa427e815"
      },
      "recordedDate": "2025-07-20T08:00:00.000+00:00"
    },
    "request": {
      "method": "POST",
      "url": "Condition/obstetrics-2506"
    }
  }, {
    "fullUrl": "https://madie.cms.gov/Organization/123456",
    "resource": {
      "resourceType": "Organization",
      "id": "123456",
      "meta": {
        "profile": [ "http://hl7.org/fhir/us/qicore/StructureDefinition/qicore-organization" ]
      },
      "identifier": [ {
        "use": "temp",
        "system": "urn:oid:2.16.840.1.113883.4.4",
        "value": "21-3259825"
      } ],
      "active": true,
      "type": [ {
        "coding": [ {
          "system": "http://terminology.hl7.org/CodeSystem/organization-type",
          "code": "pay",
          "display": "Payer"
        } ]
      } ],
      "name": "Blue Cross Blue Shield of Texas",
      "telecom": [ {
        "system": "phone",
        "value": "(+1) 972-766-6900"
      } ],
      "address": [ {
        "use": "billing",
        "type": "postal",
        "line": [ "P.O. Box 660044" ],
        "city": "Dallas",
        "state": "TX",
        "postalCode": "75266-0044",
        "country": "USA"
      } ]
    },
    "request": {
      "method": "POST",
      "url": "Organization/123456"
    }
  }, {
    "fullUrl": "https://madie.cms.gov/Practitioner/practitioner-123456",
    "resource": {
      "resourceType": "Practitioner",
      "id": "practitioner-123456",
      "identifier": [ {
        "system": "http://hl7.org/fhir/sid/us-npi",
        "value": "123456"
      } ],
      "name": [ {
        "family": "Evil",
        "prefix": [ "Dr" ]
      } ]
    },
    "request": {
      "method": "POST",
      "url": "Practitioner/practitioner-123456"
    }
  }, {
    "fullUrl": "https://madie.cms.gov/MeasureReport/65a15763-1b06-45df-90e3-c7e3720810af",
    "resource": {
      "resourceType": "MeasureReport",
      "id": "65a15763-1b06-45df-90e3-c7e3720810af",
      "meta": {
        "profile": [ "http://hl7.org/fhir/us/cqfmeasures/StructureDefinition/test-case-cqfm" ]
      },
      "contained": [ {
        "resourceType": "Parameters",
        "id": "754397d6-5dc9-41d4-a677-ab4b8bb86010-parameters",
        "parameter": [ {
          "name": "subject",
          "valueString": "1d907390-04db-46f5-b429-955aa427e815"
        } ]
      } ],
      "extension": [ {
        "url": "http://hl7.org/fhir/us/cqfmeasures/StructureDefinition/cqfm-inputParameters",
        "valueReference": {
          "reference": "#754397d6-5dc9-41d4-a677-ab4b8bb86010-parameters"
        }
      }, {
        "url": "http://hl7.org/fhir/us/cqfmeasures/StructureDefinition/cqfm-testCaseDescription",
        "valueMarkdown": "2 encounters. One is failed IPP and another encountewarfarin administered  on the same day as adm but it was before adm time\n"
      } ],
      "modifierExtension": [ {
        "url": "http://hl7.org/fhir/us/cqfmeasures/StructureDefinition/cqfm-isTestCase",
        "valueBoolean": true
      } ],
      "status": "complete",
      "type": "individual",
      "measure": "https://madie.cms.gov/Measure/VenousThromboembolismProphylaxisFHIR",
      "period": {
        "start": "2025-01-01",
        "end": "2025-12-31"
      },
      "group": [ {
        "population": [ {
          "code": {
            "coding": [ {
              "system": "http://terminology.hl7.org/CodeSystem/measure-population",
              "code": "initial-population",
              "display": "Initial Population"
            } ]
          },
          "count": 1
        }, {
          "code": {
            "coding": [ {
              "system": "http://terminology.hl7.org/CodeSystem/measure-population",
              "code": "denominator",
              "display": "Denominator"
            } ]
          },
          "count": 1
        }, {
          "code": {
            "coding": [ {
              "system": "http://terminology.hl7.org/CodeSystem/measure-population",
              "code": "denominator-exclusion",
              "display": "Denominator Exclusion"
            } ]
          },
          "count": 0
        }, {
          "code": {
            "coding": [ {
              "system": "http://terminology.hl7.org/CodeSystem/measure-population",
              "code": "numerator",
              "display": "Numerator"
            } ]
          },
          "count": 1
        } ]
      } ],
      "evaluatedResource": [ {
        "reference": "https://madie.cms.gov/Patient/1d907390-04db-46f5-b429-955aa427e815"
      }, {
        "reference": "https://madie.cms.gov/Encounter/5ca6295eb8484628b8de1da1"
      }, {
        "reference": "https://madie.cms.gov/Encounter/5ca6295eb8484628b8de1da2"
      }, {
        "reference": "https://madie.cms.gov/Coverage/5fa041691c76ba66d99593a0"
      }, {
        "reference": "https://madie.cms.gov/MedicationAdministration/5ca6295eb8484628b8de1da3"
      }, {
        "reference": "https://madie.cms.gov/Condition/obstetrics-2506"
      }, {
        "reference": "https://madie.cms.gov/Organization/123456"
      }, {
        "reference": "https://madie.cms.gov/Practitioner/practitioner-123456"
      } ]
    },
    "request": {
      "method": "POST",
      "url": "MeasureReport/65a15763-1b06-45df-90e3-c7e3720810af"
    }
  } ]
}