{"resourceType":"Bundle","id":"tests-1e7dc519-5d75-4c07-b23f-ae9421a12943-bundle","type":"transaction","entry":[{"fullUrl":"https://madie.cms.gov/Patient/1e7dc519-5d75-4c07-b23f-ae9421a12943","resource":{"resourceType":"Patient","id":"1e7dc519-5d75-4c07-b23f-ae9421a12943","meta":{"profile":["http://hl7.org/fhir/us/qicore/StructureDefinition/qicore-patient"]},"extension":[{"url":"http://hl7.org/fhir/us/core/StructureDefinition/us-core-race","extension":[{"url":"ombCategory","valueCoding":{"system":"urn:oid:2.16.840.1.113883.6.238","code":"2028-9","display":"Asian","userSelected":true}},{"url":"text","valueString":"Asian"}]},{"url":"http://hl7.org/fhir/us/core/StructureDefinition/us-core-ethnicity","extension":[{"url":"ombCategory","valueCoding":{"system":"urn:oid:2.16.840.1.113883.6.238","code":"2135-2","display":"Hispanic or Latino","userSelected":true}},{"url":"text","valueString":"Hispanic or Latino"}]}],"identifier":[{"type":{"coding":[{"system":"http://terminology.hl7.org/CodeSystem/v2-0203","code":"MR"}]},"system":"http://hospital.smarthealthit.org","value":"999999995"}],"name":[{"family":"Bertha","given":["Betty"]}],"gender":"female","birthDate":"2023-01-01"},"request":{"method":"PUT","url":"Patient/1e7dc519-5d75-4c07-b23f-ae9421a12943"}},{"fullUrl":"https://madie.cms.gov/Encounter/Encounter-1","resource":{"resourceType":"Encounter","id":"ec001832-b744-4869-9de6-8dcd1f00ab2e","meta":{"profile":["http://hl7.org/fhir/us/qicore/StructureDefinition/qicore-encounter"]},"status":"finished","class":{"system":"http://terminology.hl7.org/CodeSystem/v3-ActCode","code":"AMB","display":"ambulatory"},"type":[{"coding":[{"system":"http://snomed.info/sct","code":"185317003","display":"Telephone encounter (procedure)"}]}],"subject":{"reference":"Patient/1e7dc519-5d75-4c07-b23f-ae9421a12943"},"period":{"start":"2025-01-01T01:00:00.000Z","end":"2025-01-01T01:15:00.000Z"}},"request":{"method":"PUT","url":"Encounter/ec001832-b744-4869-9de6-8dcd1f00ab2e"}},{"fullUrl":"https://madie.cms.gov/Immunization/Immunization-1a","resource":{"resourceType":"Immunization","id":"ac640714-a2ea-490a-af30-eae08e6e14e2","meta":{"profile":["http://hl7.org/fhir/us/qicore/StructureDefinition/qicore-immunization"]},"status":"completed","vaccineCode":{"coding":[{"system":"http://hl7.org/fhir/sid/cvx","code":"146","display":"Diphtheria and Tetanus Toxoids and Acellular Pertussis Adsorbed, Inactivated Poliovirus, Haemophilus b Conjugate (Meningococcal Protein Conjugate), and Hepatitis B (Recombinant) Vaccine."}]},"patient":{"reference":"Patient/1e7dc519-5d75-4c07-b23f-ae9421a12943"},"occurrenceDateTime":"2024-01-02T00:00:00.000Z","recorded":"2024-01-02T00:00:00.000Z","primarySource":true},"request":{"method":"PUT","url":"Immunization/ac640714-a2ea-490a-af30-eae08e6e14e2"}},{"fullUrl":"https://madie.cms.gov/Immunization/Immunization-1b","resource":{"resourceType":"Immunization","id":"8e53a15b-427c-42f5-8b06-bd65b164a086","meta":{"profile":["http://hl7.org/fhir/us/qicore/StructureDefinition/qicore-immunization"]},"status":"completed","vaccineCode":{"coding":[{"system":"http://hl7.org/fhir/sid/cvx","code":"146","display":"Diphtheria and Tetanus Toxoids and Acellular Pertussis Adsorbed, Inactivated Poliovirus, Haemophilus b Conjugate (Meningococcal Protein Conjugate), and Hepatitis B (Recombinant) Vaccine."}]},"patient":{"reference":"Patient/1e7dc519-5d75-4c07-b23f-ae9421a12943"},"occurrenceDateTime":"2024-01-05T00:00:00.000Z","recorded":"2024-01-02T00:00:00.000Z","primarySource":true},"request":{"method":"PUT","url":"Immunization/8e53a15b-427c-42f5-8b06-bd65b164a086"}},{"fullUrl":"https://madie.cms.gov/Immunization/Immunization-1c","resource":{"resourceType":"Immunization","id":"b031dbff-cf5c-4c63-bc14-c3111fba7d69","meta":{"profile":["http://hl7.org/fhir/us/qicore/StructureDefinition/qicore-immunization"]},"status":"completed","vaccineCode":{"coding":[{"system":"http://hl7.org/fhir/sid/cvx","code":"146","display":"Diphtheria and Tetanus Toxoids and Acellular Pertussis Adsorbed, Inactivated Poliovirus, Haemophilus b Conjugate (Meningococcal Protein Conjugate), and Hepatitis B (Recombinant) Vaccine."}]},"patient":{"reference":"Patient/1e7dc519-5d75-4c07-b23f-ae9421a12943"},"occurrenceDateTime":"2024-01-07T00:00:00.000Z","recorded":"2024-01-02T00:00:00.000Z","primarySource":true},"request":{"method":"PUT","url":"Immunization/b031dbff-cf5c-4c63-bc14-c3111fba7d69"}},{"fullUrl":"https://madie.cms.gov/Procedure/Procedure-1d","resource":{"resourceType":"Procedure","id":"75104f2f-3583-49aa-93a7-f09e24298e9f","meta":{"profile":["http://hl7.org/fhir/us/qicore/StructureDefinition/qicore-procedure"]},"extension":[{"url":"http://hl7.org/fhir/us/qicore/StructureDefinition/qicore-recorded","valueDateTime":"2024-01-02T00:00:00.000Z"}],"status":"completed","code":{"coding":[{"system":"http://www.ama-assn.org/go/cpt","code":"90700","display":"Diphtheria, tetanus toxoids, and acellular pertussis vaccine (DTaP), when administered to individuals younger than 7 years, for intramuscular use"}]},"subject":{"reference":"Patient/1e7dc519-5d75-4c07-b23f-ae9421a12943"},"performedPeriod":{"start":"2024-01-02T00:00:00.000Z","end":"2024-01-02T23:59:59.000Z"}},"request":{"method":"PUT","url":"Procedure/75104f2f-3583-49aa-93a7-f09e24298e9f"}},{"fullUrl":"https://madie.cms.gov/Immunization/Immunization-2a","resource":{"resourceType":"Immunization","id":"ded26b7d-ee8a-43ef-9ef8-50f4ec28c353","meta":{"profile":["http://hl7.org/fhir/us/qicore/StructureDefinition/qicore-immunization"]},"status":"completed","vaccineCode":{"coding":[{"system":"http://hl7.org/fhir/sid/cvx","code":"146","display":"\tDiphtheria and Tetanus Toxoids and Acellular Pertussis Adsorbed, Inactivated Poliovirus, Haemophilus b Conjugate (Meningococcal Protein Conjugate), and Hepatitis B (Recombinant) Vaccine."}]},"patient":{"reference":"Patient/1e7dc519-5d75-4c07-b23f-ae9421a12943"},"occurrenceDateTime":"2024-01-02T00:00:00.000Z","recorded":"2024-01-02T00:00:00.000Z","primarySource":true},"request":{"method":"PUT","url":"Immunization/ded26b7d-ee8a-43ef-9ef8-50f4ec28c353"}},{"fullUrl":"https://madie.cms.gov/Immunization/Immunization-2b","resource":{"resourceType":"Immunization","id":"f674ed23-480b-4a19-ac7c-86f93f370f43","meta":{"profile":["http://hl7.org/fhir/us/qicore/StructureDefinition/qicore-immunization"]},"status":"completed","vaccineCode":{"coding":[{"system":"http://hl7.org/fhir/sid/cvx","code":"146","display":"\tDiphtheria and Tetanus Toxoids and Acellular Pertussis Adsorbed, Inactivated Poliovirus, Haemophilus b Conjugate (Meningococcal Protein Conjugate), and Hepatitis B (Recombinant) Vaccine."}]},"patient":{"reference":"Patient/1e7dc519-5d75-4c07-b23f-ae9421a12943"},"occurrenceDateTime":"2024-01-06T00:00:00.000Z","recorded":"2024-01-02T00:00:00.000Z","primarySource":true},"request":{"method":"PUT","url":"Immunization/f674ed23-480b-4a19-ac7c-86f93f370f43"}},{"fullUrl":"https://madie.cms.gov/Procedure/Procedure-2c","resource":{"resourceType":"Procedure","id":"35d19338-b457-4003-9e40-178457fbeecd","meta":{"profile":["http://hl7.org/fhir/us/qicore/StructureDefinition/qicore-procedure"]},"extension":[{"url":"http://hl7.org/fhir/us/qicore/StructureDefinition/qicore-recorded","valueDateTime":"2024-01-02T00:00:00.000Z"}],"status":"completed","code":{"coding":[{"system":"http://www.ama-assn.org/go/cpt","code":"90713","display":"Poliovirus vaccine, inactivated (IPV), for subcutaneous or intramuscular use"}]},"subject":{"reference":"Patient/1e7dc519-5d75-4c07-b23f-ae9421a12943"},"performedPeriod":{"start":"2024-01-02T00:00:00.000Z","end":"2024-01-02T23:59:59.000Z"}},"request":{"method":"PUT","url":"Procedure/35d19338-b457-4003-9e40-178457fbeecd"}},{"fullUrl":"https://madie.cms.gov/Procedure/Procedure-3","resource":{"resourceType":"Procedure","id":"ba7c89ae-e639-4bcc-ba71-4fab1779e539","meta":{"profile":["http://hl7.org/fhir/us/qicore/StructureDefinition/qicore-procedure"]},"extension":[{"url":"http://hl7.org/fhir/us/qicore/StructureDefinition/qicore-recorded","valueDateTime":"2024-01-02T00:00:00.000Z"}],"status":"completed","code":{"coding":[{"system":"http://www.ama-assn.org/go/cpt","code":"90710","display":"Measles, mumps, rubella, and varicella vaccine (MMRV), live, for subcutaneous use"}]},"subject":{"reference":"Patient/1e7dc519-5d75-4c07-b23f-ae9421a12943"},"performedPeriod":{"start":"2024-01-02T00:00:00.000Z","end":"2024-01-02T23:59:59.000Z"}},"request":{"method":"PUT","url":"Procedure/ba7c89ae-e639-4bcc-ba71-4fab1779e539"}},{"fullUrl":"https://madie.cms.gov/Immunization/Immunization-4a","resource":{"resourceType":"Immunization","id":"821798a6-874d-4b4a-92f3-92209bdbc9c6","meta":{"profile":["http://hl7.org/fhir/us/qicore/StructureDefinition/qicore-immunization"]},"status":"completed","vaccineCode":{"coding":[{"system":"http://hl7.org/fhir/sid/cvx","code":"49","display":"Haemophilus influenzae type b vaccine, PRP-OMP conjugate"}]},"patient":{"reference":"Patient/1e7dc519-5d75-4c07-b23f-ae9421a12943"},"occurrenceDateTime":"2024-01-02T00:00:00.000Z","recorded":"2024-01-02T00:00:00.000Z","primarySource":true},"request":{"method":"PUT","url":"Immunization/821798a6-874d-4b4a-92f3-92209bdbc9c6"}},{"fullUrl":"https://madie.cms.gov/Immunization/Immunization-4b","resource":{"resourceType":"Immunization","id":"8a0aa6c5-8d5f-47e8-b20b-bca116301728","meta":{"profile":["http://hl7.org/fhir/us/qicore/StructureDefinition/qicore-immunization"]},"status":"completed","vaccineCode":{"coding":[{"system":"http://hl7.org/fhir/sid/cvx","code":"49","display":"Haemophilus influenzae type b vaccine, PRP-OMP conjugate"}]},"patient":{"reference":"Patient/1e7dc519-5d75-4c07-b23f-ae9421a12943"},"occurrenceDateTime":"2024-01-02T00:00:00.000Z","recorded":"2024-01-02T00:00:00.000Z","primarySource":true},"request":{"method":"PUT","url":"Immunization/8a0aa6c5-8d5f-47e8-b20b-bca116301728"}},{"fullUrl":"https://madie.cms.gov/Procedure/Procedure-4c","resource":{"resourceType":"Procedure","id":"637af087-5cc1-4a8e-ad07-150138a0adb8","meta":{"profile":["http://hl7.org/fhir/us/qicore/StructureDefinition/qicore-procedure"]},"extension":[{"url":"http://hl7.org/fhir/us/qicore/StructureDefinition/qicore-recorded","valueDateTime":"2024-01-02T00:00:00.000Z"}],"status":"completed","code":{"coding":[{"system":"http://www.ama-assn.org/go/cpt","code":"90697","display":"Diphtheria, tetanus toxoids, acellular pertussis vaccine, inactivated poliovirus vaccine, Haemophilus influenzae type b PRP-OMP conjugate vaccine, and hepatitis B vaccine (DTaP-IPV-Hib-HepB), for intramuscular use"}]},"subject":{"reference":"Patient/1e7dc519-5d75-4c07-b23f-ae9421a12943"},"performedPeriod":{"start":"2024-01-02T00:00:00.000Z","end":"2024-01-02T23:59:59.000Z"}},"request":{"method":"PUT","url":"Procedure/637af087-5cc1-4a8e-ad07-150138a0adb8"}},{"fullUrl":"https://madie.cms.gov/Immunization/Immunization-5a","resource":{"resourceType":"Immunization","id":"9908e95d-4c4c-4040-9d05-ac8ff39f1fb2","meta":{"profile":["http://hl7.org/fhir/us/qicore/StructureDefinition/qicore-immunization"]},"status":"completed","vaccineCode":{"coding":[{"system":"http://hl7.org/fhir/sid/cvx","code":"51","display":"Haemophilus influenzae type b conjugate and Hepatitis B vaccine"}]},"patient":{"reference":"Patient/1e7dc519-5d75-4c07-b23f-ae9421a12943"},"occurrenceDateTime":"2024-01-02T00:00:00.000Z","recorded":"2024-01-02T00:00:00.000Z","primarySource":true},"request":{"method":"PUT","url":"Immunization/9908e95d-4c4c-4040-9d05-ac8ff39f1fb2"}},{"fullUrl":"https://madie.cms.gov/Immunization/Immunization-5b","resource":{"resourceType":"Immunization","id":"84b5390a-9a06-41b9-935a-773d66bdac96","meta":{"profile":["http://hl7.org/fhir/us/qicore/StructureDefinition/qicore-immunization"]},"status":"completed","vaccineCode":{"coding":[{"system":"http://hl7.org/fhir/sid/cvx","code":"51","display":"Haemophilus influenzae type b conjugate and Hepatitis B vaccine"}]},"patient":{"reference":"Patient/1e7dc519-5d75-4c07-b23f-ae9421a12943"},"occurrenceDateTime":"2024-01-10T00:00:00.000Z","recorded":"2024-01-02T00:00:00.000Z","primarySource":true},"request":{"method":"PUT","url":"Immunization/84b5390a-9a06-41b9-935a-773d66bdac96"}},{"fullUrl":"https://madie.cms.gov/Procedure/Procedure-5c","resource":{"resourceType":"Procedure","id":"c67d24cb-7416-4dd5-94c5-54a89cd01d9a","meta":{"profile":["http://hl7.org/fhir/us/qicore/StructureDefinition/qicore-procedure"]},"extension":[{"url":"http://hl7.org/fhir/us/qicore/StructureDefinition/qicore-recorded","valueDateTime":"2024-01-02T00:00:00.000Z"}],"status":"completed","code":{"coding":[{"system":"http://www.ama-assn.org/go/cpt","code":"90740","display":"Hepatitis B vaccine (HepB), dialysis or immunosuppressed patient dosage, 3 dose schedule, for intramuscular use"}]},"subject":{"reference":"Patient/1e7dc519-5d75-4c07-b23f-ae9421a12943"},"performedPeriod":{"start":"2024-01-02T00:00:00.000Z","end":"2024-01-02T23:59:59.000Z"}},"request":{"method":"PUT","url":"Procedure/c67d24cb-7416-4dd5-94c5-54a89cd01d9a"}},{"fullUrl":"https://madie.cms.gov/Immunization/Immunization-6","resource":{"resourceType":"Immunization","id":"2cfb5b71-3dc2-48f8-a4a3-202cd212423b","meta":{"profile":["http://hl7.org/fhir/us/qicore/StructureDefinition/qicore-immunization"]},"status":"completed","vaccineCode":{"coding":[{"system":"http://hl7.org/fhir/sid/cvx","code":"94","display":"measles, mumps, rubella, and varicella virus vaccine"}]},"patient":{"reference":"Patient/1e7dc519-5d75-4c07-b23f-ae9421a12943"},"occurrenceDateTime":"2024-01-02T00:00:00.000Z","recorded":"2024-01-02T00:00:00.000Z","primarySource":true},"request":{"method":"PUT","url":"Immunization/2cfb5b71-3dc2-48f8-a4a3-202cd212423b"}},{"fullUrl":"https://madie.cms.gov/Immunization/Immunization-7a","resource":{"resourceType":"Immunization","id":"1e51d422-03c3-4963-9c1b-49b1810516cf","meta":{"profile":["http://hl7.org/fhir/us/qicore/StructureDefinition/qicore-immunization"]},"status":"completed","vaccineCode":{"coding":[{"system":"http://hl7.org/fhir/sid/cvx","code":"215","display":"Pneumococcal conjugate vaccine 15-valent (PCV15), polysaccharide CRM197 conjugate, adjuvant, preservative free"}]},"patient":{"reference":"Patient/1e7dc519-5d75-4c07-b23f-ae9421a12943"},"occurrenceDateTime":"2024-01-12T00:00:00.000Z","recorded":"2024-01-02T00:00:00.000Z","primarySource":true},"request":{"method":"PUT","url":"Immunization/1e51d422-03c3-4963-9c1b-49b1810516cf"}},{"fullUrl":"https://madie.cms.gov/Immunization/Immunization-7b","resource":{"resourceType":"Immunization","id":"12c4e97b-2182-4b5d-b1f1-386a17ed55c6","meta":{"profile":["http://hl7.org/fhir/us/qicore/StructureDefinition/qicore-immunization"]},"status":"completed","vaccineCode":{"coding":[{"system":"http://hl7.org/fhir/sid/cvx","code":"215","display":"Pneumococcal conjugate vaccine 15-valent (PCV15), polysaccharide CRM197 conjugate, adjuvant, preservative free"}]},"patient":{"reference":"Patient/1e7dc519-5d75-4c07-b23f-ae9421a12943"},"occurrenceDateTime":"2024-01-14T00:00:00.000Z","recorded":"2024-01-02T00:00:00.000Z","primarySource":true},"request":{"method":"PUT","url":"Immunization/12c4e97b-2182-4b5d-b1f1-386a17ed55c6"}},{"fullUrl":"https://madie.cms.gov/Immunization/Immunization-7c","resource":{"resourceType":"Immunization","id":"75fbf263-7964-4593-a036-a5428376f58b","meta":{"profile":["http://hl7.org/fhir/us/qicore/StructureDefinition/qicore-immunization"]},"status":"completed","vaccineCode":{"coding":[{"system":"http://hl7.org/fhir/sid/cvx","code":"215","display":"Pneumococcal conjugate vaccine 15-valent (PCV15), polysaccharide CRM197 conjugate, adjuvant, preservative free"}]},"patient":{"reference":"Patient/1e7dc519-5d75-4c07-b23f-ae9421a12943"},"occurrenceDateTime":"2024-01-20T00:00:00.000Z","recorded":"2024-01-02T00:00:00.000Z","primarySource":true},"request":{"method":"PUT","url":"Immunization/75fbf263-7964-4593-a036-a5428376f58b"}},{"fullUrl":"https://madie.cms.gov/Procedure/Procedure-7d","resource":{"resourceType":"Procedure","id":"d9572b34-7993-45cf-85c2-8c1606d7d6b4","meta":{"profile":["http://hl7.org/fhir/us/qicore/StructureDefinition/qicore-procedure"]},"extension":[{"url":"http://hl7.org/fhir/us/qicore/StructureDefinition/qicore-recorded","valueDateTime":"2024-01-02T00:00:00.000Z"}],"status":"completed","code":{"coding":[{"system":"http://www.ama-assn.org/go/cpt","code":"90670","display":"Pneumococcal conjugate vaccine, 13 valent (PCV13), for intramuscular use"}]},"subject":{"reference":"Patient/1e7dc519-5d75-4c07-b23f-ae9421a12943"},"performedPeriod":{"start":"2024-01-02T00:00:00.000Z","end":"2024-01-02T23:59:59.000Z"}},"request":{"method":"PUT","url":"Procedure/d9572b34-7993-45cf-85c2-8c1606d7d6b4"}},{"fullUrl":"https://madie.cms.gov/Procedure/Procedure-8","resource":{"resourceType":"Procedure","id":"e511817d-5afe-4730-9846-082b8d9e4cc9","meta":{"profile":["http://hl7.org/fhir/us/qicore/StructureDefinition/qicore-procedure"]},"extension":[{"url":"http://hl7.org/fhir/us/qicore/StructureDefinition/qicore-recorded","valueDateTime":"2024-01-02T00:00:00.000Z"}],"status":"completed","code":{"coding":[{"system":"http://www.ama-assn.org/go/cpt","code":"90633","display":"Hepatitis A vaccine (HepA), pediatric/adolescent dosage-2 dose schedule, for intramuscular use"}]},"subject":{"reference":"Patient/1e7dc519-5d75-4c07-b23f-ae9421a12943"},"performedPeriod":{"start":"2024-01-02T00:00:00.000Z","end":"2024-01-02T23:59:59.000Z"}},"request":{"method":"PUT","url":"Procedure/e511817d-5afe-4730-9846-082b8d9e4cc9"}},{"fullUrl":"https://madie.cms.gov/Immunization/Immunization-9a","resource":{"resourceType":"Immunization","id":"490096a8-1523-4672-be95-d36826fbd17e","meta":{"profile":["http://hl7.org/fhir/us/qicore/StructureDefinition/qicore-immunization"]},"status":"completed","vaccineCode":{"coding":[{"system":"http://hl7.org/fhir/sid/cvx","code":"119","display":"rotavirus, live, monovalent vaccine"}]},"patient":{"reference":"Patient/1e7dc519-5d75-4c07-b23f-ae9421a12943"},"occurrenceDateTime":"2024-01-02T00:00:00.000Z","recorded":"2024-01-02T00:00:00.000Z","primarySource":true},"request":{"method":"PUT","url":"Immunization/490096a8-1523-4672-be95-d36826fbd17e"}},{"fullUrl":"https://madie.cms.gov/Procedure/Procedure-9b","resource":{"resourceType":"Procedure","id":"4615b3d9-7a1c-428c-9891-9dd1f17e9d39","meta":{"profile":["http://hl7.org/fhir/us/qicore/StructureDefinition/qicore-procedure"]},"extension":[{"url":"http://hl7.org/fhir/us/qicore/StructureDefinition/qicore-recorded","valueDateTime":"2024-01-02T00:00:00.000Z"}],"status":"completed","code":{"coding":[{"system":"http://www.ama-assn.org/go/cpt","code":"90681","display":"Rotavirus vaccine, human, attenuated (RV1), 2 dose schedule, live, for oral use"}]},"subject":{"reference":"Patient/1e7dc519-5d75-4c07-b23f-ae9421a12943"},"performedPeriod":{"start":"2024-01-07T00:00:00.000Z","end":"2024-01-07T23:59:59.000Z"}},"request":{"method":"PUT","url":"Procedure/4615b3d9-7a1c-428c-9891-9dd1f17e9d39"}},{"fullUrl":"https://madie.cms.gov/Immunization/Immunization-10a","resource":{"resourceType":"Immunization","id":"ac55bbe0-3c49-4138-9669-bdb4ee2f83da","meta":{"profile":["http://hl7.org/fhir/us/qicore/StructureDefinition/qicore-immunization"]},"status":"completed","vaccineCode":{"coding":[{"system":"http://hl7.org/fhir/sid/cvx","code":"153","display":"\tInfluenza, injectable, Madin Darby Canine Kidney, preservative free"}]},"patient":{"reference":"Patient/1e7dc519-5d75-4c07-b23f-ae9421a12943"},"occurrenceDateTime":"2024-01-02T00:00:00.000Z","recorded":"2024-01-02T00:00:00.000Z","primarySource":true},"request":{"method":"PUT","url":"Immunization/ac55bbe0-3c49-4138-9669-bdb4ee2f83da"}},{"fullUrl":"https://madie.cms.gov/Procedure/Procedure-10b","resource":{"resourceType":"Procedure","id":"7ab57397-0830-4b80-839a-99e6934b0f43","meta":{"profile":["http://hl7.org/fhir/us/qicore/StructureDefinition/qicore-procedure"]},"extension":[{"url":"http://hl7.org/fhir/us/qicore/StructureDefinition/qicore-recorded","valueDateTime":"2024-01-10T00:00:00.000Z"}],"status":"completed","code":{"coding":[{"system":"http://www.ama-assn.org/go/cpt","code":"90689","display":"Influenza virus vaccine, quadrivalent (IIV4), inactivated, adjuvanted, preservative free, 0.25 mL dosage, for intramuscular use"}]},"subject":{"reference":"Patient/1e7dc519-5d75-4c07-b23f-ae9421a12943"},"performedPeriod":{"start":"2024-01-10T00:00:00.000Z","end":"2024-01-10T23:59:59.000Z"}},"request":{"method":"PUT","url":"Procedure/7ab57397-0830-4b80-839a-99e6934b0f43"}},{"fullUrl":"https://madie.cms.gov/MeasureReport/10989c2d-73c0-4e5f-8973-47a73f50ff72","resource":{"resourceType":"MeasureReport","id":"10989c2d-73c0-4e5f-8973-47a73f50ff72","meta":{"profile":["http://hl7.org/fhir/us/cqfmeasures/StructureDefinition/test-case-cqfm"]},"contained":[{"resourceType":"Parameters","id":"5d466efd-4349-4d9a-b6a6-1a749a05435d-parameters","parameter":[{"name":"subject","valueString":"1e7dc519-5d75-4c07-b23f-ae9421a12943"}]}],"extension":[{"url":"http://hl7.org/fhir/us/cqfmeasures/StructureDefinition/cqfm-inputParameters","valueReference":{"reference":"#5d466efd-4349-4d9a-b6a6-1a749a05435d-parameters"}},{"url":"http://hl7.org/fhir/us/cqfmeasures/StructureDefinition/cqfm-testCaseDescription","valueMarkdown":"All vaccines met - procedures"}],"modifierExtension":[{"url":"http://hl7.org/fhir/us/cqfmeasures/StructureDefinition/cqfm-isTestCase","valueBoolean":true}],"status":"complete","type":"individual","measure":"https://madie.cms.gov/Measure/ChildhoodImmunizationStatusFHIR","period":{"start":"2025-01-01","end":"2025-12-31"},"group":[{"population":[{"code":{"coding":[{"system":"http://terminology.hl7.org/CodeSystem/measure-population","code":"initial-population","display":"Initial Population"}]},"count":1},{"code":{"coding":[{"system":"http://terminology.hl7.org/CodeSystem/measure-population","code":"denominator","display":"Denominator"}]},"count":1},{"code":{"coding":[{"system":"http://terminology.hl7.org/CodeSystem/measure-population","code":"denominator-exclusion","display":"Denominator Exclusion"}]},"count":0},{"code":{"coding":[{"system":"http://terminology.hl7.org/CodeSystem/measure-population","code":"numerator","display":"Numerator"}]},"count":1}]}]},"request":{"method":"PUT","url":"MeasureReport/10989c2d-73c0-4e5f-8973-47a73f50ff72"}}]}