{
  "resourceType": "Bundle",
  "id": "63f3a249ccb3770120ffe6eb",
  "type": "transaction",
  "entry": [ {
    "fullUrl": "https://madie.cms.gov/Patient/af1b9448-3e7a-4b7f-8934-15bb63258b75",
    "resource": {
      "resourceType": "Patient",
      "id": "af1b9448-3e7a-4b7f-8934-15bb63258b75",
      "meta": {
        "profile": [ "http://hl7.org/fhir/us/qicore/StructureDefinition/qicore-patient" ]
      },
      "text": {
        "status": "generated",
        "div": "<div xmlns=\"http://www.w3.org/1999/xhtml\"><div class=\"hapiHeaderText\">LTE24before <b>BICARBPASS </b></div><table class=\"hapiPropertyTable\"><tbody><tr><td>Identifier</td><td>d69abbc179641b9cd673a4a9152886e8e63bc2e0e7b27e1a51505ef2a774679e</td></tr><tr><td>Date of birth</td><td><span>15 June 1956</span></td></tr></tbody></table></div>"
      },
      "extension": [ {
        "url": "http://hl7.org/fhir/us/core/StructureDefinition/us-core-race",
        "extension": [ {
          "url": "ombCategory",
          "valueCoding": {
            "system": "urn:oid:2.16.840.1.113883.6.238",
            "code": "1002-5",
            "display": "American Indian or Alaska Native",
            "userSelected": true
          }
        }, {
          "url": "text",
          "valueString": "American Indian or Alaska Native"
        } ]
      }, {
        "url": "http://hl7.org/fhir/us/core/StructureDefinition/us-core-ethnicity",
        "extension": [ {
          "url": "ombCategory",
          "valueCoding": {
            "system": "urn:oid:2.16.840.1.113883.6.238",
            "code": "2186-5",
            "display": "Not Hispanic or Latino",
            "userSelected": true
          }
        }, {
          "url": "text",
          "valueString": "Not Hispanic or Latino"
        } ]
      } ],
      "identifier": [ {
        "type": {
          "coding": [ {
            "system": "http://terminology.hl7.org/CodeSystem/v2-0203",
            "code": "MR"
          } ]
        },
        "system": "https://bonnie-fhir.healthit.gov/",
        "value": "63f3a249ccb3770120ffe6eb"
      } ],
      "active": true,
      "name": [ {
        "use": "usual",
        "family": "BicarbonatePass",
        "given": [ "24HourAfterStartOfAdmit" ]
      } ],
      "gender": "male",
      "birthDate": "1960-07-01"
    },
    "request": {
      "method": "POST",
      "url": "Patient/af1b9448-3e7a-4b7f-8934-15bb63258b75"
    }
  }, {
    "fullUrl": "https://madie.cms.gov/Encounter/5e063f246e768a00003ba419",
    "resource": {
      "resourceType": "Encounter",
      "id": "5e063f246e768a00003ba419",
      "meta": {
        "profile": [ "http://hl7.org/fhir/us/qicore/StructureDefinition/qicore-encounter" ]
      },
      "status": "finished",
      "class": {
        "system": "http://terminology.hl7.org/CodeSystem/v3-ActCode",
        "code": "IMP",
        "display": "inpatient encounter",
        "userSelected": true
      },
      "type": [ {
        "coding": [ {
          "system": "http://snomed.info/sct",
          "code": "183452005"
        } ]
      } ],
      "subject": {
        "reference": "Patient/af1b9448-3e7a-4b7f-8934-15bb63258b75"
      },
      "period": {
        "start": "2025-07-01T08:00:00.000+00:00",
        "end": "2025-07-03T08:15:00.000+00:00"
      }
    },
    "request": {
      "method": "POST",
      "url": "Encounter/5e063f246e768a00003ba419"
    }
  }, {
    "fullUrl": "https://madie.cms.gov/Encounter/5e063f246e768a00003ba4191",
    "resource": {
      "resourceType": "Encounter",
      "id": "5e063f246e768a00003ba4191",
      "meta": {
        "profile": [ "http://hl7.org/fhir/us/qicore/StructureDefinition/qicore-encounter" ]
      },
      "status": "finished",
      "class": {
        "system": "http://terminology.hl7.org/CodeSystem/v3-ActCode",
        "code": "IMP",
        "display": "inpatient encounter",
        "userSelected": true
      },
      "type": [ {
        "coding": [ {
          "system": "http://snomed.info/sct",
          "code": "183452005"
        } ]
      } ],
      "subject": {
        "reference": "Patient/af1b9448-3e7a-4b7f-8934-15bb63258b75"
      },
      "period": {
        "start": "2026-01-01T08:00:00.000+00:00",
        "end": "2026-01-03T08:15:00.000+00:00"
      }
    },
    "request": {
      "method": "POST",
      "url": "Encounter/5e063f246e768a00003ba4191"
    }
  }, {
    "fullUrl": "https://madie.cms.gov/Coverage/5fd0d02217572300002232df",
    "resource": {
      "resourceType": "Coverage",
      "id": "5fd0d02217572300002232df",
      "meta": {
        "profile": [ "http://hl7.org/fhir/us/qicore/StructureDefinition/qicore-coverage" ]
      },
      "status": "active",
      "type": {
        "coding": [ {
          "system": "https://nahdo.org/sopt",
          "version": "1.0.1",
          "code": "1",
          "display": "Medicare payer",
          "userSelected": true
        } ]
      },
      "beneficiary": {
        "reference": "Patient/af1b9448-3e7a-4b7f-8934-15bb63258b75"
      },
      "period": {
        "start": "2025-01-01T08:00:00.000+00:00",
        "end": "2025-12-31T08:15:00.000+00:00"
      },
      "payor": [ {
        "reference": "Organization/123456"
      } ]
    },
    "request": {
      "method": "POST",
      "url": "Coverage/5fd0d02217572300002232df"
    }
  }, {
    "fullUrl": "https://madie.cms.gov/Observation/5b55f745b84846558c53bc2b",
    "resource": {
      "resourceType": "Observation",
      "id": "5b55f745b84846558c53bc2b",
      "meta": {
        "profile": [ "http://hl7.org/fhir/us/core/StructureDefinition/us-core-observation-lab" ]
      },
      "status": "final",
      "category": [ {
        "coding": [ {
          "system": "http://terminology.hl7.org/CodeSystem/observation-category",
          "code": "laboratory",
          "display": "laboratory",
          "userSelected": true
        } ]
      } ],
      "code": {
        "coding": [ {
          "system": "http://loinc.org",
          "code": "14627-4",
          "display": "Bicarbonate [Moles/volume] in Venous blood"
        } ]
      },
      "subject": {
        "reference": "Patient/af1b9448-3e7a-4b7f-8934-15bb63258b75"
      },
      "effectiveDateTime": "2025-07-02T08:00:00.000+00:00",
      "issued": "2025-07-02T08:00:00.000+00:00",
      "valueQuantity": {
        "value": 25,
        "unit": "mmol/L",
        "system": "http://unitsofmeasure.org",
        "code": "mg/dL"
      }
    },
    "request": {
      "method": "POST",
      "url": "Observation/5b55f745b84846558c53bc2b"
    }
  }, {
    "fullUrl": "https://madie.cms.gov/Observation/5b55f745b84846558c53bc2b1",
    "resource": {
      "resourceType": "Observation",
      "id": "5b55f745b84846558c53bc2b1",
      "meta": {
        "profile": [ "http://hl7.org/fhir/us/core/StructureDefinition/us-core-observation-lab" ]
      },
      "status": "final",
      "category": [ {
        "coding": [ {
          "system": "http://terminology.hl7.org/CodeSystem/observation-category",
          "code": "laboratory",
          "display": "laboratory",
          "userSelected": true
        } ]
      } ],
      "code": {
        "coding": [ {
          "system": "http://loinc.org",
          "code": "14627-4",
          "display": "Bicarbonate [Moles/volume] in Venous blood"
        } ]
      },
      "subject": {
        "reference": "Patient/af1b9448-3e7a-4b7f-8934-15bb63258b75"
      },
      "effectiveDateTime": "2026-01-01T08:00:00.000+00:00",
      "issued": "2026-01-01T08:00:00.000+00:00",
      "valueQuantity": {
        "value": 28,
        "unit": "mmol/L",
        "system": "http://unitsofmeasure.org",
        "code": "mg/dL"
      }
    },
    "request": {
      "method": "POST",
      "url": "Observation/5b55f745b84846558c53bc2b1"
    }
  }, {
    "fullUrl": "https://madie.cms.gov/Organization/123456",
    "resource": {
      "resourceType": "Organization",
      "id": "123456",
      "meta": {
        "profile": [ "http://hl7.org/fhir/us/qicore/StructureDefinition/qicore-organization" ]
      },
      "identifier": [ {
        "use": "temp",
        "system": "urn:oid:2.16.840.1.113883.4.4",
        "value": "21-3259825"
      } ],
      "active": true,
      "type": [ {
        "coding": [ {
          "system": "http://terminology.hl7.org/CodeSystem/organization-type",
          "code": "pay",
          "display": "Payer"
        } ]
      } ],
      "name": "Blue Cross Blue Shield of Texas",
      "telecom": [ {
        "system": "phone",
        "value": "(+1) 972-766-6900"
      } ],
      "address": [ {
        "use": "billing",
        "type": "postal",
        "line": [ "P.O. Box 660044" ],
        "city": "Dallas",
        "state": "TX",
        "postalCode": "75266-0044",
        "country": "USA"
      } ]
    },
    "request": {
      "method": "POST",
      "url": "Organization/123456"
    }
  }, {
    "fullUrl": "https://madie.cms.gov/Practitioner/practitioner-123456",
    "resource": {
      "resourceType": "Practitioner",
      "id": "practitioner-123456",
      "meta": {
        "profile": [ "http://hl7.org/fhir/us/qicore/StructureDefinition/qicore-practitioner" ]
      },
      "identifier": [ {
        "system": "http://hl7.org/fhir/sid/us-npi",
        "value": "123456"
      } ],
      "name": [ {
        "family": "Evil",
        "prefix": [ "Dr" ]
      } ]
    },
    "request": {
      "method": "POST",
      "url": "Practitioner/practitioner-123456"
    }
  }, {
    "fullUrl": "https://madie.cms.gov/MeasureReport/84b3fc5f-a3b2-47fd-9d49-2d1efc58ac27",
    "resource": {
      "resourceType": "MeasureReport",
      "id": "84b3fc5f-a3b2-47fd-9d49-2d1efc58ac27",
      "meta": {
        "profile": [ "http://hl7.org/fhir/us/cqfmeasures/StructureDefinition/test-case-cqfm" ]
      },
      "contained": [ {
        "resourceType": "Parameters",
        "id": "0c0ebdc4-6943-4a72-8c78-8ecc027fd368-parameters",
        "parameter": [ {
          "name": "subject",
          "valueString": "af1b9448-3e7a-4b7f-8934-15bb63258b75"
        } ]
      } ],
      "extension": [ {
        "url": "http://hl7.org/fhir/us/cqfmeasures/StructureDefinition/cqfm-inputParameters",
        "valueReference": {
          "reference": "#0c0ebdc4-6943-4a72-8c78-8ecc027fd368-parameters"
        }
      }, {
        "url": "http://hl7.org/fhir/us/cqfmeasures/StructureDefinition/cqfm-testCaseDescription",
        "valueMarkdown": "Enc 1 first day of MP bircarbonate 25 mmol/L 24 hrs after admission\nEnc 2 first day of MP bircarbonate 28 mmol/L at admission"
      } ],
      "modifierExtension": [ {
        "url": "http://hl7.org/fhir/us/cqfmeasures/StructureDefinition/cqfm-isTestCase",
        "valueBoolean": true
      } ],
      "status": "complete",
      "type": "individual",
      "measure": "https://madie.cms.gov/Measure/HybridHospitalWideMortalityFHIR",
      "period": {
        "start": "2025-01-01",
        "end": "2025-12-31"
      },
      "group": [ {
        "population": [ {
          "code": {
            "coding": [ {
              "system": "http://terminology.hl7.org/CodeSystem/measure-population",
              "code": "initial-population",
              "display": "Initial Population"
            } ]
          },
          "count": 2
        } ]
      } ],
      "evaluatedResource": [ {
        "reference": "https://madie.cms.gov/Patient/af1b9448-3e7a-4b7f-8934-15bb63258b75"
      }, {
        "reference": "https://madie.cms.gov/Encounter/5e063f246e768a00003ba419"
      }, {
        "reference": "https://madie.cms.gov/Encounter/5e063f246e768a00003ba4191"
      }, {
        "reference": "https://madie.cms.gov/Coverage/5fd0d02217572300002232df"
      }, {
        "reference": "https://madie.cms.gov/Observation/5b55f745b84846558c53bc2b"
      }, {
        "reference": "https://madie.cms.gov/Observation/5b55f745b84846558c53bc2b1"
      }, {
        "reference": "https://madie.cms.gov/Organization/123456"
      }, {
        "reference": "https://madie.cms.gov/Practitioner/practitioner-123456"
      } ]
    },
    "request": {
      "method": "POST",
      "url": "MeasureReport/84b3fc5f-a3b2-47fd-9d49-2d1efc58ac27"
    }
  } ]
}