{
  "resourceType": "Bundle",
  "id": "Patient-52-DENEXPass-BilateralOophorectomyEviDurMP",
  "type": "transaction",
  "entry": [ {
    "fullUrl": "https://madie.cms.gov/Patient/e22e977b-d6f3-421b-bfff-96aa53435da2",
    "resource": {
      "resourceType": "Patient",
      "id": "e22e977b-d6f3-421b-bfff-96aa53435da2",
      "meta": {
        "profile": [ "http://hl7.org/fhir/us/qicore/StructureDefinition/qicore-patient" ]
      },
      "extension": [ {
        "url": "http://hl7.org/fhir/us/core/StructureDefinition/us-core-race",
        "extension": [ {
          "url": "ombCategory",
          "valueCoding": {
            "system": "urn:oid:2.16.840.1.113883.6.238",
            "code": "2028-9",
            "display": "Asian",
            "userSelected": true
          }
        }, {
          "url": "text",
          "valueString": "Asian"
        } ]
      }, {
        "url": "http://hl7.org/fhir/us/core/StructureDefinition/us-core-ethnicity",
        "extension": [ {
          "url": "ombCategory",
          "valueCoding": {
            "system": "urn:oid:2.16.840.1.113883.6.238",
            "code": "2135-2",
            "display": "Hispanic or Latino",
            "userSelected": true
          }
        }, {
          "url": "text",
          "valueString": "Hispanic or Latino"
        } ]
      } ],
      "identifier": [ {
        "type": {
          "coding": [ {
            "system": "http://terminology.hl7.org/CodeSystem/v2-0203",
            "code": "MR"
          } ]
        },
        "system": "http://hospital.smarthealthit.org",
        "value": "999999995"
      } ],
      "name": [ {
        "family": "Bertha",
        "given": [ "Betty" ]
      } ],
      "gender": "female",
      "birthDate": "1975-01-01"
    },
    "request": {
      "method": "POST",
      "url": "Patient/e22e977b-d6f3-421b-bfff-96aa53435da2"
    }
  }, {
    "fullUrl": "https://madie.cms.gov/Encounter/Encounter-52",
    "resource": {
      "resourceType": "Encounter",
      "id": "Encounter-52",
      "meta": {
        "profile": [ "http://hl7.org/fhir/us/qicore/StructureDefinition/qicore-encounter" ]
      },
      "status": "finished",
      "class": {
        "system": "http://terminology.hl7.org/CodeSystem/v3-ActCode",
        "code": "AMB",
        "display": "ambulatory"
      },
      "type": [ {
        "coding": [ {
          "system": "http://snomed.info/sct",
          "code": "185317003",
          "display": "Telephone encounter (procedure)"
        } ]
      } ],
      "subject": {
        "reference": "Patient/e22e977b-d6f3-421b-bfff-96aa53435da2"
      },
      "period": {
        "start": "2025-01-01T00:00:00.000Z",
        "end": "2025-01-01T01:15:00.000Z"
      }
    },
    "request": {
      "method": "POST",
      "url": "Encounter/Encounter-52"
    }
  }, {
    "fullUrl": "https://madie.cms.gov/Procedure/Procedure-24",
    "resource": {
      "resourceType": "Procedure",
      "id": "Procedure-24",
      "meta": {
        "profile": [ "http://hl7.org/fhir/us/qicore/StructureDefinition/qicore-procedure" ]
      },
      "extension": [ {
        "url": "http://hl7.org/fhir/us/qicore/StructureDefinition/qicore-recorded",
        "valueDateTime": "2025-12-31T00:00:00.000Z"
      } ],
      "status": "completed",
      "code": {
        "coding": [ {
          "system": "http://snomed.info/sct",
          "code": "609293001",
          "display": "Laparoscopic left oophorectomy after prior right oophorectomy (procedure)"
        } ]
      },
      "subject": {
        "reference": "Patient/e22e977b-d6f3-421b-bfff-96aa53435da2"
      },
      "performedPeriod": {
        "start": "2025-12-31T00:00:00.000Z",
        "end": "2025-12-31T23:59:00.000Z"
      }
    },
    "request": {
      "method": "POST",
      "url": "Procedure/Procedure-24"
    }
  }, {
    "fullUrl": "https://madie.cms.gov/MeasureReport/b585c7e0-062d-40c5-b78e-ecafaf4d1d42",
    "resource": {
      "resourceType": "MeasureReport",
      "id": "b585c7e0-062d-40c5-b78e-ecafaf4d1d42",
      "meta": {
        "profile": [ "http://hl7.org/fhir/us/cqfmeasures/StructureDefinition/test-case-cqfm" ]
      },
      "contained": [ {
        "resourceType": "Parameters",
        "id": "7ceeeb2f-9010-48ce-b458-0507d00485ec-parameters",
        "parameter": [ {
          "name": "subject",
          "valueString": "e22e977b-d6f3-421b-bfff-96aa53435da2"
        } ]
      } ],
      "extension": [ {
        "url": "http://hl7.org/fhir/us/cqfmeasures/StructureDefinition/cqfm-inputParameters",
        "valueReference": {
          "reference": "#7ceeeb2f-9010-48ce-b458-0507d00485ec-parameters"
        }
      }, {
        "url": "http://hl7.org/fhir/us/cqfmeasures/StructureDefinition/cqfm-testCaseDescription",
        "valueMarkdown": "Evidence of bilateral oophorectomy during the MP"
      } ],
      "modifierExtension": [ {
        "url": "http://hl7.org/fhir/us/cqfmeasures/StructureDefinition/cqfm-isTestCase",
        "valueBoolean": true
      } ],
      "status": "complete",
      "type": "individual",
      "measure": "https://madie.cms.gov/Measure/AppropriateDXAScansForWomenUnder65FHIR",
      "period": {
        "start": "2025-01-01",
        "end": "2025-12-31"
      },
      "group": [ {
        "population": [ {
          "code": {
            "coding": [ {
              "system": "http://terminology.hl7.org/CodeSystem/measure-population",
              "code": "initial-population",
              "display": "Initial Population"
            } ]
          },
          "count": 1
        }, {
          "code": {
            "coding": [ {
              "system": "http://terminology.hl7.org/CodeSystem/measure-population",
              "code": "denominator",
              "display": "Denominator"
            } ]
          },
          "count": 1
        }, {
          "code": {
            "coding": [ {
              "system": "http://terminology.hl7.org/CodeSystem/measure-population",
              "code": "denominator-exclusion",
              "display": "Denominator Exclusion"
            } ]
          },
          "count": 1
        }, {
          "code": {
            "coding": [ {
              "system": "http://terminology.hl7.org/CodeSystem/measure-population",
              "code": "numerator",
              "display": "Numerator"
            } ]
          },
          "count": 0
        }, {
          "code": {
            "coding": [ {
              "system": "http://terminology.hl7.org/CodeSystem/measure-population",
              "code": "numerator-exclusion",
              "display": "Numerator Exclusion"
            } ]
          },
          "count": 0
        } ]
      } ],
      "evaluatedResource": [ {
        "reference": "https://madie.cms.gov/Patient/e22e977b-d6f3-421b-bfff-96aa53435da2"
      }, {
        "reference": "https://madie.cms.gov/Encounter/Encounter-52"
      }, {
        "reference": "https://madie.cms.gov/Procedure/Procedure-24"
      } ]
    },
    "request": {
      "method": "POST",
      "url": "MeasureReport/b585c7e0-062d-40c5-b78e-ecafaf4d1d42"
    }
  } ]
}