{"resourceType":"Bundle","id":"tests-3df53f41-2dd3-4f7c-9745-0566541661c4-bundle","type":"transaction","entry":[{"fullUrl":"https://madie.cms.gov/Patient/3df53f41-2dd3-4f7c-9745-0566541661c4","resource":{"resourceType":"Patient","id":"3df53f41-2dd3-4f7c-9745-0566541661c4","meta":{"profile":["http://hl7.org/fhir/us/qicore/StructureDefinition/qicore-patient"]},"extension":[{"url":"http://hl7.org/fhir/us/core/StructureDefinition/us-core-race","extension":[{"url":"ombCategory","valueCoding":{"system":"urn:oid:2.16.840.1.113883.6.238","code":"2028-9","display":"Asian","userSelected":true}},{"url":"text","valueString":"Asian"}]},{"url":"http://hl7.org/fhir/us/core/StructureDefinition/us-core-ethnicity","extension":[{"url":"ombCategory","valueCoding":{"system":"urn:oid:2.16.840.1.113883.6.238","code":"2135-2","display":"Hispanic or Latino","userSelected":true}},{"url":"text","valueString":"Hispanic or Latino"}]}],"identifier":[{"type":{"coding":[{"system":"http://terminology.hl7.org/CodeSystem/v2-0203","code":"MR"}]},"system":"https://bonnie-fhir.healthit.gov/","value":"63f628d8d289cd498bb84238"}],"name":[{"family":"DENOMFail","given":["FundusExam1MinB4EncStart"]}],"gender":"female","birthDate":"1987-08-01"},"request":{"method":"PUT","url":"Patient/3df53f41-2dd3-4f7c-9745-0566541661c4"}},{"fullUrl":"https://madie.cms.gov/Encounter/80427aa68ec","resource":{"resourceType":"Encounter","id":"7ffa61f8-e0d9-4d50-8820-37b7819b8cbc","meta":{"profile":["http://hl7.org/fhir/us/qicore/StructureDefinition/qicore-encounter"]},"status":"finished","class":{"system":"http://terminology.hl7.org/CodeSystem/v3-ActCode","code":"AMB","display":"ambulatory","userSelected":true},"type":[{"coding":[{"system":"http://snomed.info/sct","version":"http://snomed.info/sct/731000124108/version/202303","code":"18170008","display":"Subsequent nursing facility visit (procedure)","userSelected":true}]}],"subject":{"reference":"Patient/3df53f41-2dd3-4f7c-9745-0566541661c4"},"period":{"start":"2025-03-09T08:00:00.000+00:00","end":"2025-03-09T08:15:00.000+00:00"}},"request":{"method":"PUT","url":"Encounter/7ffa61f8-e0d9-4d50-8820-37b7819b8cbc"}},{"fullUrl":"https://madie.cms.gov/Condition/8965bc34030","resource":{"resourceType":"Condition","id":"194791c5-0663-49b2-8c3e-ea7e83f77221","meta":{"profile":["http://hl7.org/fhir/us/qicore/StructureDefinition/qicore-condition"]},"clinicalStatus":{"coding":[{"system":"http://terminology.hl7.org/CodeSystem/condition-clinical","code":"active","display":"active","userSelected":true}]},"category":[{"coding":[{"system":"http://terminology.hl7.org/CodeSystem/condition-ver-status","code":"confirmed","display":"confirmed","userSelected":true}]}],"code":{"coding":[{"system":"http://snomed.info/sct","version":"http://snomed.info/sct/731000124108/version/202303","code":"193349004","display":"Preproliferative retinopathy due to diabetes mellitus (disorder)","userSelected":true}]},"subject":{"reference":"Patient/3df53f41-2dd3-4f7c-9745-0566541661c4"},"onsetDateTime":"2025-01-09T08:00:00.000+00:00"},"request":{"method":"PUT","url":"Condition/194791c5-0663-49b2-8c3e-ea7e83f77221"}},{"fullUrl":"https://madie.cms.gov/Observation/macular-exam-de24","resource":{"resourceType":"Observation","id":"7ae398dd-6249-42a1-9169-e32532bd819d","meta":{"profile":["http://hl7.org/fhir/us/qicore/StructureDefinition/qicore-observation"]},"status":"final","category":[{"coding":[{"system":"http://terminology.hl7.org/CodeSystem/condition-ver-status","code":"confirmed","display":"confirmed","userSelected":true}]}],"code":{"coding":[{"system":"http://loinc.org","version":"2.73","code":"32451-7","display":"Physical findings of Macula","userSelected":true}]},"subject":{"reference":"Patient/3df53f41-2dd3-4f7c-9745-0566541661c4"},"effectiveDateTime":"2025-03-09T07:59:00.000+00:00","issued":"2025-03-09T07:59:00.000+00:00","valueBoolean":true},"request":{"method":"PUT","url":"Observation/7ae398dd-6249-42a1-9169-e32532bd819d"}},{"fullUrl":"https://madie.cms.gov/Coverage/10009","resource":{"resourceType":"Coverage","id":"46070863-ccb0-43ca-b085-c817f3828f30","meta":{"profile":["http://hl7.org/fhir/us/qicore/StructureDefinition/qicore-coverage"]},"status":"active","beneficiary":{"reference":"Patient/3df53f41-2dd3-4f7c-9745-0566541661c4"},"payor":[{"reference":"Organization/26111c91-b0e2-476c-a20b-e3f39799f8f5"}]},"request":{"method":"PUT","url":"Coverage/46070863-ccb0-43ca-b085-c817f3828f30"}},{"fullUrl":"https://madie.cms.gov/Organization/123456","resource":{"resourceType":"Organization","id":"26111c91-b0e2-476c-a20b-e3f39799f8f5","meta":{"profile":["http://hl7.org/fhir/us/qicore/StructureDefinition/qicore-organization"]},"identifier":[{"use":"temp","system":"urn:oid:2.16.840.1.113883.4.4","value":"21-3259825"}],"active":true,"type":[{"coding":[{"system":"http://terminology.hl7.org/CodeSystem/organization-type","code":"pay","display":"Payer"}]}],"name":"Blue Cross Blue Shield of Texas","telecom":[{"system":"phone","value":"(+1) 972-766-6900"}],"address":[{"use":"billing","type":"postal","line":["P.O. Box 660044"],"city":"Dallas","state":"TX","postalCode":"75266-0044","country":"USA"}]},"request":{"method":"PUT","url":"Organization/26111c91-b0e2-476c-a20b-e3f39799f8f5"}},{"fullUrl":"https://madie.cms.gov/Practitioner/practitioner-123456","resource":{"resourceType":"Practitioner","id":"5b8f4635-55d0-429f-8973-51b406ae9801","meta":{"profile":["http://hl7.org/fhir/us/qicore/StructureDefinition/qicore-practitioner"]},"identifier":[{"system":"http://hl7.org/fhir/sid/us-npi","value":"123456"}],"name":[{"family":"Evil","prefix":["Dr"]}]},"request":{"method":"PUT","url":"Practitioner/5b8f4635-55d0-429f-8973-51b406ae9801"}},{"fullUrl":"https://madie.cms.gov/MeasureReport/4846354e-f35f-4ad7-9dde-76037035729f","resource":{"resourceType":"MeasureReport","id":"4846354e-f35f-4ad7-9dde-76037035729f","meta":{"profile":["http://hl7.org/fhir/us/cqfmeasures/StructureDefinition/test-case-cqfm"]},"contained":[{"resourceType":"Parameters","id":"f2627a5e-f6d1-495d-86de-3ed6c960653e-parameters","parameter":[{"name":"subject","valueString":"3df53f41-2dd3-4f7c-9745-0566541661c4"}]}],"extension":[{"url":"http://hl7.org/fhir/us/cqfmeasures/StructureDefinition/cqfm-inputParameters","valueReference":{"reference":"#f2627a5e-f6d1-495d-86de-3ed6c960653e-parameters"}},{"url":"http://hl7.org/fhir/us/cqfmeasures/StructureDefinition/cqfm-testCaseDescription","valueMarkdown":"Fundus Exam is performed 1 minute before start of encounter and will not pass Denominator"}],"modifierExtension":[{"url":"http://hl7.org/fhir/us/cqfmeasures/StructureDefinition/cqfm-isTestCase","valueBoolean":true}],"status":"complete","type":"individual","measure":"https://madie.cms.gov/Measure/DRCommunicationWithPhysicianManagingDiabetesFHIR","period":{"start":"2025-01-01","end":"2025-12-31"},"group":[{"population":[{"code":{"coding":[{"system":"http://terminology.hl7.org/CodeSystem/measure-population","code":"initial-population","display":"Initial Population"}]},"count":1},{"code":{"coding":[{"system":"http://terminology.hl7.org/CodeSystem/measure-population","code":"denominator","display":"Denominator"}]},"count":0},{"code":{"coding":[{"system":"http://terminology.hl7.org/CodeSystem/measure-population","code":"numerator","display":"Numerator"}]},"count":0},{"code":{"coding":[{"system":"http://terminology.hl7.org/CodeSystem/measure-population","code":"denominator-exception","display":"Denominator Exception"}]},"count":0}]}]},"request":{"method":"PUT","url":"MeasureReport/4846354e-f35f-4ad7-9dde-76037035729f"}}]}