{"resourceType":"Bundle","id":"tests-afe0cb42-4b07-4874-8ea2-46e9ecc94787-bundle","type":"transaction","entry":[{"fullUrl":"https://madie.cms.gov/Patient/afe0cb42-4b07-4874-8ea2-46e9ecc94787","resource":{"resourceType":"Patient","id":"afe0cb42-4b07-4874-8ea2-46e9ecc94787","meta":{"profile":["http://hl7.org/fhir/us/qicore/StructureDefinition/qicore-patient"]},"extension":[{"url":"http://hl7.org/fhir/us/core/StructureDefinition/us-core-race","extension":[{"url":"ombCategory","valueCoding":{"system":"urn:oid:2.16.840.1.113883.6.238","code":"2028-9","display":"Asian","userSelected":true}},{"url":"text","valueString":"Asian"}]},{"url":"http://hl7.org/fhir/us/core/StructureDefinition/us-core-ethnicity","extension":[{"url":"ombCategory","valueCoding":{"system":"urn:oid:2.16.840.1.113883.6.238","code":"2135-2","display":"Hispanic or Latino","userSelected":true}},{"url":"text","valueString":"Hispanic or Latino"}]}],"identifier":[{"type":{"coding":[{"system":"http://terminology.hl7.org/CodeSystem/v2-0203","code":"MR"}]},"system":"https://bonnie-fhir.healthit.gov/","value":"63f628d8d289cd498bb84238"}],"name":[{"family":"DENOMFail","given":["FundusExam1MinAfterEncEnd"]}],"gender":"female","birthDate":"1965-10-01"},"request":{"method":"PUT","url":"Patient/afe0cb42-4b07-4874-8ea2-46e9ecc94787"}},{"fullUrl":"https://madie.cms.gov/Encounter/6240ab270","resource":{"resourceType":"Encounter","id":"818b0f06-0dbc-488d-82a8-6ceffc00062b","meta":{"profile":["http://hl7.org/fhir/us/qicore/StructureDefinition/qicore-encounter"]},"status":"finished","class":{"system":"http://terminology.hl7.org/CodeSystem/v3-ActCode","code":"AMB","display":"ambulatory","userSelected":true},"type":[{"coding":[{"system":"http://www.ama-assn.org/go/cpt","version":"2023","code":"99212"}]}],"subject":{"reference":"Patient/afe0cb42-4b07-4874-8ea2-46e9ecc94787"},"period":{"start":"2025-03-01T08:00:00.000+00:00","end":"2025-03-01T08:20:00.000+00:00"}},"request":{"method":"PUT","url":"Encounter/818b0f06-0dbc-488d-82a8-6ceffc00062b"}},{"fullUrl":"https://madie.cms.gov/Condition/diabetic-retinopathy-de23","resource":{"resourceType":"Condition","id":"4f1e2c9c-70be-4c1b-afab-354aa34a29c6","meta":{"profile":["http://hl7.org/fhir/us/qicore/StructureDefinition/qicore-condition"]},"clinicalStatus":{"coding":[{"system":"http://terminology.hl7.org/CodeSystem/condition-clinical","code":"active","display":"active","userSelected":true}]},"category":[{"coding":[{"system":"http://terminology.hl7.org/CodeSystem/condition-ver-status","code":"confirmed","display":"confirmed","userSelected":true}]}],"code":{"coding":[{"system":"http://snomed.info/sct","version":"http://snomed.info/sct/731000124108/version/20230301","code":"312903003","display":"Mild nonproliferative retinopathy due to diabetes mellitus (disorder)"}]},"subject":{"reference":"Patient/afe0cb42-4b07-4874-8ea2-46e9ecc94787"},"onsetDateTime":"2025-01-09T08:00:00.000+00:00"},"request":{"method":"PUT","url":"Condition/4f1e2c9c-70be-4c1b-afab-354aa34a29c6"}},{"fullUrl":"https://madie.cms.gov/Observation/macular-exam-de24","resource":{"resourceType":"Observation","id":"b918aa4a-e63c-40c4-acde-8f7f57cb4d17","meta":{"profile":["http://hl7.org/fhir/us/qicore/StructureDefinition/qicore-observation"]},"status":"final","category":[{"coding":[{"system":"http://terminology.hl7.org/CodeSystem/condition-ver-status","code":"confirmed","display":"confirmed","userSelected":true}]}],"code":{"coding":[{"system":"http://loinc.org","version":"2.73","code":"32451-7","display":"Physical findings of Macula"}]},"subject":{"reference":"Patient/afe0cb42-4b07-4874-8ea2-46e9ecc94787"},"effectiveDateTime":"2025-03-01T08:21:00.000+00:00","issued":"2025-03-01T08:21:00.000+00:00","valueBoolean":true},"request":{"method":"PUT","url":"Observation/b918aa4a-e63c-40c4-acde-8f7f57cb4d17"}},{"fullUrl":"https://madie.cms.gov/Communication/level-of-severity-of-retinopathy-findings-de25","resource":{"resourceType":"Communication","id":"773956da-7419-4c65-80cb-a7595e2018a6","meta":{"profile":["http://hl7.org/fhir/us/qicore/StructureDefinition/qicore-communication"]},"status":"not-done","statusReason":{"coding":[{"system":"http://snomed.info/sct","code":"182890002","display":"Patient requests alternative treatment (finding)","userSelected":true}]},"category":[{"coding":[{"system":"http://snomed.info/sct","version":"http://snomed.info/sct/731000124108/version/202303","code":"312903003","display":"Mild nonproliferative retinopathy due to diabetes mellitus (disorder)","userSelected":true}]}],"sent":"2025-03-09T08:03:00.000+00:00"},"request":{"method":"PUT","url":"Communication/773956da-7419-4c65-80cb-a7595e2018a6"}},{"fullUrl":"https://madie.cms.gov/Communication/macular-edema-findings-present-01af","resource":{"resourceType":"Communication","id":"ccb8f8a8-f32f-4ce7-bd3f-664632112333","meta":{"profile":["http://hl7.org/fhir/us/qicore/StructureDefinition/qicore-communication"]},"status":"not-done","statusReason":{"coding":[{"system":"http://snomed.info/sct","code":"105480006","display":"Refusal of treatment by patient (situation)","userSelected":true}]},"category":[{"coding":[{"system":"http://snomed.info/sct","version":"http://snomed.info/sct/731000124108/version/202303","code":"193350004","display":"Advanced maculopathy due to diabetes mellitus (disorder)","userSelected":true}]}],"sent":"2023-03-09T08:00:00.000+00:00"},"request":{"method":"PUT","url":"Communication/ccb8f8a8-f32f-4ce7-bd3f-664632112333"}},{"fullUrl":"https://madie.cms.gov/Coverage/10009","resource":{"resourceType":"Coverage","id":"aeea4712-63aa-4425-b6fd-92206aa1ed2e","meta":{"profile":["http://hl7.org/fhir/us/qicore/StructureDefinition/qicore-coverage"]},"status":"active","beneficiary":{"reference":"Patient/afe0cb42-4b07-4874-8ea2-46e9ecc94787"},"payor":[{"reference":"Organization/26111c91-b0e2-476c-a20b-e3f39799f8f5"}]},"request":{"method":"PUT","url":"Coverage/aeea4712-63aa-4425-b6fd-92206aa1ed2e"}},{"fullUrl":"https://madie.cms.gov/Organization/123456","resource":{"resourceType":"Organization","id":"26111c91-b0e2-476c-a20b-e3f39799f8f5","meta":{"profile":["http://hl7.org/fhir/us/qicore/StructureDefinition/qicore-organization"]},"identifier":[{"use":"temp","system":"urn:oid:2.16.840.1.113883.4.4","value":"21-3259825"}],"active":true,"type":[{"coding":[{"system":"http://terminology.hl7.org/CodeSystem/organization-type","code":"pay","display":"Payer"}]}],"name":"Blue Cross Blue Shield of Texas","telecom":[{"system":"phone","value":"(+1) 972-766-6900"}],"address":[{"use":"billing","type":"postal","line":["P.O. Box 660044"],"city":"Dallas","state":"TX","postalCode":"75266-0044","country":"USA"}]},"request":{"method":"PUT","url":"Organization/26111c91-b0e2-476c-a20b-e3f39799f8f5"}},{"fullUrl":"https://madie.cms.gov/Practitioner/practitioner-123456","resource":{"resourceType":"Practitioner","id":"aa2aa107-e677-4e49-8651-0ac051358832","meta":{"profile":["http://hl7.org/fhir/us/qicore/StructureDefinition/qicore-practitioner"]},"identifier":[{"system":"http://hl7.org/fhir/sid/us-npi","value":"123456"}],"name":[{"family":"Evil","prefix":["Dr"]}]},"request":{"method":"PUT","url":"Practitioner/aa2aa107-e677-4e49-8651-0ac051358832"}},{"fullUrl":"https://madie.cms.gov/MeasureReport/dce9a427-0a6c-4e8b-b14d-7e6fbf53656d","resource":{"resourceType":"MeasureReport","id":"dce9a427-0a6c-4e8b-b14d-7e6fbf53656d","meta":{"profile":["http://hl7.org/fhir/us/cqfmeasures/StructureDefinition/test-case-cqfm"]},"contained":[{"resourceType":"Parameters","id":"47577ebc-5f13-4394-a786-9db133c75ee5-parameters","parameter":[{"name":"subject","valueString":"afe0cb42-4b07-4874-8ea2-46e9ecc94787"}]}],"extension":[{"url":"http://hl7.org/fhir/us/cqfmeasures/StructureDefinition/cqfm-inputParameters","valueReference":{"reference":"#47577ebc-5f13-4394-a786-9db133c75ee5-parameters"}},{"url":"http://hl7.org/fhir/us/cqfmeasures/StructureDefinition/cqfm-testCaseDescription","valueMarkdown":"Fundus Examination performed 1 minute after Encounter End will  not pass denominator (edge)"}],"modifierExtension":[{"url":"http://hl7.org/fhir/us/cqfmeasures/StructureDefinition/cqfm-isTestCase","valueBoolean":true}],"status":"complete","type":"individual","measure":"https://madie.cms.gov/Measure/DRCommunicationWithPhysicianManagingDiabetesFHIR","period":{"start":"2025-01-01","end":"2025-12-31"},"group":[{"population":[{"code":{"coding":[{"system":"http://terminology.hl7.org/CodeSystem/measure-population","code":"initial-population","display":"Initial Population"}]},"count":1},{"code":{"coding":[{"system":"http://terminology.hl7.org/CodeSystem/measure-population","code":"denominator","display":"Denominator"}]},"count":0},{"code":{"coding":[{"system":"http://terminology.hl7.org/CodeSystem/measure-population","code":"numerator","display":"Numerator"}]},"count":0},{"code":{"coding":[{"system":"http://terminology.hl7.org/CodeSystem/measure-population","code":"denominator-exception","display":"Denominator Exception"}]},"count":0}]}]},"request":{"method":"PUT","url":"MeasureReport/dce9a427-0a6c-4e8b-b14d-7e6fbf53656d"}}]}