{"resourceType":"Bundle","id":"tests-54e602f1-ae48-421f-ac5f-417538ae401e-bundle","type":"transaction","entry":[{"fullUrl":"https://madie.cms.gov/Patient/54e602f1-ae48-421f-ac5f-417538ae401e","resource":{"resourceType":"Patient","id":"54e602f1-ae48-421f-ac5f-417538ae401e","meta":{"profile":["http://hl7.org/fhir/us/qicore/StructureDefinition/qicore-patient"]},"extension":[{"url":"http://hl7.org/fhir/us/core/StructureDefinition/us-core-race","extension":[{"url":"ombCategory","valueCoding":{"system":"urn:oid:2.16.840.1.113883.6.238","code":"2028-9","display":"Asian","userSelected":true}},{"url":"text","valueString":"Asian"}]},{"url":"http://hl7.org/fhir/us/core/StructureDefinition/us-core-ethnicity","extension":[{"url":"ombCategory","valueCoding":{"system":"urn:oid:2.16.840.1.113883.6.238","code":"2135-2","display":"Hispanic or Latino","userSelected":true}},{"url":"text","valueString":"Hispanic or Latino"}]}],"identifier":[{"type":{"coding":[{"system":"http://terminology.hl7.org/CodeSystem/v2-0203","code":"MR"}]},"system":"https://myGoodHealthcare.com/","value":"61168b8798086b77ef9c5ec1"}],"active":true,"name":[{"use":"usual","family":"IPFail","given":["DiabeticRetinopathyDx1MinAfterEncEnd"]}],"gender":"male","birthDate":"1986-01-02"},"request":{"method":"PUT","url":"Patient/54e602f1-ae48-421f-ac5f-417538ae401e"}},{"fullUrl":"https://madie.cms.gov/Condition/5c9a42eab8484623838500c0","resource":{"resourceType":"Condition","id":"5f4bd3ef-b5e8-4a6e-b4e8-e83a893046d8","meta":{"profile":["http://hl7.org/fhir/us/qicore/StructureDefinition/qicore-condition"]},"clinicalStatus":{"coding":[{"system":"http://terminology.hl7.org/CodeSystem/condition-clinical","code":"active","display":"active","userSelected":true}]},"category":[{"coding":[{"system":"http://terminology.hl7.org/CodeSystem/condition-category","code":"problem-list-item","display":"Problem List Item"}]}],"code":{"coding":[{"system":"http://snomed.info/sct","version":"http://snomed.info/sct/731000124108/version/202303","code":"314014002"}]},"subject":{"reference":"Patient/54e602f1-ae48-421f-ac5f-417538ae401e"},"onsetDateTime":"2025-01-10T11:01:00+00:00"},"request":{"method":"PUT","url":"Condition/5f4bd3ef-b5e8-4a6e-b4e8-e83a893046d8"}},{"fullUrl":"https://madie.cms.gov/Encounter/5c9a42eab8484623839000a","resource":{"resourceType":"Encounter","id":"0920a3d6-ccce-430b-b2d3-1a29df814bed","meta":{"profile":["http://hl7.org/fhir/us/qicore/StructureDefinition/qicore-encounter"]},"status":"finished","class":{"system":"http://terminology.hl7.org/CodeSystem/v3-ActCode","code":"AMB"},"type":[{"coding":[{"system":"http://snomed.info/sct","version":"http://snomed.info/sct/731000124108/version/20230301","code":"210098006","display":"Domiciliary or rest home patient evaluation and management (procedure)"}]}],"subject":{"reference":"Patient/54e602f1-ae48-421f-ac5f-417538ae401e"},"period":{"start":"2025-01-10T10:00:00+00:00","end":"2025-01-10T11:00:00+00:00"}},"request":{"method":"PUT","url":"Encounter/0920a3d6-ccce-430b-b2d3-1a29df814bed"}},{"fullUrl":"https://madie.cms.gov/Coverage/900090","resource":{"resourceType":"Coverage","id":"caf6de45-a7af-4c0a-8172-d449098d5309","meta":{"profile":["http://hl7.org/fhir/us/qicore/StructureDefinition/qicore-coverage"]},"status":"active","beneficiary":{"reference":"Patient/54e602f1-ae48-421f-ac5f-417538ae401e"},"payor":[{"reference":"Organization/26111c91-b0e2-476c-a20b-e3f39799f8f5"}]},"request":{"method":"PUT","url":"Coverage/caf6de45-a7af-4c0a-8172-d449098d5309"}},{"fullUrl":"https://madie.cms.gov/Organization/123456","resource":{"resourceType":"Organization","id":"26111c91-b0e2-476c-a20b-e3f39799f8f5","meta":{"profile":["http://hl7.org/fhir/us/qicore/StructureDefinition/qicore-organization"]},"identifier":[{"use":"temp","system":"urn:oid:2.16.840.1.113883.4.4","value":"21-3259825"}],"active":true,"type":[{"coding":[{"system":"http://terminology.hl7.org/CodeSystem/organization-type","code":"pay","display":"Payer"}]}],"name":"Blue Cross Blue Shield of Texas","telecom":[{"system":"phone","value":"(+1) 972-766-6900"}],"address":[{"use":"billing","type":"postal","line":["P.O. Box 660044"],"city":"Dallas","state":"TX","postalCode":"75266-0044","country":"USA"}]},"request":{"method":"PUT","url":"Organization/26111c91-b0e2-476c-a20b-e3f39799f8f5"}},{"fullUrl":"https://madie.cms.gov/MeasureReport/44f08861-bb10-425d-96fe-46ad57dca23d","resource":{"resourceType":"MeasureReport","id":"44f08861-bb10-425d-96fe-46ad57dca23d","meta":{"profile":["http://hl7.org/fhir/us/cqfmeasures/StructureDefinition/test-case-cqfm"]},"contained":[{"resourceType":"Parameters","id":"5c1bad6e-e73f-4fd3-83de-8de16c77f049-parameters","parameter":[{"name":"subject","valueString":"54e602f1-ae48-421f-ac5f-417538ae401e"}]}],"extension":[{"url":"http://hl7.org/fhir/us/cqfmeasures/StructureDefinition/cqfm-inputParameters","valueReference":{"reference":"#5c1bad6e-e73f-4fd3-83de-8de16c77f049-parameters"}},{"url":"http://hl7.org/fhir/us/cqfmeasures/StructureDefinition/cqfm-testCaseDescription","valueMarkdown":"Fails Initial Population due to Diabetic Retinopathy dx onset 1 min after end of Encounter Edge."}],"modifierExtension":[{"url":"http://hl7.org/fhir/us/cqfmeasures/StructureDefinition/cqfm-isTestCase","valueBoolean":true}],"status":"complete","type":"individual","measure":"https://madie.cms.gov/Measure/DRCommunicationWithPhysicianManagingDiabetesFHIR","period":{"start":"2025-01-01","end":"2025-12-31"},"group":[{"population":[{"code":{"coding":[{"system":"http://terminology.hl7.org/CodeSystem/measure-population","code":"initial-population","display":"Initial Population"}]},"count":0},{"code":{"coding":[{"system":"http://terminology.hl7.org/CodeSystem/measure-population","code":"denominator","display":"Denominator"}]},"count":0},{"code":{"coding":[{"system":"http://terminology.hl7.org/CodeSystem/measure-population","code":"numerator","display":"Numerator"}]},"count":0},{"code":{"coding":[{"system":"http://terminology.hl7.org/CodeSystem/measure-population","code":"denominator-exception","display":"Denominator Exception"}]},"count":0}]}]},"request":{"method":"PUT","url":"MeasureReport/44f08861-bb10-425d-96fe-46ad57dca23d"}}]}