{"resourceType":"Bundle","id":"tests-3835c33d-b335-44d7-a7b6-c8a0d5420290-bundle","type":"transaction","entry":[{"fullUrl":"https://madie.cms.gov/Patient/3835c33d-b335-44d7-a7b6-c8a0d5420290","resource":{"resourceType":"Patient","id":"3835c33d-b335-44d7-a7b6-c8a0d5420290","meta":{"profile":["http://hl7.org/fhir/us/qicore/StructureDefinition/qicore-patient"]},"extension":[{"url":"http://hl7.org/fhir/us/core/StructureDefinition/us-core-race","extension":[{"url":"ombCategory","valueCoding":{"system":"urn:oid:2.16.840.1.113883.6.238","code":"2106-3","display":"White","userSelected":true}},{"url":"text","valueString":"White"}]},{"url":"http://hl7.org/fhir/us/core/StructureDefinition/us-core-ethnicity","extension":[{"url":"ombCategory","valueCoding":{"system":"urn:oid:2.16.840.1.113883.6.238","code":"2186-5","display":"Not Hispanic or Latino","userSelected":true}},{"url":"text","valueString":"Not Hispanic or Latino"}]}],"identifier":[{"type":{"coding":[{"system":"http://terminology.hl7.org/CodeSystem/v2-0203","code":"MR"}]},"system":"https://bonnie-fhir.healthit.gov/","value":"61168b8798086b77ef9c5ec9"}],"active":true,"name":[{"use":"usual","family":"NUMERPass","given":["BothCommANDEdemaPresentAfterEnc"]}],"gender":"female","birthDate":"1986-05-26"},"request":{"method":"PUT","url":"Patient/3835c33d-b335-44d7-a7b6-c8a0d5420290"}},{"fullUrl":"https://madie.cms.gov/Communication/5cf6a4fcb8484632a744b1ca","resource":{"resourceType":"Communication","id":"8544b4da-0285-4f36-bc8a-4a6eca079faf","meta":{"profile":["http://hl7.org/fhir/us/qicore/StructureDefinition/qicore-communication"]},"extension":[{"url":"http://hl7.org/fhir/us/qicore/StructureDefinition/qicore-recorded","valueDateTime":"2025-06-26T16:15:00+00:00"}],"status":"completed","category":[{"coding":[{"system":"http://snomed.info/sct","version":"http://snomed.info/sct/731000124108/version/202303","code":"312903003","display":"Mild nonproliferative retinopathy due to diabetes mellitus (disorder)","userSelected":true}]}],"subject":{"reference":"Patient/3835c33d-b335-44d7-a7b6-c8a0d5420290"},"sent":"2025-06-26T16:15:00.000+00:00","reasonCode":[{"coding":[{"system":"http://snomed.info/sct","code":"312903003"}]}]},"request":{"method":"PUT","url":"Communication/8544b4da-0285-4f36-bc8a-4a6eca079faf"}},{"fullUrl":"https://madie.cms.gov/Communication/5cf6a4fcb8484632a744b1cb","resource":{"resourceType":"Communication","id":"5dc2caaf-24e9-41e2-bc6a-04339ca783ce","meta":{"profile":["http://hl7.org/fhir/us/qicore/StructureDefinition/qicore-communication"]},"extension":[{"url":"http://hl7.org/fhir/us/qicore/StructureDefinition/qicore-recorded","valueDateTime":"2025-12-21T16:15:00+00:00"}],"status":"completed","category":[{"coding":[{"system":"http://snomed.info/sct","version":"http://snomed.info/sct/731000124108/version/202303","code":"193350004","display":"Advanced maculopathy due to diabetes mellitus (disorder)","userSelected":true}]}],"subject":{"reference":"Patient/3835c33d-b335-44d7-a7b6-c8a0d5420290"},"sent":"2025-12-21T08:00:00.000+00:00","reasonCode":[{"coding":[{"system":"http://snomed.info/sct","version":"http://snomed.info/sct/731000124108/version/202303","code":"193350004"}]}]},"request":{"method":"PUT","url":"Communication/5dc2caaf-24e9-41e2-bc6a-04339ca783ce"}},{"fullUrl":"https://madie.cms.gov/Condition/5cf6a4fcb8484632a744b1c6","resource":{"resourceType":"Condition","id":"7703d5ef-4cf6-44d5-ad1d-faeeecd5fb41","meta":{"profile":["http://hl7.org/fhir/us/qicore/StructureDefinition/qicore-condition"]},"clinicalStatus":{"coding":[{"system":"http://terminology.hl7.org/CodeSystem/condition-clinical","code":"active","display":"active","userSelected":true}]},"category":[{"coding":[{"system":"http://terminology.hl7.org/CodeSystem/condition-category","code":"problem-list-item","display":"Problem List Item"}]}],"code":{"coding":[{"system":"http://snomed.info/sct","version":"http://snomed.info/sct/731000124108/version/202303","code":"314011005"}]},"subject":{"reference":"Patient/3835c33d-b335-44d7-a7b6-c8a0d5420290"},"onsetDateTime":"2025-06-27T15:00:00.000+00:00"},"request":{"method":"PUT","url":"Condition/7703d5ef-4cf6-44d5-ad1d-faeeecd5fb41"}},{"fullUrl":"https://madie.cms.gov/Observation/5cf6a4fcb8484632a744b1c8","resource":{"resourceType":"Observation","id":"42ad04e4-b1f0-4526-8b66-4ab0979fdd36","meta":{"profile":["http://hl7.org/fhir/us/qicore/StructureDefinition/qicore-observation"]},"status":"final","category":[{"coding":[{"system":"http://terminology.hl7.org/CodeSystem/observation-category","code":"vital-signs","display":"Vital Signs"}]}],"code":{"coding":[{"system":"http://loinc.org","version":"2.73","code":"32451-7"}]},"subject":{"reference":"Patient/3835c33d-b335-44d7-a7b6-c8a0d5420290"},"effectiveDateTime":"2025-08-28T16:10:00.000+00:00","valueCodeableConcept":{"coding":[{"system":"http://loinc.org","version":"2.73","code":"32451-7","display":"Physical findings of Macula","userSelected":true}]}},"request":{"method":"PUT","url":"Observation/42ad04e4-b1f0-4526-8b66-4ab0979fdd36"}},{"fullUrl":"https://madie.cms.gov/Encounter/5cf6a4fcb8484632a744b1c7","resource":{"resourceType":"Encounter","id":"5ca1d902-2eb7-4b5b-82ca-a2b8a9080e27","meta":{"profile":["http://hl7.org/fhir/us/qicore/StructureDefinition/qicore-encounter"]},"status":"finished","class":{"system":"http://terminology.hl7.org/CodeSystem/v3-ActCode","code":"AMB"},"type":[{"coding":[{"system":"http://snomed.info/sct","version":"http://snomed.info/sct/731000124108/version/202303","code":"17436001"},{"system":"http://www.ama-assn.org/go/cpt","version":"2023","code":"99205"}]}],"subject":{"reference":"Patient/3835c33d-b335-44d7-a7b6-c8a0d5420290"},"period":{"start":"2025-06-26T16:00:00.000+00:00","end":"2025-09-28T17:00:00.000+00:00"},"length":{"value":0.0,"unit":"days"}},"request":{"method":"PUT","url":"Encounter/5ca1d902-2eb7-4b5b-82ca-a2b8a9080e27"}},{"fullUrl":"https://madie.cms.gov/MeasureReport/b127f2eb-99d8-471e-897b-b9e8227706c0","resource":{"resourceType":"MeasureReport","id":"b127f2eb-99d8-471e-897b-b9e8227706c0","meta":{"profile":["http://hl7.org/fhir/us/cqfmeasures/StructureDefinition/test-case-cqfm"]},"contained":[{"resourceType":"Parameters","id":"12cbb03f-0c36-4729-bc53-a2118fe18feb-parameters","parameter":[{"name":"subject","valueString":"3835c33d-b335-44d7-a7b6-c8a0d5420290"}]}],"extension":[{"url":"http://hl7.org/fhir/us/cqfmeasures/StructureDefinition/cqfm-inputParameters","valueReference":{"reference":"#12cbb03f-0c36-4729-bc53-a2118fe18feb-parameters"}},{"url":"http://hl7.org/fhir/us/cqfmeasures/StructureDefinition/cqfm-testCaseDescription","valueMarkdown":"Patient with both communications, macular edema present after start of encounter. "}],"modifierExtension":[{"url":"http://hl7.org/fhir/us/cqfmeasures/StructureDefinition/cqfm-isTestCase","valueBoolean":true}],"status":"complete","type":"individual","measure":"https://madie.cms.gov/Measure/DRCommunicationWithPhysicianManagingDiabetesFHIR","period":{"start":"2025-01-01","end":"2025-12-31"},"group":[{"population":[{"code":{"coding":[{"system":"http://terminology.hl7.org/CodeSystem/measure-population","code":"initial-population","display":"Initial Population"}]},"count":1},{"code":{"coding":[{"system":"http://terminology.hl7.org/CodeSystem/measure-population","code":"denominator","display":"Denominator"}]},"count":1},{"code":{"coding":[{"system":"http://terminology.hl7.org/CodeSystem/measure-population","code":"numerator","display":"Numerator"}]},"count":1},{"code":{"coding":[{"system":"http://terminology.hl7.org/CodeSystem/measure-population","code":"denominator-exception","display":"Denominator Exception"}]},"count":0}]}]},"request":{"method":"PUT","url":"MeasureReport/b127f2eb-99d8-471e-897b-b9e8227706c0"}}]}