{"resourceType":"Bundle","id":"tests-23e5040b-3043-4801-b5cd-2a595fcdd665-bundle","type":"transaction","entry":[{"fullUrl":"https://madie.cms.gov/Patient/23e5040b-3043-4801-b5cd-2a595fcdd665","resource":{"resourceType":"Patient","id":"23e5040b-3043-4801-b5cd-2a595fcdd665","meta":{"profile":["http://hl7.org/fhir/us/qicore/StructureDefinition/qicore-patient"]},"extension":[{"url":"http://hl7.org/fhir/us/core/StructureDefinition/us-core-race","extension":[{"url":"ombCategory","valueCoding":{"system":"urn:oid:2.16.840.1.113883.6.238","code":"2054-5","display":"Black or African American"}},{"url":"text","valueString":"Black or African American"}]},{"url":"http://hl7.org/fhir/us/core/StructureDefinition/us-core-ethnicity","extension":[{"url":"ombCategory","valueCoding":{"system":"urn:oid:2.16.840.1.113883.6.238","code":"2186-5","display":"Not Hispanic or Latino"}},{"url":"text","valueString":"Not Hispanic or Latino"}]}],"identifier":[{"type":{"coding":[{"system":"http://terminology.hl7.org/CodeSystem/v2-0203","code":"MR"}]},"system":"https://bonnie-fhir.healthit.gov/","value":"1351313131"}],"active":true,"name":[{"use":"usual","family":"DENEXCEPPass","given":["ArrhythmiaDxBeforeLastEnc"]}],"gender":"male","birthDate":"1947-02-03"},"request":{"method":"PUT","url":"Patient/23e5040b-3043-4801-b5cd-2a595fcdd665"}},{"fullUrl":"https://madie.cms.gov/Encounter/4643513434","resource":{"resourceType":"Encounter","id":"c9355613-73cd-4199-93af-4c8803be1daa","meta":{"profile":["http://hl7.org/fhir/us/qicore/StructureDefinition/qicore-encounter"]},"status":"finished","class":{"system":"http://terminology.hl7.org/CodeSystem/v3-ActCode","code":"AMB","display":"ambulatory"},"type":[{"coding":[{"system":"http://www.ama-assn.org/go/cpt","version":"2024","code":"99213"}]}],"subject":{"reference":"Patient/23e5040b-3043-4801-b5cd-2a595fcdd665"},"period":{"start":"2025-05-25T14:20:00.000+00:00","end":"2025-05-25T14:40:00.000+00:00"}},"request":{"method":"PUT","url":"Encounter/c9355613-73cd-4199-93af-4c8803be1daa"}},{"fullUrl":"https://madie.cms.gov/Encounter/546313131631","resource":{"resourceType":"Encounter","id":"8342931a-d2c5-4dd1-8fe3-c622cc6b4a76","meta":{"profile":["http://hl7.org/fhir/us/qicore/StructureDefinition/qicore-encounter"]},"status":"finished","class":{"system":"http://terminology.hl7.org/CodeSystem/v3-ActCode","code":"AMB","display":"ambulatory"},"type":[{"coding":[{"system":"http://www.ama-assn.org/go/cpt","version":"2024","code":"99212"}]}],"subject":{"reference":"Patient/23e5040b-3043-4801-b5cd-2a595fcdd665"},"period":{"start":"2025-09-05T15:30:00.000+00:00","end":"2025-09-05T15:50:00.000+00:00"}},"request":{"method":"PUT","url":"Encounter/8342931a-d2c5-4dd1-8fe3-c622cc6b4a76"}},{"fullUrl":"https://madie.cms.gov/Condition/1316343131","resource":{"resourceType":"Condition","id":"88535424-cc57-44a4-bbfe-5b4e1976e37b","meta":{"profile":["http://hl7.org/fhir/us/qicore/StructureDefinition/qicore-condition"]},"clinicalStatus":{"coding":[{"system":"http://terminology.hl7.org/CodeSystem/condition-clinical","code":"active","display":"active"}]},"verificationStatus":{"coding":[{"system":"http://terminology.hl7.org/CodeSystem/condition-ver-status","code":"confirmed","display":"Confirmed"}]},"category":[{"coding":[{"system":"http://terminology.hl7.org/CodeSystem/condition-category","code":"problem-list-item","display":"problem list item"}]}],"code":{"coding":[{"system":"http://snomed.info/sct","version":"http://snomed.info/sct/731000124108/version/20240301","code":"364006"}]},"subject":{"reference":"Patient/23e5040b-3043-4801-b5cd-2a595fcdd665"},"onsetPeriod":{"start":"2025-06-27T10:00:00.000+00:00"}},"request":{"method":"PUT","url":"Condition/88535424-cc57-44a4-bbfe-5b4e1976e37b"}},{"fullUrl":"https://madie.cms.gov/Condition/9873131313","resource":{"resourceType":"Condition","id":"91da1047-1231-4f9d-a7d5-6f595fbaa5a1","meta":{"profile":["http://hl7.org/fhir/us/qicore/StructureDefinition/qicore-condition"]},"clinicalStatus":{"coding":[{"system":"http://terminology.hl7.org/CodeSystem/condition-clinical","code":"active","display":"active"}]},"verificationStatus":{"coding":[{"system":"http://terminology.hl7.org/CodeSystem/condition-ver-status","code":"confirmed","display":"Confirmed"}]},"category":[{"coding":[{"system":"http://terminology.hl7.org/CodeSystem/condition-category","code":"problem-list-item","display":"problem list item"}]}],"severity":{"coding":[{"system":"http://snomed.info/sct","version":"http://snomed.info/sct/731000124108/version/20240301","code":"24484000","display":"Severe (severity modifier) (qualifier value)"}]},"code":{"coding":[{"system":"http://snomed.info/sct","version":"http://snomed.info/sct/731000124108/version/20240301","code":"134401001","display":"Left ventricular systolic dysfunction (disorder)"}]},"subject":{"reference":"Patient/23e5040b-3043-4801-b5cd-2a595fcdd665"},"onsetPeriod":{"start":"2025-08-11T23:50:00+00:00"}},"request":{"method":"PUT","url":"Condition/91da1047-1231-4f9d-a7d5-6f595fbaa5a1"}},{"fullUrl":"https://madie.cms.gov/Observation/5463131313","resource":{"resourceType":"Observation","id":"5074173b-380a-4b29-8b5d-35558eb0426b","meta":{"profile":["http://hl7.org/fhir/StructureDefinition/heartrate"]},"status":"final","category":[{"coding":[{"system":"http://terminology.hl7.org/CodeSystem/observation-category","code":"imaging","display":"Imaging"}]},{"coding":[{"system":"http://terminology.hl7.org/CodeSystem/observation-category","code":"vital-signs","display":"Vital signs"}]}],"code":{"coding":[{"system":"http://loinc.org","version":"2.76","code":"8867-4"}]},"subject":{"reference":"Patient/23e5040b-3043-4801-b5cd-2a595fcdd665"},"effectiveDateTime":"2025-09-05T15:40:00.000+00:00","valueQuantity":{"value":30,"unit":"/min","system":"http://unitsofmeasure.org","code":"/min"}},"request":{"method":"PUT","url":"Observation/5074173b-380a-4b29-8b5d-35558eb0426b"}},{"fullUrl":"https://madie.cms.gov/Condition/1316345000","resource":{"resourceType":"Condition","id":"5c5af8e1-4295-4107-84ba-37f20caa3f1b","meta":{"profile":["http://hl7.org/fhir/us/qicore/StructureDefinition/qicore-condition"]},"clinicalStatus":{"coding":[{"system":"http://terminology.hl7.org/CodeSystem/condition-clinical","code":"active","display":"active"}]},"verificationStatus":{"coding":[{"system":"http://terminology.hl7.org/CodeSystem/condition-ver-status","code":"confirmed","display":"Confirmed"}]},"category":[{"coding":[{"system":"http://terminology.hl7.org/CodeSystem/condition-category","code":"problem-list-item","display":"problem list item"}]}],"code":{"coding":[{"system":"http://snomed.info/sct","version":"http://snomed.info/sct/731000124108/version/20240301","code":"11849007","display":"Atrioventricular junctional rhythm (disorder)"}]},"subject":{"reference":"Patient/23e5040b-3043-4801-b5cd-2a595fcdd665"},"onsetPeriod":{"start":"2025-06-27T10:00:00.000+00:00"}},"request":{"method":"PUT","url":"Condition/5c5af8e1-4295-4107-84ba-37f20caa3f1b"}},{"fullUrl":"https://madie.cms.gov/Observation/5413131313","resource":{"resourceType":"Observation","id":"2a0c686f-b38e-4fb8-96a4-a59f4393dd76","meta":{"profile":["http://hl7.org/fhir/StructureDefinition/heartrate"]},"status":"final","category":[{"coding":[{"system":"http://terminology.hl7.org/CodeSystem/observation-category","code":"imaging","display":"Imaging"}]},{"coding":[{"system":"http://terminology.hl7.org/CodeSystem/observation-category","code":"vital-signs","display":"Vital signs"}]}],"code":{"coding":[{"system":"http://loinc.org","version":"2.76","code":"8867-4"}]},"subject":{"reference":"Patient/23e5040b-3043-4801-b5cd-2a595fcdd665"},"effectiveDateTime":"2025-09-05T15:35:00.000+00:00","valueQuantity":{"value":30,"unit":"/min","system":"http://unitsofmeasure.org","code":"/min"}},"request":{"method":"PUT","url":"Observation/2a0c686f-b38e-4fb8-96a4-a59f4393dd76"}},{"fullUrl":"https://madie.cms.gov/MeasureReport/98ed0885-20c5-484c-a5c4-abd1aead77b1","resource":{"resourceType":"MeasureReport","id":"98ed0885-20c5-484c-a5c4-abd1aead77b1","meta":{"profile":["http://hl7.org/fhir/us/cqfmeasures/StructureDefinition/test-case-cqfm"]},"contained":[{"resourceType":"Parameters","id":"6d412116-057f-470a-8d29-2ca8a4f36df2-parameters","parameter":[{"name":"subject","valueString":"23e5040b-3043-4801-b5cd-2a595fcdd665"}]}],"extension":[{"url":"http://hl7.org/fhir/us/cqfmeasures/StructureDefinition/cqfm-inputParameters","valueReference":{"reference":"#6d412116-057f-470a-8d29-2ca8a4f36df2-parameters"}},{"url":"http://hl7.org/fhir/us/cqfmeasures/StructureDefinition/cqfm-testCaseDescription","valueMarkdown":"Patient with arrhythmia starting before last encounter in measurement period. Patient excepted due to arrhythmia diagnosis before last encounter."}],"modifierExtension":[{"url":"http://hl7.org/fhir/us/cqfmeasures/StructureDefinition/cqfm-isTestCase","valueBoolean":true}],"status":"complete","type":"individual","measure":"https://madie.cms.gov/Measure/HFBetaBlockerTherapyforLVSDFHIR","period":{"start":"2025-01-01","end":"2025-12-31"},"group":[{"population":[{"code":{"coding":[{"system":"http://terminology.hl7.org/CodeSystem/measure-population","code":"initial-population","display":"Initial Population"}]},"count":1},{"code":{"coding":[{"system":"http://terminology.hl7.org/CodeSystem/measure-population","code":"denominator","display":"Denominator"}]},"count":1},{"code":{"coding":[{"system":"http://terminology.hl7.org/CodeSystem/measure-population","code":"denominator-exclusion","display":"Denominator Exclusion"}]},"count":0},{"code":{"coding":[{"system":"http://terminology.hl7.org/CodeSystem/measure-population","code":"numerator","display":"Numerator"}]},"count":0},{"code":{"coding":[{"system":"http://terminology.hl7.org/CodeSystem/measure-population","code":"denominator-exception","display":"Denominator Exception"}]},"count":1}]}]},"request":{"method":"PUT","url":"MeasureReport/98ed0885-20c5-484c-a5c4-abd1aead77b1"}}]}