{"resourceType":"Bundle","id":"tests-beb3d3a9-cf53-491e-b924-018f998b4c00-bundle","type":"transaction","entry":[{"fullUrl":"https://madie.cms.gov/Patient/beb3d3a9-cf53-491e-b924-018f998b4c00","resource":{"resourceType":"Patient","id":"beb3d3a9-cf53-491e-b924-018f998b4c00","meta":{"profile":["http://hl7.org/fhir/us/qicore/StructureDefinition/qicore-patient"]},"extension":[{"url":"http://hl7.org/fhir/us/core/StructureDefinition/us-core-race","extension":[{"url":"ombCategory","valueCoding":{"system":"urn:oid:2.16.840.1.113883.6.238","code":"2076-8","display":"Native Hawaiian or Other Pacific Islander"}},{"url":"text","valueString":"Native Hawaiian or Other Pacific Islander"}]},{"url":"http://hl7.org/fhir/us/core/StructureDefinition/us-core-ethnicity","extension":[{"url":"ombCategory","valueCoding":{"system":"urn:oid:2.16.840.1.113883.6.238","code":"2186-5","display":"Not Hispanic or Latino"}},{"url":"text","valueString":"Not Hispanic or Latino"}]}],"identifier":[{"type":{"coding":[{"system":"http://terminology.hl7.org/CodeSystem/v2-0203","code":"MR"}]},"system":"https://bonnie-fhir.healthit.gov/","value":"6464649435154"}],"active":true,"name":[{"use":"usual","family":"DENEXPass","given":["HeartTransComplicationsRecordedDatetime"]}],"gender":"male","birthDate":"1974-02-10"},"request":{"method":"PUT","url":"Patient/beb3d3a9-cf53-491e-b924-018f998b4c00"}},{"fullUrl":"https://madie.cms.gov/Encounter/5651adf3516513516d546","resource":{"resourceType":"Encounter","id":"fc446158-e8ff-42c1-be8b-c85b15fe9596","meta":{"profile":["http://hl7.org/fhir/us/qicore/StructureDefinition/qicore-encounter"]},"status":"finished","class":{"system":"http://terminology.hl7.org/CodeSystem/v3-ActCode","code":"AMB","display":"ambulatory"},"type":[{"coding":[{"system":"http://www.ama-assn.org/go/cpt","version":"2024","code":"99213"}]}],"subject":{"reference":"Patient/beb3d3a9-cf53-491e-b924-018f998b4c00"},"period":{"start":"2025-04-14T14:40:00.000+00:00","end":"2025-04-14T14:50:00.000+00:00"},"length":{"value":0,"unit":"days"}},"request":{"method":"PUT","url":"Encounter/fc446158-e8ff-42c1-be8b-c85b15fe9596"}},{"fullUrl":"https://madie.cms.gov/Condition/34681adf5146513516df4","resource":{"resourceType":"Condition","id":"a8319e42-f093-408f-bf33-f64dd4f947cb","meta":{"profile":["http://hl7.org/fhir/us/qicore/StructureDefinition/qicore-condition"]},"clinicalStatus":{"coding":[{"system":"http://terminology.hl7.org/CodeSystem/condition-clinical","code":"active","display":"Active"}]},"verificationStatus":{"coding":[{"system":"http://terminology.hl7.org/CodeSystem/condition-ver-status","code":"confirmed","display":"Confirmed"}]},"category":[{"coding":[{"system":"http://terminology.hl7.org/CodeSystem/condition-category","code":"problem-list-item","display":"Problem List Item"}]}],"code":{"coding":[{"system":"http://snomed.info/sct","version":"http://snomed.info/sct/731000124108/version/20240301","code":"213151004","display":"Heart transplant failure and rejection (disorder)"}]},"subject":{"reference":"Patient/beb3d3a9-cf53-491e-b924-018f998b4c00"},"recordedDate":"2025-02-14T14:41:00.000+00:00"},"request":{"method":"PUT","url":"Condition/a8319e42-f093-408f-bf33-f64dd4f947cb"}},{"fullUrl":"https://madie.cms.gov/Encounter/684afd6546465126sdaf46","resource":{"resourceType":"Encounter","id":"e5387f6f-99e6-483d-9f44-c32e549f7c59","meta":{"profile":["http://hl7.org/fhir/us/qicore/StructureDefinition/qicore-encounter"]},"status":"finished","class":{"system":"http://terminology.hl7.org/CodeSystem/v3-ActCode","code":"AMB","display":"ambulatory"},"type":[{"coding":[{"system":"http://www.ama-assn.org/go/cpt","version":"2024","code":"99212"}]}],"subject":{"reference":"Patient/beb3d3a9-cf53-491e-b924-018f998b4c00"},"period":{"start":"2025-07-20T11:50:00+00:00","end":"2025-07-20T11:50:00+00:00"},"length":{"value":0,"unit":"days"}},"request":{"method":"PUT","url":"Encounter/e5387f6f-99e6-483d-9f44-c32e549f7c59"}},{"fullUrl":"https://madie.cms.gov/Condition/5c954de8b848462de0ae766e","resource":{"resourceType":"Condition","id":"0cd3f7b6-d176-484f-8732-132ab13816b6","meta":{"profile":["http://hl7.org/fhir/us/qicore/StructureDefinition/qicore-condition"]},"clinicalStatus":{"coding":[{"system":"http://terminology.hl7.org/CodeSystem/condition-clinical","code":"active","display":"Active"}]},"verificationStatus":{"coding":[{"system":"http://terminology.hl7.org/CodeSystem/condition-ver-status","code":"confirmed","display":"Confirmed"}]},"category":[{"coding":[{"system":"http://terminology.hl7.org/CodeSystem/condition-category","code":"problem-list-item","display":"Problem List Item"}]}],"code":{"coding":[{"system":"http://hl7.org/fhir/sid/icd-10-cm","version":"2024","code":"I11.0"}]},"subject":{"reference":"Patient/beb3d3a9-cf53-491e-b924-018f998b4c00"},"onsetPeriod":{"start":"2025-04-11T10:00:00+00:00"},"recordedDate":"2025-04-11T10:00:00+00:00"},"request":{"method":"PUT","url":"Condition/0cd3f7b6-d176-484f-8732-132ab13816b6"}},{"fullUrl":"https://madie.cms.gov/Condition/161354681ds3516sdaf513","resource":{"resourceType":"Condition","id":"10258722-6e27-4b03-869b-5fb69afe8503","meta":{"profile":["http://hl7.org/fhir/us/qicore/StructureDefinition/qicore-condition"]},"clinicalStatus":{"coding":[{"system":"http://terminology.hl7.org/CodeSystem/condition-clinical","code":"active","display":"Active"}]},"verificationStatus":{"coding":[{"system":"http://terminology.hl7.org/CodeSystem/condition-ver-status","code":"confirmed","display":"Confirmed"}]},"category":[{"coding":[{"system":"http://terminology.hl7.org/CodeSystem/condition-category","code":"problem-list-item","display":"Problem List Item"}]}],"severity":{"coding":[{"system":"http://snomed.info/sct","version":"http://snomed.info/sct/731000124108/version/20240301","code":"24484000","display":"Severe (severity modifier) (qualifier value)"}]},"code":{"coding":[{"system":"http://snomed.info/sct","version":"http://snomed.info/sct/731000124108/version/20240301","code":"134401001","display":"Left ventricular systolic dysfunction (disorder)"}]},"subject":{"reference":"Patient/beb3d3a9-cf53-491e-b924-018f998b4c00"},"onsetPeriod":{"start":"2025-04-14T14:41:00.000+00:00"},"recordedDate":"2025-04-14T14:41:00.000+00:00"},"request":{"method":"PUT","url":"Condition/10258722-6e27-4b03-869b-5fb69afe8503"}},{"fullUrl":"https://madie.cms.gov/MeasureReport/8cd92adb-728d-4240-8692-7c2e316b2865","resource":{"resourceType":"MeasureReport","id":"8cd92adb-728d-4240-8692-7c2e316b2865","meta":{"profile":["http://hl7.org/fhir/us/cqfmeasures/StructureDefinition/test-case-cqfm"]},"contained":[{"resourceType":"Parameters","id":"7865df14-60f8-44fb-a990-ec731fb1482b-parameters","parameter":[{"name":"subject","valueString":"beb3d3a9-cf53-491e-b924-018f998b4c00"}]}],"extension":[{"url":"http://hl7.org/fhir/us/cqfmeasures/StructureDefinition/cqfm-inputParameters","valueReference":{"reference":"#7865df14-60f8-44fb-a990-ec731fb1482b-parameters"}},{"url":"http://hl7.org/fhir/us/cqfmeasures/StructureDefinition/cqfm-testCaseDescription","valueMarkdown":"Meeting Denominator Exclusion d/t Heart Transplant Complication condition with recorded datetime before LVSD encounter"}],"modifierExtension":[{"url":"http://hl7.org/fhir/us/cqfmeasures/StructureDefinition/cqfm-isTestCase","valueBoolean":true}],"status":"complete","type":"individual","measure":"https://madie.cms.gov/Measure/HFBetaBlockerTherapyforLVSDFHIR","period":{"start":"2025-01-01","end":"2025-12-31"},"group":[{"population":[{"code":{"coding":[{"system":"http://terminology.hl7.org/CodeSystem/measure-population","code":"initial-population","display":"Initial Population"}]},"count":1},{"code":{"coding":[{"system":"http://terminology.hl7.org/CodeSystem/measure-population","code":"denominator","display":"Denominator"}]},"count":1},{"code":{"coding":[{"system":"http://terminology.hl7.org/CodeSystem/measure-population","code":"denominator-exclusion","display":"Denominator Exclusion"}]},"count":1},{"code":{"coding":[{"system":"http://terminology.hl7.org/CodeSystem/measure-population","code":"numerator","display":"Numerator"}]},"count":0},{"code":{"coding":[{"system":"http://terminology.hl7.org/CodeSystem/measure-population","code":"denominator-exception","display":"Denominator Exception"}]},"count":0}]}]},"request":{"method":"PUT","url":"MeasureReport/8cd92adb-728d-4240-8692-7c2e316b2865"}}]}