{"resourceType":"Bundle","id":"tests-b237df97-2a8e-4b63-85c3-b9ff658c645c-bundle","type":"transaction","entry":[{"fullUrl":"https://madie.cms.gov/Patient/b237df97-2a8e-4b63-85c3-b9ff658c645c","resource":{"resourceType":"Patient","id":"b237df97-2a8e-4b63-85c3-b9ff658c645c","meta":{"profile":["http://hl7.org/fhir/us/qicore/StructureDefinition/qicore-patient"]},"extension":[{"url":"http://hl7.org/fhir/us/core/StructureDefinition/us-core-race","extension":[{"url":"ombCategory","valueCoding":{"system":"urn:oid:2.16.840.1.113883.6.238","code":"2076-8","display":"Native Hawaiian or Other Pacific Islander"}},{"url":"text","valueString":"Native Hawaiian or Other Pacific Islander"}]},{"url":"http://hl7.org/fhir/us/core/StructureDefinition/us-core-ethnicity","extension":[{"url":"ombCategory","valueCoding":{"system":"urn:oid:2.16.840.1.113883.6.238","code":"2186-5","display":"Not Hispanic or Latino"}},{"url":"text","valueString":"Not Hispanic or Latino"}]}],"identifier":[{"type":{"coding":[{"system":"http://terminology.hl7.org/CodeSystem/v2-0203","code":"MR"}]},"system":"https://bonnie-fhir.healthit.gov/","value":"684636811312321"}],"active":true,"name":[{"use":"usual","family":"DENOMEXCEPPass","given":["AVBlockNoCardiacPacemaker"]}],"gender":"male","birthDate":"1971-12-30"},"request":{"method":"PUT","url":"Patient/b237df97-2a8e-4b63-85c3-b9ff658c645c"}},{"fullUrl":"https://madie.cms.gov/Encounter/9846z5xc1vb616546816351","resource":{"resourceType":"Encounter","id":"d854ec2c-f6bd-46eb-a282-f314760d9213","meta":{"profile":["http://hl7.org/fhir/us/qicore/StructureDefinition/qicore-encounter"]},"status":"finished","class":{"system":"http://terminology.hl7.org/CodeSystem/v3-ActCode","code":"AMB","display":"ambulatory"},"type":[{"coding":[{"system":"http://www.ama-assn.org/go/cpt","version":"2024","code":"99213"}]}],"subject":{"reference":"Patient/b237df97-2a8e-4b63-85c3-b9ff658c645c"},"period":{"start":"2025-04-14T14:40:00.000+00:00","end":"2025-04-14T14:50:00.000+00:00"},"length":{"value":0,"unit":"days"}},"request":{"method":"PUT","url":"Encounter/d854ec2c-f6bd-46eb-a282-f314760d9213"}},{"fullUrl":"https://madie.cms.gov/Encounter/13516df843fg351654213","resource":{"resourceType":"Encounter","id":"d18e65c1-cca4-4d1a-8e87-8a23b5be81fa","meta":{"profile":["http://hl7.org/fhir/us/qicore/StructureDefinition/qicore-encounter"]},"status":"finished","class":{"system":"http://terminology.hl7.org/CodeSystem/v3-ActCode","code":"AMB","display":"ambulatory"},"type":[{"coding":[{"system":"http://www.ama-assn.org/go/cpt","version":"2024","code":"99212"}]}],"subject":{"reference":"Patient/b237df97-2a8e-4b63-85c3-b9ff658c645c"},"period":{"start":"2025-07-20T11:50:00+00:00","end":"2025-07-20T11:50:00+00:00"},"length":{"value":0,"unit":"days"}},"request":{"method":"PUT","url":"Encounter/d18e65c1-cca4-4d1a-8e87-8a23b5be81fa"}},{"fullUrl":"https://madie.cms.gov/Condition/6846468491651613123","resource":{"resourceType":"Condition","id":"0d136b4c-4188-421b-be4f-ae2eeac34da8","meta":{"profile":["http://hl7.org/fhir/us/qicore/StructureDefinition/qicore-condition"]},"clinicalStatus":{"coding":[{"system":"http://terminology.hl7.org/CodeSystem/condition-clinical","code":"active","display":"Active"}]},"verificationStatus":{"coding":[{"system":"http://terminology.hl7.org/CodeSystem/condition-ver-status","code":"confirmed","display":"Confirmed"}]},"category":[{"coding":[{"system":"http://terminology.hl7.org/CodeSystem/condition-category","code":"problem-list-item","display":"Problem List Item"}]}],"code":{"coding":[{"system":"http://hl7.org/fhir/sid/icd-10-cm","version":"2024","code":"I11.0"}]},"subject":{"reference":"Patient/b237df97-2a8e-4b63-85c3-b9ff658c645c"},"onsetPeriod":{"start":"2025-04-11T10:00:00+00:00"}},"request":{"method":"PUT","url":"Condition/0d136b4c-4188-421b-be4f-ae2eeac34da8"}},{"fullUrl":"https://madie.cms.gov/Condition/54564654464131681","resource":{"resourceType":"Condition","id":"0d77740c-a600-4852-9f77-5534abda1a1b","meta":{"profile":["http://hl7.org/fhir/us/qicore/StructureDefinition/qicore-condition"]},"clinicalStatus":{"coding":[{"system":"http://terminology.hl7.org/CodeSystem/condition-clinical","code":"active","display":"Active"}]},"verificationStatus":{"coding":[{"system":"http://terminology.hl7.org/CodeSystem/condition-ver-status","code":"confirmed","display":"Confirmed"}]},"category":[{"coding":[{"system":"http://terminology.hl7.org/CodeSystem/condition-category","code":"problem-list-item","display":"Problem List Item"}]}],"severity":{"coding":[{"system":"http://snomed.info/sct","version":"http://snomed.info/sct/731000124108/version/20240301","code":"24484000","display":"Severe (severity modifier) (qualifier value)"}]},"code":{"coding":[{"system":"http://snomed.info/sct","version":"http://snomed.info/sct/731000124108/version/20240301","code":"134401001","display":"Left ventricular systolic dysfunction (disorder)"}]},"subject":{"reference":"Patient/b237df97-2a8e-4b63-85c3-b9ff658c645c"},"onsetPeriod":{"start":"2025-04-14T14:41:00.000+00:00"}},"request":{"method":"PUT","url":"Condition/0d77740c-a600-4852-9f77-5534abda1a1b"}},{"fullUrl":"https://madie.cms.gov/Condition/89465136498461646","resource":{"resourceType":"Condition","id":"8716f10b-472c-42e0-b6d1-5337959d5a53","meta":{"profile":["http://hl7.org/fhir/us/qicore/StructureDefinition/qicore-condition"]},"clinicalStatus":{"coding":[{"system":"http://terminology.hl7.org/CodeSystem/condition-clinical","code":"active","display":"Active"}]},"verificationStatus":{"coding":[{"system":"http://terminology.hl7.org/CodeSystem/condition-ver-status","code":"confirmed","display":"Confirmed"}]},"category":[{"coding":[{"system":"http://terminology.hl7.org/CodeSystem/condition-category","code":"problem-list-item","display":"Problem List Item"}]}],"code":{"coding":[{"system":"http://snomed.info/sct","version":"http://snomed.info/sct/731000124108/version/20240301","code":"195042002","display":"Second degree atrioventricular block (disorder)"}]},"subject":{"reference":"Patient/b237df97-2a8e-4b63-85c3-b9ff658c645c"},"onsetPeriod":{"start":"2025-01-20T14:32:00.000+00:00"}},"request":{"method":"PUT","url":"Condition/8716f10b-472c-42e0-b6d1-5337959d5a53"}},{"fullUrl":"https://madie.cms.gov/MeasureReport/53053871-7cfb-42a3-b0ae-112f0e8d3aa6","resource":{"resourceType":"MeasureReport","id":"53053871-7cfb-42a3-b0ae-112f0e8d3aa6","meta":{"profile":["http://hl7.org/fhir/us/cqfmeasures/StructureDefinition/test-case-cqfm"]},"contained":[{"resourceType":"Parameters","id":"e69fc5e6-3e9d-40c1-905a-ec6aed1c71ec-parameters","parameter":[{"name":"subject","valueString":"b237df97-2a8e-4b63-85c3-b9ff658c645c"}]}],"extension":[{"url":"http://hl7.org/fhir/us/cqfmeasures/StructureDefinition/cqfm-inputParameters","valueReference":{"reference":"#e69fc5e6-3e9d-40c1-905a-ec6aed1c71ec-parameters"}},{"url":"http://hl7.org/fhir/us/cqfmeasures/StructureDefinition/cqfm-testCaseDescription","valueMarkdown":"Patient has qualifying AV Block for denominator exception and not hx of Cardiac Pacemaker."}],"modifierExtension":[{"url":"http://hl7.org/fhir/us/cqfmeasures/StructureDefinition/cqfm-isTestCase","valueBoolean":true}],"status":"complete","type":"individual","measure":"https://madie.cms.gov/Measure/HFBetaBlockerTherapyforLVSDFHIR","period":{"start":"2025-01-01","end":"2025-12-31"},"group":[{"population":[{"code":{"coding":[{"system":"http://terminology.hl7.org/CodeSystem/measure-population","code":"initial-population","display":"Initial Population"}]},"count":1},{"code":{"coding":[{"system":"http://terminology.hl7.org/CodeSystem/measure-population","code":"denominator","display":"Denominator"}]},"count":1},{"code":{"coding":[{"system":"http://terminology.hl7.org/CodeSystem/measure-population","code":"denominator-exclusion","display":"Denominator Exclusion"}]},"count":0},{"code":{"coding":[{"system":"http://terminology.hl7.org/CodeSystem/measure-population","code":"numerator","display":"Numerator"}]},"count":0},{"code":{"coding":[{"system":"http://terminology.hl7.org/CodeSystem/measure-population","code":"denominator-exception","display":"Denominator Exception"}]},"count":1}]}]},"request":{"method":"PUT","url":"MeasureReport/53053871-7cfb-42a3-b0ae-112f0e8d3aa6"}}]}