{"resourceType":"Bundle","id":"tests-4ad371e9-8b3b-4278-9ebd-b449eff087be-bundle","type":"transaction","entry":[{"fullUrl":"https://madie.cms.gov/Patient/4ad371e9-8b3b-4278-9ebd-b449eff087be","resource":{"resourceType":"Patient","id":"4ad371e9-8b3b-4278-9ebd-b449eff087be","meta":{"profile":["http://hl7.org/fhir/us/qicore/StructureDefinition/qicore-patient"]},"extension":[{"url":"http://hl7.org/fhir/us/core/StructureDefinition/us-core-race","extension":[{"url":"ombCategory","valueCoding":{"system":"urn:oid:2.16.840.1.113883.6.238","code":"2106-3","display":"White"}},{"url":"text","valueString":"White"}]},{"url":"http://hl7.org/fhir/us/core/StructureDefinition/us-core-ethnicity","extension":[{"url":"ombCategory","valueCoding":{"system":"urn:oid:2.16.840.1.113883.6.238","code":"2186-5","display":"Not Hispanic or Latino"}},{"url":"text","valueString":"Not Hispanic or Latino"}]}],"identifier":[{"type":{"coding":[{"system":"http://terminology.hl7.org/CodeSystem/v2-0203","code":"MR"}]},"system":"https://bonnie-fhir.healthit.gov/","value":"749646313131"}],"active":true,"name":[{"use":"usual","family":"IPFail","given":["LVSD2ndEncMPEdge"]}],"gender":"female","birthDate":"1952-07-08"},"request":{"method":"PUT","url":"Patient/4ad371e9-8b3b-4278-9ebd-b449eff087be"}},{"fullUrl":"https://madie.cms.gov/Encounter/5c954de4b848462de0ae73ec","resource":{"resourceType":"Encounter","id":"86d09277-ce6e-49bf-b34f-334d6b8781a0","meta":{"profile":["http://hl7.org/fhir/us/qicore/StructureDefinition/qicore-encounter"]},"status":"finished","class":{"system":"http://terminology.hl7.org/CodeSystem/v3-ActCode","code":"AMB","display":"ambulatory"},"type":[{"coding":[{"system":"http://www.ama-assn.org/go/cpt","version":"2024","code":"99213"}]}],"subject":{"reference":"Patient/4ad371e9-8b3b-4278-9ebd-b449eff087be"},"period":{"start":"2025-05-01T14:40:00+00:00","end":"2025-05-01T14:40:00+00:00"},"length":{"value":0,"unit":"days"}},"request":{"method":"PUT","url":"Encounter/86d09277-ce6e-49bf-b34f-334d6b8781a0"}},{"fullUrl":"https://madie.cms.gov/Encounter/5c954de4b848462de0ae73ed","resource":{"resourceType":"Encounter","id":"c67bfc81-066a-4193-bd65-5420d41694f7","meta":{"profile":["http://hl7.org/fhir/us/qicore/StructureDefinition/qicore-encounter"]},"status":"finished","class":{"system":"http://terminology.hl7.org/CodeSystem/v3-ActCode","code":"AMB","display":"ambulatory"},"type":[{"coding":[{"system":"http://snomed.info/sct","version":"http://snomed.info/sct/731000124108/version/20240301","code":"401271004"}]}],"subject":{"reference":"Patient/4ad371e9-8b3b-4278-9ebd-b449eff087be"},"period":{"start":"2025-12-31T05:00:00+00:00","end":"2025-12-31T05:54:00+00:00"},"length":{"value":0,"unit":"days"}},"request":{"method":"PUT","url":"Encounter/c67bfc81-066a-4193-bd65-5420d41694f7"}},{"fullUrl":"https://madie.cms.gov/AllergyIntolerance/5c954de4b848462de0ae73e9","resource":{"resourceType":"AllergyIntolerance","id":"2b523a9b-9d39-498f-8f00-5dd647915e45","meta":{"profile":["http://hl7.org/fhir/us/qicore/StructureDefinition/qicore-allergyintolerance"]},"clinicalStatus":{"coding":[{"system":"http://terminology.hl7.org/CodeSystem/allergyintolerance-clinical","code":"active","display":"Active"}]},"code":{"coding":[{"system":"http://www.nlm.nih.gov/research/umls/rxnorm","version":"04012024","code":"10600"}]},"patient":{"reference":"Patient/4ad371e9-8b3b-4278-9ebd-b449eff087be"},"onsetPeriod":{"start":"2025-07-02T11:50:00+00:00"}},"request":{"method":"PUT","url":"AllergyIntolerance/2b523a9b-9d39-498f-8f00-5dd647915e45"}},{"fullUrl":"https://madie.cms.gov/Condition/5c954de4b848462de0ae73eb","resource":{"resourceType":"Condition","id":"db7b8230-8bbe-4b9b-b2f8-a781f9302620","meta":{"profile":["http://hl7.org/fhir/us/qicore/StructureDefinition/qicore-condition"]},"clinicalStatus":{"coding":[{"system":"http://terminology.hl7.org/CodeSystem/condition-clinical","code":"active","display":"Active"}]},"verificationStatus":{"coding":[{"system":"http://terminology.hl7.org/CodeSystem/condition-ver-status","code":"refuted","display":"Refuted"}]},"category":[{"coding":[{"system":"http://terminology.hl7.org/CodeSystem/condition-category","code":"problem-list-item","display":"Problem List Item"}]}],"code":{"coding":[{"system":"http://hl7.org/fhir/sid/icd-10-cm","version":"2024","code":"I50.83"}]},"subject":{"reference":"Patient/4ad371e9-8b3b-4278-9ebd-b449eff087be"},"onsetPeriod":{"start":"2025-04-21T10:00:00+00:00"}},"request":{"method":"PUT","url":"Condition/db7b8230-8bbe-4b9b-b2f8-a781f9302620"}},{"fullUrl":"https://madie.cms.gov/Condition/6344131313513","resource":{"resourceType":"Condition","id":"0f8760c9-e731-4868-9c83-25b319125760","meta":{"profile":["http://hl7.org/fhir/us/qicore/StructureDefinition/qicore-condition"]},"clinicalStatus":{"coding":[{"system":"http://terminology.hl7.org/CodeSystem/condition-clinical","code":"active","display":"Active"}]},"category":[{"coding":[{"system":"http://terminology.hl7.org/CodeSystem/condition-category","code":"problem-list-item","display":"Problem List Item"}]}],"code":{"coding":[{"system":"http://snomed.info/sct","version":"http://snomed.info/sct/731000124108/version/20240301","code":"134401001","display":"Left ventricular systolic dysfunction (disorder)"}]},"subject":{"reference":"Patient/4ad371e9-8b3b-4278-9ebd-b449eff087be"},"onsetPeriod":{"start":"2025-02-14T14:40:00.000+00:00"}},"request":{"method":"PUT","url":"Condition/0f8760c9-e731-4868-9c83-25b319125760"}},{"fullUrl":"https://madie.cms.gov/MeasureReport/22f7fe27-4c24-4326-b48b-fafa80d3bec2","resource":{"resourceType":"MeasureReport","id":"22f7fe27-4c24-4326-b48b-fafa80d3bec2","meta":{"profile":["http://hl7.org/fhir/us/cqfmeasures/StructureDefinition/test-case-cqfm"]},"contained":[{"resourceType":"Parameters","id":"6a768a5a-56ad-4798-92c8-8933600f04d2-parameters","parameter":[{"name":"subject","valueString":"4ad371e9-8b3b-4278-9ebd-b449eff087be"}]}],"extension":[{"url":"http://hl7.org/fhir/us/cqfmeasures/StructureDefinition/cqfm-inputParameters","valueReference":{"reference":"#6a768a5a-56ad-4798-92c8-8933600f04d2-parameters"}},{"url":"http://hl7.org/fhir/us/cqfmeasures/StructureDefinition/cqfm-testCaseDescription","valueMarkdown":"Second Encounter is at edge, last day of MP"}],"modifierExtension":[{"url":"http://hl7.org/fhir/us/cqfmeasures/StructureDefinition/cqfm-isTestCase","valueBoolean":true}],"status":"complete","type":"individual","measure":"https://madie.cms.gov/Measure/HFBetaBlockerTherapyforLVSDFHIR","period":{"start":"2025-01-01","end":"2025-12-31"},"group":[{"population":[{"code":{"coding":[{"system":"http://terminology.hl7.org/CodeSystem/measure-population","code":"initial-population","display":"Initial Population"}]},"count":0},{"code":{"coding":[{"system":"http://terminology.hl7.org/CodeSystem/measure-population","code":"denominator","display":"Denominator"}]},"count":0},{"code":{"coding":[{"system":"http://terminology.hl7.org/CodeSystem/measure-population","code":"denominator-exclusion","display":"Denominator Exclusion"}]},"count":0},{"code":{"coding":[{"system":"http://terminology.hl7.org/CodeSystem/measure-population","code":"numerator","display":"Numerator"}]},"count":0},{"code":{"coding":[{"system":"http://terminology.hl7.org/CodeSystem/measure-population","code":"denominator-exception","display":"Denominator Exception"}]},"count":0}]}]},"request":{"method":"PUT","url":"MeasureReport/22f7fe27-4c24-4326-b48b-fafa80d3bec2"}}]}