{"resourceType":"Bundle","id":"tests-46635c8a-3f72-4424-98ae-01b849d0ff19-bundle","type":"transaction","entry":[{"fullUrl":"https://madie.cms.gov/Patient/46635c8a-3f72-4424-98ae-01b849d0ff19","resource":{"resourceType":"Patient","id":"46635c8a-3f72-4424-98ae-01b849d0ff19","meta":{"profile":["http://hl7.org/fhir/us/qicore/StructureDefinition/qicore-patient"]},"extension":[{"url":"http://hl7.org/fhir/us/core/StructureDefinition/us-core-race","extension":[{"url":"ombCategory","valueCoding":{"system":"urn:oid:2.16.840.1.113883.6.238","code":"2028-9","display":"Asian"}},{"url":"text","valueString":"Asian"}]},{"url":"http://hl7.org/fhir/us/core/StructureDefinition/us-core-ethnicity","extension":[{"url":"ombCategory","valueCoding":{"system":"urn:oid:2.16.840.1.113883.6.238","code":"2135-2","display":"Hispanic or Latino"}},{"url":"text","valueString":"Hispanic or Latino"}]}],"identifier":[{"system":"http://hospital.smarthealthit.org","value":"999999995"}],"name":[{"family":"Bertha","given":["Betty"]}],"gender":"female","birthDate":"1978-12-31"},"request":{"method":"PUT","url":"Patient/46635c8a-3f72-4424-98ae-01b849d0ff19"}},{"fullUrl":"https://madie.cms.gov/Encounter/Encounter-3.1","resource":{"resourceType":"Encounter","id":"e8be0583-a215-4749-a2a7-be9a3bb5d505","meta":{"profile":["http://hl7.org/fhir/us/qicore/StructureDefinition/qicore-encounter"]},"status":"finished","class":{"system":"http://terminology.hl7.org/CodeSystem/v3-ActCode","code":"AMB","display":"ambulatory"},"type":[{"coding":[{"system":"http://snomed.info/sct","code":"185317003","display":"Telephone encounter (procedure)"}]}],"subject":{"reference":"Patient/46635c8a-3f72-4424-98ae-01b849d0ff19"},"period":{"start":"2025-01-01T01:00:00.000Z","end":"2025-01-01T01:15:00.000Z"}},"request":{"method":"PUT","url":"Encounter/e8be0583-a215-4749-a2a7-be9a3bb5d505"}},{"fullUrl":"https://madie.cms.gov/Procedure/Procedure-1","resource":{"resourceType":"Procedure","id":"569efe62-1012-4fab-a8f2-3b383f8338ae","meta":{"profile":["http://hl7.org/fhir/us/qicore/StructureDefinition/qicore-procedure"]},"extension":[{"url":"http://hl7.org/fhir/us/qicore/StructureDefinition/qicore-recorded","valueDateTime":"2024-12-31T00:00:00.000Z"}],"status":"completed","code":{"coding":[{"system":"http://snomed.info/sct","code":"385763009","display":"Hospice care (regime/therapy)"}]},"subject":{"reference":"Patient/46635c8a-3f72-4424-98ae-01b849d0ff19"},"performedPeriod":{"start":"2025-01-01T00:00:00.000Z","end":"2025-01-01T01:00:00.000Z"}},"request":{"method":"PUT","url":"Procedure/569efe62-1012-4fab-a8f2-3b383f8338ae"}},{"fullUrl":"https://madie.cms.gov/MeasureReport/cbeae430-92a4-4c45-b963-4b8d27914ac5","resource":{"resourceType":"MeasureReport","id":"cbeae430-92a4-4c45-b963-4b8d27914ac5","meta":{"profile":["http://hl7.org/fhir/us/cqfmeasures/StructureDefinition/test-case-cqfm"]},"contained":[{"resourceType":"Parameters","id":"5b7c9a86-146d-4d9f-8ddd-842b5a63d703-parameters","parameter":[{"name":"subject","valueString":"46635c8a-3f72-4424-98ae-01b849d0ff19"}]}],"extension":[{"url":"http://hl7.org/fhir/us/cqfmeasures/StructureDefinition/cqfm-inputParameters","valueReference":{"reference":"#5b7c9a86-146d-4d9f-8ddd-842b5a63d703-parameters"}},{"url":"http://hl7.org/fhir/us/cqfmeasures/StructureDefinition/cqfm-testCaseDescription","valueMarkdown":"Hospice Procedure - For meeting 100% coverage"}],"modifierExtension":[{"url":"http://hl7.org/fhir/us/cqfmeasures/StructureDefinition/cqfm-isTestCase","valueBoolean":true}],"status":"complete","type":"individual","measure":"https://madie.cms.gov/Measure/ColonCancerScreeningFHIR","period":{"start":"2025-01-01","end":"2025-12-31"},"group":[{"population":[{"code":{"coding":[{"system":"http://terminology.hl7.org/CodeSystem/measure-population","code":"initial-population","display":"Initial Population"}]},"count":1},{"code":{"coding":[{"system":"http://terminology.hl7.org/CodeSystem/measure-population","code":"denominator","display":"Denominator"}]},"count":1},{"code":{"coding":[{"system":"http://terminology.hl7.org/CodeSystem/measure-population","code":"denominator-exclusion","display":"Denominator Exclusion"}]},"count":1},{"code":{"coding":[{"system":"http://terminology.hl7.org/CodeSystem/measure-population","code":"numerator","display":"Numerator"}]},"count":0}]}]},"request":{"method":"PUT","url":"MeasureReport/cbeae430-92a4-4c45-b963-4b8d27914ac5"}}]}