{"resourceType":"Bundle","id":"tests-9fcf1018-bacd-44e3-af16-8d715af253a2-bundle","type":"transaction","entry":[{"fullUrl":"https://madie.cms.gov/Patient/9fcf1018-bacd-44e3-af16-8d715af253a2","resource":{"resourceType":"Patient","id":"9fcf1018-bacd-44e3-af16-8d715af253a2","meta":{"profile":["http://hl7.org/fhir/us/qicore/StructureDefinition/qicore-patient"]},"extension":[{"url":"http://hl7.org/fhir/us/core/StructureDefinition/us-core-race","extension":[{"url":"ombCategory","valueCoding":{"system":"urn:oid:2.16.840.1.113883.6.238","code":"2028-9","display":"Asian"}},{"url":"text","valueString":"Asian"}]},{"url":"http://hl7.org/fhir/us/core/StructureDefinition/us-core-ethnicity","extension":[{"url":"ombCategory","valueCoding":{"system":"urn:oid:2.16.840.1.113883.6.238","code":"2135-2","display":"Hispanic or Latino"}},{"url":"text","valueString":"Hispanic or Latino"}]}],"identifier":[{"system":"http://hospital.smarthealthit.org","value":"999999995"}],"name":[{"family":"Bertha","given":["Betty"]}],"gender":"female","birthDate":"2012-12-31"},"request":{"method":"PUT","url":"Patient/9fcf1018-bacd-44e3-af16-8d715af253a2"}},{"fullUrl":"https://madie.cms.gov/Encounter/Encounter-47","resource":{"resourceType":"Encounter","id":"cdc851b6-6f22-44ca-b70f-3a968b9ccb5f","meta":{"profile":["http://hl7.org/fhir/us/qicore/StructureDefinition/qicore-encounter"]},"status":"finished","class":{"system":"http://terminology.hl7.org/CodeSystem/v3-ActCode","code":"AMB","display":"ambulatory"},"type":[{"coding":[{"system":"http://snomed.info/sct","code":"185463005","display":"Visit out of hours (procedure)"}]}],"subject":{"reference":"Patient/9fcf1018-bacd-44e3-af16-8d715af253a2"},"period":{"start":"2025-01-01T01:00:00.000Z","end":"2025-01-01T01:15:00.000Z"}},"request":{"method":"PUT","url":"Encounter/cdc851b6-6f22-44ca-b70f-3a968b9ccb5f"}},{"fullUrl":"https://madie.cms.gov/Encounter/Encounter-48","resource":{"resourceType":"Encounter","id":"3542a731-b9ec-45c9-9d9e-1ecdb56ec56f","meta":{"profile":["http://hl7.org/fhir/us/qicore/StructureDefinition/qicore-encounter"]},"status":"finished","class":{"system":"http://terminology.hl7.org/CodeSystem/v3-ActCode","code":"AMB","display":"ambulatory"},"type":[{"coding":[{"system":"http://snomed.info/sct","code":"41375007","display":"Medical evaluation of hearing problem (procedure)"}]}],"subject":{"reference":"Patient/9fcf1018-bacd-44e3-af16-8d715af253a2"},"period":{"start":"2025-01-01T01:00:00.000Z","end":"2025-01-01T01:15:00.000Z"}},"request":{"method":"PUT","url":"Encounter/3542a731-b9ec-45c9-9d9e-1ecdb56ec56f"}},{"fullUrl":"https://madie.cms.gov/Observation/Observation-20","resource":{"resourceType":"Observation","id":"37216f21-5c56-4edd-9da9-e5f6396f6628","meta":{"profile":["http://hl7.org/fhir/us/qicore/StructureDefinition/qicore-observation"]},"status":"final","category":[{"coding":[{"system":"http://terminology.hl7.org/CodeSystem/observation-category","code":"survey","display":"survey"}],"text":"survey"}],"code":{"coding":[{"system":"http://loinc.org","code":"39240-7","display":"Tobacco use status CPHS"}]},"subject":{"reference":"Patient/9fcf1018-bacd-44e3-af16-8d715af253a2"},"effectivePeriod":{"start":"2025-01-01T01:00:00.000Z","end":"2025-01-01T01:15:00.000Z"},"valueCodeableConcept":{"coding":[{"system":"http://snomed.info/sct","code":"110483000","display":"Tobacco user (finding)"}]}},"request":{"method":"PUT","url":"Observation/37216f21-5c56-4edd-9da9-e5f6396f6628"}},{"fullUrl":"https://madie.cms.gov/MedicationRequest/MedicationRequest-7","resource":{"resourceType":"MedicationRequest","id":"bfa6fd20-fb0f-4ed1-878c-78fff9be624a","meta":{"profile":["http://hl7.org/fhir/us/qicore/StructureDefinition/qicore-medicationrequest"]},"status":"active","intent":"order","medicationCodeableConcept":{"coding":[{"system":"http://www.nlm.nih.gov/research/umls/rxnorm","code":"15","display":"topiramate 50 MG Oral Tablet","userSelected":true}]},"subject":{"reference":"Patient/9fcf1018-bacd-44e3-af16-8d715af253a2"},"authoredOn":"2025-01-01T01:00:00.000Z","requester":{"reference":"Practitioner/example"}},"request":{"method":"PUT","url":"MedicationRequest/bfa6fd20-fb0f-4ed1-878c-78fff9be624a"}},{"fullUrl":"https://madie.cms.gov/MeasureReport/b01d95f0-31b8-45ae-b0fc-07f7d8a60175","resource":{"resourceType":"MeasureReport","id":"b01d95f0-31b8-45ae-b0fc-07f7d8a60175","meta":{"profile":["http://hl7.org/fhir/us/cqfmeasures/StructureDefinition/test-case-cqfm"]},"contained":[{"resourceType":"Parameters","id":"d1938f80-3292-4933-953f-4399a8a8794c-parameters","parameter":[{"name":"subject","valueString":"9fcf1018-bacd-44e3-af16-8d715af253a2"}]}],"extension":[{"url":"http://hl7.org/fhir/us/cqfmeasures/StructureDefinition/cqfm-inputParameters","valueReference":{"reference":"#d1938f80-3292-4933-953f-4399a8a8794c-parameters"}},{"url":"http://hl7.org/fhir/us/cqfmeasures/StructureDefinition/cqfm-testCaseDescription","valueMarkdown":"Patient 12 years old with typo in Medication Request code of \"15\""}],"modifierExtension":[{"url":"http://hl7.org/fhir/us/cqfmeasures/StructureDefinition/cqfm-isTestCase","valueBoolean":true}],"status":"complete","type":"individual","measure":"https://madie.cms.gov/Measure/PreventiveCareAndTobaccoUseScreeningAndCessationInterventionFHIR","period":{"start":"2025-01-01","end":"2025-12-31"},"group":[{"population":[{"code":{"coding":[{"system":"http://terminology.hl7.org/CodeSystem/measure-population","code":"initial-population","display":"Initial Population"}]},"count":1},{"code":{"coding":[{"system":"http://terminology.hl7.org/CodeSystem/measure-population","code":"denominator","display":"Denominator"}]},"count":1},{"code":{"coding":[{"system":"http://terminology.hl7.org/CodeSystem/measure-population","code":"denominator-exclusion","display":"Denominator Exclusion"}]},"count":0},{"code":{"coding":[{"system":"http://terminology.hl7.org/CodeSystem/measure-population","code":"numerator","display":"Numerator"}]},"count":1}]},{"population":[{"code":{"coding":[{"system":"http://terminology.hl7.org/CodeSystem/measure-population","code":"initial-population","display":"Initial Population"}]},"count":1},{"code":{"coding":[{"system":"http://terminology.hl7.org/CodeSystem/measure-population","code":"denominator","display":"Denominator"}]},"count":1},{"code":{"coding":[{"system":"http://terminology.hl7.org/CodeSystem/measure-population","code":"denominator-exclusion","display":"Denominator Exclusion"}]},"count":0},{"code":{"coding":[{"system":"http://terminology.hl7.org/CodeSystem/measure-population","code":"numerator","display":"Numerator"}]},"count":0}]},{"population":[{"code":{"coding":[{"system":"http://terminology.hl7.org/CodeSystem/measure-population","code":"initial-population","display":"Initial Population"}]},"count":1},{"code":{"coding":[{"system":"http://terminology.hl7.org/CodeSystem/measure-population","code":"denominator","display":"Denominator"}]},"count":1},{"code":{"coding":[{"system":"http://terminology.hl7.org/CodeSystem/measure-population","code":"denominator-exclusion","display":"Denominator Exclusion"}]},"count":0},{"code":{"coding":[{"system":"http://terminology.hl7.org/CodeSystem/measure-population","code":"numerator","display":"Numerator"}]},"count":0}]}]},"request":{"method":"PUT","url":"MeasureReport/b01d95f0-31b8-45ae-b0fc-07f7d8a60175"}}]}