{"resourceType":"Bundle","id":"tests-cefc66eb-f4e0-4e78-b86b-18f7dbfb2dbd-bundle","type":"transaction","entry":[{"fullUrl":"https://madie.cms.gov/Patient/cefc66eb-f4e0-4e78-b86b-18f7dbfb2dbd","resource":{"resourceType":"Patient","id":"cefc66eb-f4e0-4e78-b86b-18f7dbfb2dbd","meta":{"profile":["http://hl7.org/fhir/us/qicore/StructureDefinition/qicore-patient"]},"extension":[{"url":"http://hl7.org/fhir/us/core/StructureDefinition/us-core-race","extension":[{"url":"ombCategory","valueCoding":{"system":"urn:oid:2.16.840.1.113883.6.238","code":"2028-9","display":"Asian"}},{"url":"text","valueString":"Asian"}]},{"url":"http://hl7.org/fhir/us/core/StructureDefinition/us-core-ethnicity","extension":[{"url":"ombCategory","valueCoding":{"system":"urn:oid:2.16.840.1.113883.6.238","code":"2135-2","display":"Hispanic or Latino"}},{"url":"text","valueString":"Hispanic or Latino"}]}],"identifier":[{"system":"http://hospital.smarthealthit.org","value":"999999995"}],"name":[{"family":"Bertha","given":["Betty"]}],"gender":"female","birthDate":"2012-12-31"},"request":{"method":"PUT","url":"Patient/cefc66eb-f4e0-4e78-b86b-18f7dbfb2dbd"}},{"fullUrl":"https://madie.cms.gov/Encounter/Encounter-41","resource":{"resourceType":"Encounter","id":"e94fc94d-496c-4466-a9bb-7bbed10ad344","meta":{"profile":["http://hl7.org/fhir/us/qicore/StructureDefinition/qicore-encounter"]},"status":"finished","class":{"system":"http://terminology.hl7.org/CodeSystem/v3-ActCode","code":"AMB","display":"ambulatory"},"type":[{"coding":[{"system":"http://snomed.info/sct","code":"185463005","display":"Visit out of hours (procedure)"}]}],"subject":{"reference":"Patient/cefc66eb-f4e0-4e78-b86b-18f7dbfb2dbd"},"period":{"start":"2025-01-01T01:00:00.000Z","end":"2025-01-01T01:15:00.000Z"}},"request":{"method":"PUT","url":"Encounter/e94fc94d-496c-4466-a9bb-7bbed10ad344"}},{"fullUrl":"https://madie.cms.gov/Encounter/Encounter-42","resource":{"resourceType":"Encounter","id":"8dd29cad-dbfc-41d9-b691-969a44070b04","meta":{"profile":["http://hl7.org/fhir/us/qicore/StructureDefinition/qicore-encounter"]},"status":"finished","class":{"system":"http://terminology.hl7.org/CodeSystem/v3-ActCode","code":"AMB","display":"ambulatory"},"type":[{"coding":[{"system":"http://snomed.info/sct","code":"41375007","display":"Medical evaluation of hearing problem (procedure)"}]}],"subject":{"reference":"Patient/cefc66eb-f4e0-4e78-b86b-18f7dbfb2dbd"},"period":{"start":"2025-01-01T01:00:00.000Z","end":"2025-01-01T01:15:00.000Z"}},"request":{"method":"PUT","url":"Encounter/8dd29cad-dbfc-41d9-b691-969a44070b04"}},{"fullUrl":"https://madie.cms.gov/Observation/Observation-17","resource":{"resourceType":"Observation","id":"e1d791f1-c158-4252-8016-c55c91f6b37d","meta":{"profile":["http://hl7.org/fhir/us/qicore/StructureDefinition/qicore-observation"]},"status":"final","category":[{"coding":[{"system":"http://terminology.hl7.org/CodeSystem/observation-category","code":"survey","display":"survey"}],"text":"survey"}],"code":{"coding":[{"system":"http://loinc.org","code":"39240-7","display":"Tobacco use status CPHS"}]},"subject":{"reference":"Patient/cefc66eb-f4e0-4e78-b86b-18f7dbfb2dbd"},"effectivePeriod":{"start":"2025-01-01T01:00:00.000Z","end":"2025-01-01T01:15:00.000Z"},"valueCodeableConcept":{"coding":[{"system":"http://snomed.info/sct","code":"110483000","display":"Tobacco user (finding)"}]}},"request":{"method":"PUT","url":"Observation/e1d791f1-c158-4252-8016-c55c91f6b37d"}},{"fullUrl":"https://madie.cms.gov/MedicationRequest/MedicationRequest-4","resource":{"resourceType":"MedicationRequest","id":"7175570e-8472-443d-9606-c100bd59e0c8","meta":{"profile":["http://hl7.org/fhir/us/qicore/StructureDefinition/qicore-medicationrequest"]},"status":"active","intent":"order","medicationCodeableConcept":{"coding":[{"system":"http://www.nlm.nih.gov/research/umls/rxnorm","code":"151226","display":"topiramate 50 MG Oral Tablet","userSelected":true}]},"subject":{"reference":"Patient/cefc66eb-f4e0-4e78-b86b-18f7dbfb2dbd"},"authoredOn":"2024-06-01T23:59:59.000Z","requester":{"reference":"Practitioner/example"}},"request":{"method":"PUT","url":"MedicationRequest/7175570e-8472-443d-9606-c100bd59e0c8"}},{"fullUrl":"https://madie.cms.gov/MeasureReport/f3762ec9-5660-442c-998d-2eb3b8dfbc43","resource":{"resourceType":"MeasureReport","id":"f3762ec9-5660-442c-998d-2eb3b8dfbc43","meta":{"profile":["http://hl7.org/fhir/us/cqfmeasures/StructureDefinition/test-case-cqfm"]},"contained":[{"resourceType":"Parameters","id":"889dff3d-7f0d-481e-9ac6-30f90ac5048b-parameters","parameter":[{"name":"subject","valueString":"cefc66eb-f4e0-4e78-b86b-18f7dbfb2dbd"}]}],"extension":[{"url":"http://hl7.org/fhir/us/cqfmeasures/StructureDefinition/cqfm-inputParameters","valueReference":{"reference":"#889dff3d-7f0d-481e-9ac6-30f90ac5048b-parameters"}},{"url":"http://hl7.org/fhir/us/cqfmeasures/StructureDefinition/cqfm-testCaseDescription","valueMarkdown":"Patient 12 years old seen for two visits who were screened for tobacco use only and received tobacco cessation intervention 7 months prior to MP"}],"modifierExtension":[{"url":"http://hl7.org/fhir/us/cqfmeasures/StructureDefinition/cqfm-isTestCase","valueBoolean":true}],"status":"complete","type":"individual","measure":"https://madie.cms.gov/Measure/PreventiveCareAndTobaccoUseScreeningAndCessationInterventionFHIR","period":{"start":"2025-01-01","end":"2025-12-31"},"group":[{"population":[{"code":{"coding":[{"system":"http://terminology.hl7.org/CodeSystem/measure-population","code":"initial-population","display":"Initial Population"}]},"count":1},{"code":{"coding":[{"system":"http://terminology.hl7.org/CodeSystem/measure-population","code":"denominator","display":"Denominator"}]},"count":1},{"code":{"coding":[{"system":"http://terminology.hl7.org/CodeSystem/measure-population","code":"denominator-exclusion","display":"Denominator Exclusion"}]},"count":0},{"code":{"coding":[{"system":"http://terminology.hl7.org/CodeSystem/measure-population","code":"numerator","display":"Numerator"}]},"count":1}]},{"population":[{"code":{"coding":[{"system":"http://terminology.hl7.org/CodeSystem/measure-population","code":"initial-population","display":"Initial Population"}]},"count":1},{"code":{"coding":[{"system":"http://terminology.hl7.org/CodeSystem/measure-population","code":"denominator","display":"Denominator"}]},"count":1},{"code":{"coding":[{"system":"http://terminology.hl7.org/CodeSystem/measure-population","code":"denominator-exclusion","display":"Denominator Exclusion"}]},"count":0},{"code":{"coding":[{"system":"http://terminology.hl7.org/CodeSystem/measure-population","code":"numerator","display":"Numerator"}]},"count":0}]},{"population":[{"code":{"coding":[{"system":"http://terminology.hl7.org/CodeSystem/measure-population","code":"initial-population","display":"Initial Population"}]},"count":1},{"code":{"coding":[{"system":"http://terminology.hl7.org/CodeSystem/measure-population","code":"denominator","display":"Denominator"}]},"count":1},{"code":{"coding":[{"system":"http://terminology.hl7.org/CodeSystem/measure-population","code":"denominator-exclusion","display":"Denominator Exclusion"}]},"count":0},{"code":{"coding":[{"system":"http://terminology.hl7.org/CodeSystem/measure-population","code":"numerator","display":"Numerator"}]},"count":0}]}]},"request":{"method":"PUT","url":"MeasureReport/f3762ec9-5660-442c-998d-2eb3b8dfbc43"}}]}