{
  "resourceType": "Bundle",
  "id": "62ec329cea03a4ebacd6a08b",
  "type": "transaction",
  "entry": [ {
    "fullUrl": "https://madie.cms.gov/Patient/0cc5d063-a1c9-4866-90e6-81745d95e2a9",
    "resource": {
      "resourceType": "Patient",
      "id": "0cc5d063-a1c9-4866-90e6-81745d95e2a9",
      "meta": {
        "profile": [ "http://hl7.org/fhir/us/qicore/StructureDefinition/qicore-patient" ]
      },
      "extension": [ {
        "url": "http://hl7.org/fhir/us/core/StructureDefinition/us-core-race",
        "extension": [ {
          "url": "ombCategory",
          "valueCoding": {
            "system": "urn:oid:2.16.840.1.113883.6.238",
            "code": "1002-5",
            "display": "American Indian or Alaska Native",
            "userSelected": true
          }
        }, {
          "url": "text",
          "valueString": "American Indian or Alaska Native"
        } ]
      }, {
        "url": "http://hl7.org/fhir/us/core/StructureDefinition/us-core-ethnicity",
        "extension": [ {
          "url": "ombCategory",
          "valueCoding": {
            "system": "urn:oid:2.16.840.1.113883.6.238",
            "code": "2135-2",
            "display": "Hispanic or Latino",
            "userSelected": true
          }
        }, {
          "url": "text",
          "valueString": "Hispanic or Latino"
        } ]
      } ],
      "identifier": [ {
        "type": {
          "coding": [ {
            "system": "http://terminology.hl7.org/CodeSystem/v2-0203",
            "code": "MR"
          } ]
        },
        "system": "https://bonnie-fhir.healthit.gov/",
        "value": "62ec329cea03a4ebacd6a08b"
      } ],
      "name": [ {
        "family": "NumerPass",
        "given": [ "EncFinishedProcedureCompleted" ]
      } ],
      "gender": "unknown",
      "birthDate": "2007-01-01"
    },
    "request": {
      "method": "POST",
      "url": "Patient/0cc5d063-a1c9-4866-90e6-81745d95e2a9"
    }
  }, {
    "fullUrl": "https://madie.cms.gov/Encounter/encounter-to-document-medications-a085",
    "resource": {
      "resourceType": "Encounter",
      "id": "encounter-to-document-medications-a085",
      "meta": {
        "profile": [ "http://hl7.org/fhir/us/qicore/StructureDefinition/qicore-encounter" ]
      },
      "status": "finished",
      "class": {
        "system": "http://terminology.hl7.org/CodeSystem/v3-ActCode",
        "code": "IMP",
        "display": "inpatient encounter"
      },
      "type": [ {
        "coding": [ {
          "system": "http://snomed.info/sct",
          "version": "2022-03",
          "code": "10197000",
          "display": "Psychiatric interview and evaluation (procedure)",
          "userSelected": true
        } ]
      } ],
      "subject": {
        "reference": "Patient/0cc5d063-a1c9-4866-90e6-81745d95e2a9"
      },
      "period": {
        "start": "2025-08-04T08:00:00.000+00:00",
        "end": "2025-08-04T09:15:00.000+00:00"
      }
    },
    "request": {
      "method": "POST",
      "url": "Encounter/encounter-to-document-medications-a085"
    }
  }, {
    "fullUrl": "https://madie.cms.gov/Procedure/documentation-of-current-medications-procedure-58cf",
    "resource": {
      "resourceType": "Procedure",
      "id": "documentation-of-current-medications-procedure-58cf",
      "meta": {
        "profile": [ "http://hl7.org/fhir/us/qicore/StructureDefinition/qicore-procedure" ]
      },
      "extension": [ {
        "url": "http://hl7.org/fhir/us/qicore/StructureDefinition/qicore-recorded",
        "valueDateTime": "2024-02-01T09:00:00.000+00:00"
      } ],
      "status": "completed",
      "code": {
        "coding": [ {
          "system": "http://snomed.info/sct",
          "code": "428191000124101",
          "display": "Documentation of current medications (procedure)",
          "userSelected": true
        } ]
      },
      "subject": {
        "reference": "Patient/0cc5d063-a1c9-4866-90e6-81745d95e2a9"
      },
      "performedDateTime": "2025-08-04T08:45:00.000+00:00"
    },
    "request": {
      "method": "POST",
      "url": "Procedure/documentation-of-current-medications-procedure-58cf"
    }
  }, {
    "fullUrl": "https://madie.cms.gov/MeasureReport/e7a81788-ec46-4aec-bc28-5f6e567faeae",
    "resource": {
      "resourceType": "MeasureReport",
      "id": "e7a81788-ec46-4aec-bc28-5f6e567faeae",
      "meta": {
        "profile": [ "http://hl7.org/fhir/us/cqfmeasures/StructureDefinition/test-case-cqfm" ]
      },
      "contained": [ {
        "resourceType": "Parameters",
        "id": "94fb37ec-401c-4367-855e-ed6159a2c718-parameters",
        "parameter": [ {
          "name": "subject",
          "valueString": "0cc5d063-a1c9-4866-90e6-81745d95e2a9"
        } ]
      } ],
      "extension": [ {
        "url": "http://hl7.org/fhir/us/cqfmeasures/StructureDefinition/cqfm-inputParameters",
        "valueReference": {
          "reference": "#94fb37ec-401c-4367-855e-ed6159a2c718-parameters"
        }
      }, {
        "url": "http://hl7.org/fhir/us/cqfmeasures/StructureDefinition/cqfm-testCaseDescription",
        "valueMarkdown": "Qualifying encounter (status finished) during MP.  Medications documented during encounter period status completed."
      } ],
      "modifierExtension": [ {
        "url": "http://hl7.org/fhir/us/cqfmeasures/StructureDefinition/cqfm-isTestCase",
        "valueBoolean": true
      } ],
      "status": "complete",
      "type": "individual",
      "measure": "https://madie.cms.gov/Measure/DocumentationofCurrentMedicationsFHIR",
      "period": {
        "start": "2025-01-01",
        "end": "2025-12-31"
      },
      "group": [ {
        "population": [ {
          "code": {
            "coding": [ {
              "system": "http://terminology.hl7.org/CodeSystem/measure-population",
              "code": "initial-population",
              "display": "Initial Population"
            } ]
          },
          "count": 1
        }, {
          "code": {
            "coding": [ {
              "system": "http://terminology.hl7.org/CodeSystem/measure-population",
              "code": "denominator",
              "display": "Denominator"
            } ]
          },
          "count": 1
        }, {
          "code": {
            "coding": [ {
              "system": "http://terminology.hl7.org/CodeSystem/measure-population",
              "code": "numerator",
              "display": "Numerator"
            } ]
          },
          "count": 1
        }, {
          "code": {
            "coding": [ {
              "system": "http://terminology.hl7.org/CodeSystem/measure-population",
              "code": "denominator-exception",
              "display": "Denominator Exception"
            } ]
          },
          "count": 0
        } ]
      } ],
      "evaluatedResource": [ {
        "reference": "https://madie.cms.gov/Patient/0cc5d063-a1c9-4866-90e6-81745d95e2a9"
      }, {
        "reference": "https://madie.cms.gov/Encounter/encounter-to-document-medications-a085"
      }, {
        "reference": "https://madie.cms.gov/Procedure/documentation-of-current-medications-procedure-58cf"
      } ]
    },
    "request": {
      "method": "POST",
      "url": "MeasureReport/e7a81788-ec46-4aec-bc28-5f6e567faeae"
    }
  } ]
}