{
  "resourceType": "Bundle",
  "id": "62c880ed0111a60120dc2218",
  "type": "transaction",
  "entry": [ {
    "fullUrl": "https://madie.cms.gov/Patient/5595c36f-e82b-40cb-8327-8e691d471868",
    "resource": {
      "resourceType": "Patient",
      "id": "5595c36f-e82b-40cb-8327-8e691d471868",
      "meta": {
        "profile": [ "http://hl7.org/fhir/us/qicore/StructureDefinition/qicore-patient" ]
      },
      "text": {
        "status": "generated",
        "div": "<div xmlns=\"http://www.w3.org/1999/xhtml\"><div class=\"hapiHeaderText\">PainAssessResultDecimal<b>NUMERPassPop1</b></div><table class=\"hapiPropertyTable\"><tbody><tr><td>Identifier</td><td>9eb9f4dba5954a81050dcb26d8e6f477acc68f929e7572acf7e4db0bd6fb16f1</td></tr><tr><td>Date of birth</td><td><span>14 June 1937</span></td></tr></tbody></table></div>"
      },
      "extension": [ {
        "url": "http://hl7.org/fhir/us/core/StructureDefinition/us-core-race",
        "extension": [ {
          "url": "ombCategory",
          "valueCoding": {
            "system": "urn:oid:2.16.840.1.113883.6.238",
            "code": "1002-5",
            "display": "American Indian or Alaska Native",
            "userSelected": true
          }
        }, {
          "url": "text",
          "valueString": "American Indian or Alaska Native"
        } ]
      }, {
        "url": "http://hl7.org/fhir/us/core/StructureDefinition/us-core-ethnicity",
        "extension": [ {
          "url": "ombCategory",
          "valueCoding": {
            "system": "urn:oid:2.16.840.1.113883.6.238",
            "code": "2135-2",
            "display": "Hispanic or Latino",
            "userSelected": true
          }
        }, {
          "url": "text",
          "valueString": "Hispanic or Latino"
        } ]
      } ],
      "identifier": [ {
        "type": {
          "coding": [ {
            "system": "http://terminology.hl7.org/CodeSystem/v2-0203",
            "code": "MR"
          } ]
        },
        "system": "https://bonnie-fhir.healthit.gov/",
        "value": "62c880ed0111a60120dc2218"
      } ],
      "active": true,
      "name": [ {
        "use": "usual",
        "family": "NUMERPassPop1",
        "given": [ "PainAssessResultDecimal" ]
      } ],
      "gender": "male",
      "birthDate": "1937-06-14"
    },
    "request": {
      "method": "POST",
      "url": "Patient/5595c36f-e82b-40cb-8327-8e691d471868"
    }
  }, {
    "fullUrl": "https://madie.cms.gov/Observation/5ca5260bb8484613a555a979",
    "resource": {
      "resourceType": "Observation",
      "id": "5ca5260bb8484613a555a979",
      "meta": {
        "profile": [ "http://hl7.org/fhir/us/qicore/StructureDefinition/qicore-observation" ]
      },
      "status": "final",
      "category": [ {
        "coding": [ {
          "system": "http://terminology.hl7.org/CodeSystem/observation-category",
          "code": "survey",
          "display": "Survey"
        } ],
        "text": "Survey"
      } ],
      "code": {
        "coding": [ {
          "system": "http://loinc.org",
          "code": "38208-5",
          "display": "Pain severity - Reported"
        } ],
        "text": "Pain severity - Reported"
      },
      "subject": {
        "reference": "Patient/5595c36f-e82b-40cb-8327-8e691d471868"
      },
      "effectiveDateTime": "2025-06-23T11:15:00.000+00:00",
      "valueQuantity": {
        "value": 5.5
      }
    },
    "request": {
      "method": "POST",
      "url": "Observation/5ca5260bb8484613a555a979"
    }
  }, {
    "fullUrl": "https://madie.cms.gov/Condition/5ca5260bb8484613a555a973",
    "resource": {
      "resourceType": "Condition",
      "id": "5ca5260bb8484613a555a973",
      "meta": {
        "profile": [ "http://hl7.org/fhir/us/qicore/StructureDefinition/qicore-condition" ]
      },
      "clinicalStatus": {
        "coding": [ {
          "system": "http://terminology.hl7.org/CodeSystem/condition-clinical",
          "code": "active",
          "display": "active",
          "userSelected": true
        } ]
      },
      "verificationStatus": {
        "coding": [ {
          "system": "http://terminology.hl7.org/CodeSystem/condition-ver-status",
          "code": "confirmed",
          "display": "Confirmed"
        } ]
      },
      "category": [ {
        "coding": [ {
          "system": "http://terminology.hl7.org/CodeSystem/condition-category",
          "code": "problem-list-item",
          "display": "Problem List Item"
        } ]
      } ],
      "code": {
        "coding": [ {
          "system": "http://snomed.info/sct",
          "code": "107691000119101"
        } ]
      },
      "subject": {
        "reference": "Patient/5595c36f-e82b-40cb-8327-8e691d471868"
      },
      "onsetDateTime": "2020-02-21T13:00:00.000Z"
    },
    "request": {
      "method": "POST",
      "url": "Condition/5ca5260bb8484613a555a973"
    }
  }, {
    "fullUrl": "https://madie.cms.gov/Encounter/5ca5260bb8484613a555a974",
    "resource": {
      "resourceType": "Encounter",
      "id": "5ca5260bb8484613a555a974",
      "meta": {
        "profile": [ "http://hl7.org/fhir/us/qicore/StructureDefinition/qicore-encounter" ]
      },
      "status": "finished",
      "class": {
        "system": "http://terminology.hl7.org/CodeSystem/v3-ActCode",
        "code": "AMB",
        "display": "ambulatory",
        "userSelected": true
      },
      "type": [ {
        "coding": [ {
          "system": "http://www.ama-assn.org/go/cpt",
          "code": "99213"
        } ]
      } ],
      "subject": {
        "reference": "Patient/5595c36f-e82b-40cb-8327-8e691d471868"
      },
      "period": {
        "start": "2025-06-23T10:00:00.000Z",
        "end": "2025-06-23T12:00:00.000Z"
      }
    },
    "request": {
      "method": "POST",
      "url": "Encounter/5ca5260bb8484613a555a974"
    }
  }, {
    "fullUrl": "https://madie.cms.gov/Coverage/60099acc1c76ba64612b06a6",
    "resource": {
      "resourceType": "Coverage",
      "id": "60099acc1c76ba64612b06a6",
      "meta": {
        "profile": [ "http://hl7.org/fhir/us/qicore/StructureDefinition/qicore-coverage" ]
      },
      "status": "active",
      "beneficiary": {
        "reference": "Patient/5595c36f-e82b-40cb-8327-8e691d471868"
      },
      "period": {
        "start": "1937-06-14T08:00:00.000Z"
      },
      "payor": [ {
        "reference": "Organization/123456"
      } ]
    },
    "request": {
      "method": "POST",
      "url": "Coverage/60099acc1c76ba64612b06a6"
    }
  }, {
    "fullUrl": "https://madie.cms.gov/Procedure/5ca5260bb8484613a555a975",
    "resource": {
      "resourceType": "Procedure",
      "id": "5ca5260bb8484613a555a975",
      "meta": {
        "profile": [ "http://hl7.org/fhir/us/qicore/StructureDefinition/qicore-procedure" ]
      },
      "extension": [ {
        "url": "http://hl7.org/fhir/us/qicore/StructureDefinition/qicore-recorded",
        "valueDateTime": "2025-05-24T12:35:00.000Z"
      } ],
      "status": "completed",
      "code": {
        "coding": [ {
          "system": "http://www.ama-assn.org/go/cpt",
          "code": "96409"
        } ]
      },
      "subject": {
        "reference": "Patient/5595c36f-e82b-40cb-8327-8e691d471868"
      },
      "performedPeriod": {
        "start": "2025-05-24T10:45:00.000Z",
        "end": "2025-05-24T14:45:00.000Z"
      }
    },
    "request": {
      "method": "POST",
      "url": "Procedure/5ca5260bb8484613a555a975"
    }
  }, {
    "fullUrl": "https://madie.cms.gov/Procedure/5ca5260bb8484613a555a976",
    "resource": {
      "resourceType": "Procedure",
      "id": "5ca5260bb8484613a555a976",
      "meta": {
        "profile": [ "http://hl7.org/fhir/us/qicore/StructureDefinition/qicore-procedure" ]
      },
      "extension": [ {
        "url": "http://hl7.org/fhir/us/qicore/StructureDefinition/qicore-recorded",
        "valueDateTime": "2025-06-23T12:35:00.000Z"
      } ],
      "status": "completed",
      "code": {
        "coding": [ {
          "system": "http://www.ama-assn.org/go/cpt",
          "code": "51720"
        } ]
      },
      "subject": {
        "reference": "Patient/5595c36f-e82b-40cb-8327-8e691d471868"
      },
      "performedPeriod": {
        "start": "2025-06-23T13:30:00.000Z",
        "end": "2025-06-23T14:30:00.000Z"
      }
    },
    "request": {
      "method": "POST",
      "url": "Procedure/5ca5260bb8484613a555a976"
    }
  }, {
    "fullUrl": "https://madie.cms.gov/Procedure/5ca5260bb8484613a555a977",
    "resource": {
      "resourceType": "Procedure",
      "id": "5ca5260bb8484613a555a977",
      "meta": {
        "profile": [ "http://hl7.org/fhir/us/qicore/StructureDefinition/qicore-procedure" ]
      },
      "extension": [ {
        "url": "http://hl7.org/fhir/us/qicore/StructureDefinition/qicore-recorded",
        "valueDateTime": "2025-06-23T12:35:00.000Z"
      } ],
      "status": "completed",
      "code": {
        "coding": [ {
          "system": "http://www.ama-assn.org/go/cpt",
          "code": "51720"
        } ]
      },
      "subject": {
        "reference": "Patient/5595c36f-e82b-40cb-8327-8e691d471868"
      },
      "performedPeriod": {
        "start": "2025-06-23T15:30:00.000Z",
        "end": "2025-06-23T16:30:00.000Z"
      }
    },
    "request": {
      "method": "POST",
      "url": "Procedure/5ca5260bb8484613a555a977"
    }
  }, {
    "fullUrl": "https://madie.cms.gov/Procedure/5ca5260bb8484613a555a978",
    "resource": {
      "resourceType": "Procedure",
      "id": "5ca5260bb8484613a555a978",
      "meta": {
        "profile": [ "http://hl7.org/fhir/us/qicore/StructureDefinition/qicore-procedure" ]
      },
      "extension": [ {
        "url": "http://hl7.org/fhir/us/qicore/StructureDefinition/qicore-recorded",
        "valueDateTime": "2025-07-23T12:35:00.000Z"
      } ],
      "status": "completed",
      "code": {
        "coding": [ {
          "system": "http://www.ama-assn.org/go/cpt",
          "code": "96409"
        } ]
      },
      "subject": {
        "reference": "Patient/5595c36f-e82b-40cb-8327-8e691d471868"
      },
      "performedPeriod": {
        "start": "2025-07-23T13:30:00.000Z",
        "end": "2025-07-23T16:30:00.000Z"
      }
    },
    "request": {
      "method": "POST",
      "url": "Procedure/5ca5260bb8484613a555a978"
    }
  }, {
    "fullUrl": "https://madie.cms.gov/Organization/123456",
    "resource": {
      "resourceType": "Organization",
      "id": "123456",
      "meta": {
        "profile": [ "http://hl7.org/fhir/us/qicore/StructureDefinition/qicore-organization" ]
      },
      "identifier": [ {
        "use": "temp",
        "system": "urn:oid:2.16.840.1.113883.4.4",
        "value": "21-3259825"
      } ],
      "active": true,
      "type": [ {
        "coding": [ {
          "system": "http://terminology.hl7.org/CodeSystem/organization-type",
          "code": "pay",
          "display": "Payer"
        } ]
      } ],
      "name": "Blue Cross Blue Shield of Texas",
      "telecom": [ {
        "system": "phone",
        "value": "(+1) 972-766-6900"
      } ],
      "address": [ {
        "use": "billing",
        "type": "postal",
        "line": [ "P.O. Box 660044" ],
        "city": "Dallas",
        "state": "TX",
        "postalCode": "75266-0044",
        "country": "USA"
      } ]
    },
    "request": {
      "method": "POST",
      "url": "Organization/123456"
    }
  }, {
    "fullUrl": "https://madie.cms.gov/Practitioner/practitioner-123456",
    "resource": {
      "resourceType": "Practitioner",
      "id": "practitioner-123456",
      "meta": {
        "profile": [ "http://hl7.org/fhir/us/qicore/StructureDefinition/qicore-practitioner" ]
      },
      "identifier": [ {
        "system": "http://hl7.org/fhir/sid/us-npi",
        "value": "123456"
      } ],
      "name": [ {
        "family": "Evil",
        "prefix": [ "Dr" ]
      } ]
    },
    "request": {
      "method": "POST",
      "url": "Practitioner/practitioner-123456"
    }
  }, {
    "fullUrl": "https://madie.cms.gov/MeasureReport/50d0921c-6dd6-4ddf-a4dd-219aba65b015",
    "resource": {
      "resourceType": "MeasureReport",
      "id": "50d0921c-6dd6-4ddf-a4dd-219aba65b015",
      "meta": {
        "profile": [ "http://hl7.org/fhir/us/cqfmeasures/StructureDefinition/test-case-cqfm" ]
      },
      "contained": [ {
        "resourceType": "Parameters",
        "id": "bd46051b-af4b-4b64-9e9d-bfc24e673487-parameters",
        "parameter": [ {
          "name": "subject",
          "valueString": "5595c36f-e82b-40cb-8327-8e691d471868"
        } ]
      } ],
      "extension": [ {
        "url": "http://hl7.org/fhir/us/cqfmeasures/StructureDefinition/cqfm-inputParameters",
        "valueReference": {
          "reference": "#bd46051b-af4b-4b64-9e9d-bfc24e673487-parameters"
        }
      }, {
        "url": "http://hl7.org/fhir/us/cqfmeasures/StructureDefinition/cqfm-testCaseDescription",
        "valueMarkdown": "Patient with cancer diagnosis overlaps the office visit during measurement period. Chemotherapy administered prior and after office visit. Pain intensity assessment was performed during an office visit and the assessment result is in decimal form. "
      } ],
      "modifierExtension": [ {
        "url": "http://hl7.org/fhir/us/cqfmeasures/StructureDefinition/cqfm-isTestCase",
        "valueBoolean": true
      } ],
      "status": "complete",
      "type": "individual",
      "measure": "https://madie.cms.gov/Measure/OncologyPainIntensityQuantifiedFHIR",
      "period": {
        "start": "2025-01-01",
        "end": "2025-12-31"
      },
      "group": [ {
        "population": [ {
          "code": {
            "coding": [ {
              "system": "http://terminology.hl7.org/CodeSystem/measure-population",
              "code": "initial-population",
              "display": "Initial Population"
            } ]
          },
          "count": 1
        }, {
          "code": {
            "coding": [ {
              "system": "http://terminology.hl7.org/CodeSystem/measure-population",
              "code": "denominator",
              "display": "Denominator"
            } ]
          },
          "count": 1
        }, {
          "code": {
            "coding": [ {
              "system": "http://terminology.hl7.org/CodeSystem/measure-population",
              "code": "numerator",
              "display": "Numerator"
            } ]
          },
          "count": 1
        } ]
      }, {
        "population": [ {
          "code": {
            "coding": [ {
              "system": "http://terminology.hl7.org/CodeSystem/measure-population",
              "code": "initial-population",
              "display": "Initial Population"
            } ]
          },
          "count": 0
        }, {
          "code": {
            "coding": [ {
              "system": "http://terminology.hl7.org/CodeSystem/measure-population",
              "code": "denominator",
              "display": "Denominator"
            } ]
          },
          "count": 0
        }, {
          "code": {
            "coding": [ {
              "system": "http://terminology.hl7.org/CodeSystem/measure-population",
              "code": "numerator",
              "display": "Numerator"
            } ]
          },
          "count": 0
        } ]
      } ],
      "evaluatedResource": [ {
        "reference": "https://madie.cms.gov/Patient/5595c36f-e82b-40cb-8327-8e691d471868"
      }, {
        "reference": "https://madie.cms.gov/Observation/5ca5260bb8484613a555a979"
      }, {
        "reference": "https://madie.cms.gov/Condition/5ca5260bb8484613a555a973"
      }, {
        "reference": "https://madie.cms.gov/Encounter/5ca5260bb8484613a555a974"
      }, {
        "reference": "https://madie.cms.gov/Coverage/60099acc1c76ba64612b06a6"
      }, {
        "reference": "https://madie.cms.gov/Procedure/5ca5260bb8484613a555a975"
      }, {
        "reference": "https://madie.cms.gov/Procedure/5ca5260bb8484613a555a976"
      }, {
        "reference": "https://madie.cms.gov/Procedure/5ca5260bb8484613a555a977"
      }, {
        "reference": "https://madie.cms.gov/Procedure/5ca5260bb8484613a555a978"
      }, {
        "reference": "https://madie.cms.gov/Organization/123456"
      }, {
        "reference": "https://madie.cms.gov/Practitioner/practitioner-123456"
      } ]
    },
    "request": {
      "method": "POST",
      "url": "MeasureReport/50d0921c-6dd6-4ddf-a4dd-219aba65b015"
    }
  } ]
}