{"resourceType":"Bundle","id":"tests-81a1095b-130f-4ef2-b5a9-f78289a2373e-bundle","type":"transaction","entry":[{"fullUrl":"https://madie.cms.gov/Patient/81a1095b-130f-4ef2-b5a9-f78289a2373e","resource":{"resourceType":"Patient","id":"81a1095b-130f-4ef2-b5a9-f78289a2373e","meta":{"profile":["http://hl7.org/fhir/us/core/StructureDefinition/us-core-patient","http://hl7.org/fhir/us/qicore/StructureDefinition/qicore-patient"]},"extension":[{"url":"http://hl7.org/fhir/us/core/StructureDefinition/us-core-race","extension":[{"url":"ombCategory","valueCoding":{"system":"urn:oid:2.16.840.1.113883.6.238","code":"2028-9","display":"Asian"}},{"url":"text","valueString":"Asian"},{"url":"detailed","valueCoding":{"system":"urn:oid:2.16.840.1.113883.6.238","code":"2036-2","display":"Filipino"}}]},{"url":"http://hl7.org/fhir/us/core/StructureDefinition/us-core-ethnicity","extension":[{"url":"ombCategory","valueCoding":{"system":"urn:oid:2.16.840.1.113883.6.238","code":"2135-2","display":"Hispanic or Latino"}},{"url":"text","valueString":"Hispanic or Latino"},{"url":"detailed","valueCoding":{"system":"urn:oid:2.16.840.1.113883.6.238","code":"2143-6","display":"Gallego"}}]}],"identifier":[{"system":"http://hospital.smarthealthit.org","value":"999999995"}],"name":[{"family":"Age18","given":["IPPPass"]}],"gender":"female","birthDate":"2005-12-31"},"request":{"method":"PUT","url":"Patient/81a1095b-130f-4ef2-b5a9-f78289a2373e"}},{"fullUrl":"https://madie.cms.gov/Observation/ipppass-age18-1","resource":{"resourceType":"Observation","id":"5e1b5e68-ddfa-4bab-a84a-270b4da7fb02","meta":{"profile":["http://hl7.org/fhir/us/qicore/StructureDefinition/qicore-observation"]},"status":"final","category":[{"coding":[{"system":"http://terminology.hl7.org/CodeSystem/observation-category","code":"imaging","display":"Imaging"}]}],"code":{"coding":[{"system":"http://loinc.org","code":"96914-7","display":"CT dose and image quality category"}],"text":"CT dose and image quality category"},"subject":{"reference":"Patient/81a1095b-130f-4ef2-b5a9-f78289a2373e"},"effectiveDateTime":"2025-01-02T00:00:00.000Z","valueCodeableConcept":{"coding":[{"system":"http://loinc.org","code":"LA31752-1","display":"Abdomen and Pelvis Low Dose"}]},"component":[{"code":{"coding":[{"system":"http://loinc.org","code":"96912-1","display":"Calculated CT global noise"}]},"valueQuantity":{"value":63,"unit":"[hnsf'U]","system":"http://unitsofmeasure.org","code":"[hnsf'U]"}},{"code":{"coding":[{"system":"http://loinc.org","code":"96913-9","display":"Calculated CT size-adjusted dose"}]},"valueQuantity":{"value":597,"unit":"mGy.cm","system":"http://unitsofmeasure.org","code":"mGy.cm"}}]},"request":{"method":"PUT","url":"Observation/5e1b5e68-ddfa-4bab-a84a-270b4da7fb02"}},{"fullUrl":"https://madie.cms.gov/Coverage/ipppass-age18-2","resource":{"resourceType":"Coverage","id":"82f740ed-10c4-48d4-93f0-3c9ffc06bc95","meta":{"profile":["http://hl7.org/fhir/us/qicore/StructureDefinition/qicore-coverage"]},"identifier":[{"system":"http://benefitsinc.com/certificate","value":"12345"}],"status":"active","type":{"coding":[{"system":"https://nahdo.org/sopt","code":"1","display":"MEDICARE"}]},"policyHolder":{"reference":"Patient/81a1095b-130f-4ef2-b5a9-f78289a2373e"},"subscriber":{"reference":"Patient/81a1095b-130f-4ef2-b5a9-f78289a2373e"},"beneficiary":{"reference":"Patient/81a1095b-130f-4ef2-b5a9-f78289a2373e"},"dependent":"0","relationship":{"coding":[{"system":"http://terminology.hl7.org/CodeSystem/subscriber-relationship","code":"self"}]},"period":{"start":"2021-05-23","end":"2026-05-23"},"payor":[{"reference":"Organization/4b5a882f-1f43-485c-85c6-f5ad2337d5b1"}],"order":9},"request":{"method":"PUT","url":"Coverage/82f740ed-10c4-48d4-93f0-3c9ffc06bc95"}},{"fullUrl":"https://madie.cms.gov/MeasureReport/08f90b67-06bd-4c2e-bb98-d9046465ebd6","resource":{"resourceType":"MeasureReport","id":"08f90b67-06bd-4c2e-bb98-d9046465ebd6","meta":{"profile":["http://hl7.org/fhir/us/cqfmeasures/StructureDefinition/test-case-cqfm"]},"contained":[{"resourceType":"Parameters","id":"22636155-8f76-4caa-90eb-6baffea36930-parameters","parameter":[{"name":"subject","valueString":"81a1095b-130f-4ef2-b5a9-f78289a2373e"}]}],"extension":[{"url":"http://hl7.org/fhir/us/cqfmeasures/StructureDefinition/cqfm-inputParameters","valueReference":{"reference":"#22636155-8f76-4caa-90eb-6baffea36930-parameters"}},{"url":"http://hl7.org/fhir/us/cqfmeasures/StructureDefinition/cqfm-testCaseDescription","valueMarkdown":"Patient is exactly 18 at the start of the measurement period and has a valid scan"}],"modifierExtension":[{"url":"http://hl7.org/fhir/us/cqfmeasures/StructureDefinition/cqfm-isTestCase","valueBoolean":true}],"status":"complete","type":"individual","measure":"https://madie.cms.gov/Measure/ALARACTOQRFHIR","period":{"start":"2025-01-01","end":"2025-12-31"},"group":[{"population":[{"code":{"coding":[{"system":"http://terminology.hl7.org/CodeSystem/measure-population","code":"initial-population","display":"Initial Population"}]},"count":1},{"code":{"coding":[{"system":"http://terminology.hl7.org/CodeSystem/measure-population","code":"denominator","display":"Denominator"}]},"count":1},{"code":{"coding":[{"system":"http://terminology.hl7.org/CodeSystem/measure-population","code":"denominator-exclusion","display":"Denominator Exclusion"}]},"count":0},{"code":{"coding":[{"system":"http://terminology.hl7.org/CodeSystem/measure-population","code":"numerator","display":"Numerator"}]},"count":0}]}]},"request":{"method":"PUT","url":"MeasureReport/08f90b67-06bd-4c2e-bb98-d9046465ebd6"}}]}