{"resourceType":"Bundle","id":"tests-63db6296-1842-4cd6-b70a-9e9627ff2e39-bundle","type":"transaction","entry":[{"fullUrl":"https://madie.cms.gov/Patient/63db6296-1842-4cd6-b70a-9e9627ff2e39","resource":{"resourceType":"Patient","id":"63db6296-1842-4cd6-b70a-9e9627ff2e39","meta":{"profile":["http://hl7.org/fhir/us/core/StructureDefinition/us-core-patient","http://hl7.org/fhir/us/qicore/StructureDefinition/qicore-patient"]},"extension":[{"url":"http://hl7.org/fhir/us/core/StructureDefinition/us-core-race","extension":[{"url":"ombCategory","valueCoding":{"system":"urn:oid:2.16.840.1.113883.6.238","code":"2028-9","display":"Asian"}},{"url":"text","valueString":"Asian"}]},{"url":"http://hl7.org/fhir/us/core/StructureDefinition/us-core-ethnicity","extension":[{"url":"ombCategory","valueCoding":{"system":"urn:oid:2.16.840.1.113883.6.238","code":"2135-2","display":"Hispanic or Latino"}},{"url":"text","valueString":"Hispanic or Latino"}]}],"identifier":[{"system":"http://hospital.smarthealthit.org","value":"999999995"}],"name":[{"family":"NoUnits","given":["DENOMFail"]}],"gender":"female","birthDate":"1984-06-12"},"request":{"method":"PUT","url":"Patient/63db6296-1842-4cd6-b70a-9e9627ff2e39"}},{"fullUrl":"https://madie.cms.gov/Observation/denomfail-nounits-2","resource":{"resourceType":"Observation","id":"2f3f49e9-097c-4463-9e35-31dd8e67b03c","meta":{"profile":["http://hl7.org/fhir/us/qicore/StructureDefinition/qicore-observation"]},"status":"final","category":[{"coding":[{"system":"http://terminology.hl7.org/CodeSystem/observation-category","code":"imaging","display":"Imaging"}]}],"code":{"coding":[{"system":"http://loinc.org","code":"96914-7","display":"CT dose and image quality category"}],"text":"CT dose and image quality category"},"subject":{"reference":"Patient/63db6296-1842-4cd6-b70a-9e9627ff2e39"},"effectiveDateTime":"2025-05-02T00:00:00.000Z","valueCodeableConcept":{"coding":[{"system":"http://loinc.org","code":"LA31752-1","display":"Abdomen and Pelvis Low Dose"}]},"component":[{"code":{"coding":[{"system":"http://loinc.org","code":"96912-1","display":"Calculated CT global noise"}]},"valueQuantity":{"value":63}},{"code":{"coding":[{"system":"http://loinc.org","code":"96913-9","display":"Calculated CT size-adjusted dose"}]},"valueQuantity":{"value":597}}]},"request":{"method":"PUT","url":"Observation/2f3f49e9-097c-4463-9e35-31dd8e67b03c"}},{"fullUrl":"https://madie.cms.gov/MeasureReport/fcb67146-7515-4dcb-93e2-cc22c5837fb9","resource":{"resourceType":"MeasureReport","id":"fcb67146-7515-4dcb-93e2-cc22c5837fb9","meta":{"profile":["http://hl7.org/fhir/us/cqfmeasures/StructureDefinition/test-case-cqfm"]},"contained":[{"resourceType":"Parameters","id":"0ae1e11f-ce30-4af2-a051-c87b73e6c0f8-parameters","parameter":[{"name":"subject","valueString":"63db6296-1842-4cd6-b70a-9e9627ff2e39"}]}],"extension":[{"url":"http://hl7.org/fhir/us/cqfmeasures/StructureDefinition/cqfm-inputParameters","valueReference":{"reference":"#0ae1e11f-ce30-4af2-a051-c87b73e6c0f8-parameters"}},{"url":"http://hl7.org/fhir/us/cqfmeasures/StructureDefinition/cqfm-testCaseDescription","valueMarkdown":"Patient has a valid CT Scan but the units are missing on the results"}],"modifierExtension":[{"url":"http://hl7.org/fhir/us/cqfmeasures/StructureDefinition/cqfm-isTestCase","valueBoolean":true}],"status":"complete","type":"individual","measure":"https://madie.cms.gov/Measure/ALARACTOQRFHIR","period":{"start":"2025-01-01","end":"2025-12-31"},"group":[{"population":[{"code":{"coding":[{"system":"http://terminology.hl7.org/CodeSystem/measure-population","code":"initial-population","display":"Initial Population"}]},"count":1},{"code":{"coding":[{"system":"http://terminology.hl7.org/CodeSystem/measure-population","code":"denominator","display":"Denominator"}]},"count":0},{"code":{"coding":[{"system":"http://terminology.hl7.org/CodeSystem/measure-population","code":"denominator-exclusion","display":"Denominator Exclusion"}]},"count":0},{"code":{"coding":[{"system":"http://terminology.hl7.org/CodeSystem/measure-population","code":"numerator","display":"Numerator"}]},"count":0}]}]},"request":{"method":"PUT","url":"MeasureReport/fcb67146-7515-4dcb-93e2-cc22c5837fb9"}}]}