{"resourceType":"Bundle","id":"tests-25928dfa-0bbb-4fe0-af70-a58b02afd812-bundle","type":"transaction","entry":[{"fullUrl":"https://madie.cms.gov/Patient/25928dfa-0bbb-4fe0-af70-a58b02afd812","resource":{"resourceType":"Patient","id":"25928dfa-0bbb-4fe0-af70-a58b02afd812","meta":{"profile":["http://hl7.org/fhir/us/core/StructureDefinition/us-core-patient","http://hl7.org/fhir/us/qicore/StructureDefinition/qicore-patient"]},"extension":[{"url":"http://hl7.org/fhir/us/core/StructureDefinition/us-core-race","extension":[{"url":"ombCategory","valueCoding":{"system":"urn:oid:2.16.840.1.113883.6.238","code":"2028-9","display":"Asian"}},{"url":"text","valueString":"Asian"}]},{"url":"http://hl7.org/fhir/us/core/StructureDefinition/us-core-ethnicity","extension":[{"url":"ombCategory","valueCoding":{"system":"urn:oid:2.16.840.1.113883.6.238","code":"2135-2","display":"Hispanic or Latino"}},{"url":"text","valueString":"Hispanic or Latino"}]}],"identifier":[{"system":"http://hospital.smarthealthit.org","value":"999999995"}],"name":[{"family":"InvalidUnits","given":["DENOMFail"]}],"gender":"female","birthDate":"1984-06-12"},"request":{"method":"PUT","url":"Patient/25928dfa-0bbb-4fe0-af70-a58b02afd812"}},{"fullUrl":"https://madie.cms.gov/Observation/denomfail-invalidunits-1","resource":{"resourceType":"Observation","id":"cd5fd628-2d22-4c66-aa4b-5d5c504ef656","meta":{"profile":["http://hl7.org/fhir/us/qicore/StructureDefinition/qicore-observation"]},"status":"final","category":[{"coding":[{"system":"http://terminology.hl7.org/CodeSystem/observation-category","code":"imaging","display":"Imaging"}]}],"code":{"coding":[{"system":"http://loinc.org","code":"96914-7","display":"CT dose and image quality category"}],"text":"CT dose and image quality category"},"subject":{"reference":"Patient/25928dfa-0bbb-4fe0-af70-a58b02afd812"},"effectiveDateTime":"2025-05-02T00:00:00.000Z","valueCodeableConcept":{"coding":[{"system":"http://loinc.org","code":"LA31752-1","display":"Abdomen and Pelvis Low Dose"}]},"component":[{"code":{"coding":[{"system":"http://loinc.org","code":"96912-1","display":"Calculated CT global noise"}]},"valueQuantity":{"value":63,"unit":"cm","system":"http://unitsofmeasure.org","code":"cm"}},{"code":{"coding":[{"system":"http://loinc.org","code":"96913-9","display":"Calculated CT size-adjusted dose"}]},"valueQuantity":{"value":597,"unit":"cm","system":"http://unitsofmeasure.org","code":"cm"}}]},"request":{"method":"PUT","url":"Observation/cd5fd628-2d22-4c66-aa4b-5d5c504ef656"}},{"fullUrl":"https://madie.cms.gov/MeasureReport/7b5e5e3d-0b82-4da0-8f48-d3194d6dd070","resource":{"resourceType":"MeasureReport","id":"7b5e5e3d-0b82-4da0-8f48-d3194d6dd070","meta":{"profile":["http://hl7.org/fhir/us/cqfmeasures/StructureDefinition/test-case-cqfm"]},"contained":[{"resourceType":"Parameters","id":"db9ec7f7-4b2d-4a2c-9c70-5cc2544a92d7-parameters","parameter":[{"name":"subject","valueString":"25928dfa-0bbb-4fe0-af70-a58b02afd812"}]}],"extension":[{"url":"http://hl7.org/fhir/us/cqfmeasures/StructureDefinition/cqfm-inputParameters","valueReference":{"reference":"#db9ec7f7-4b2d-4a2c-9c70-5cc2544a92d7-parameters"}},{"url":"http://hl7.org/fhir/us/cqfmeasures/StructureDefinition/cqfm-testCaseDescription","valueMarkdown":"Patient has valid CT scan but with invalid units"}],"modifierExtension":[{"url":"http://hl7.org/fhir/us/cqfmeasures/StructureDefinition/cqfm-isTestCase","valueBoolean":true}],"status":"complete","type":"individual","measure":"https://madie.cms.gov/Measure/ALARACTOQRFHIR","period":{"start":"2025-01-01","end":"2025-12-31"},"group":[{"population":[{"code":{"coding":[{"system":"http://terminology.hl7.org/CodeSystem/measure-population","code":"initial-population","display":"Initial Population"}]},"count":1},{"code":{"coding":[{"system":"http://terminology.hl7.org/CodeSystem/measure-population","code":"denominator","display":"Denominator"}]},"count":0},{"code":{"coding":[{"system":"http://terminology.hl7.org/CodeSystem/measure-population","code":"denominator-exclusion","display":"Denominator Exclusion"}]},"count":0},{"code":{"coding":[{"system":"http://terminology.hl7.org/CodeSystem/measure-population","code":"numerator","display":"Numerator"}]},"count":0}]}]},"request":{"method":"PUT","url":"MeasureReport/7b5e5e3d-0b82-4da0-8f48-d3194d6dd070"}}]}