{
  "resourceType": "Bundle",
  "id": "6109658e98086b538055b9e4",
  "type": "transaction",
  "entry": [ {
    "fullUrl": "https://madie.cms.gov/Patient/e320fffc-78f7-4fb3-9cce-cc3608809c53",
    "resource": {
      "resourceType": "Patient",
      "id": "e320fffc-78f7-4fb3-9cce-cc3608809c53",
      "meta": {
        "profile": [ "http://hl7.org/fhir/us/qicore/StructureDefinition/qicore-patient" ]
      },
      "extension": [ {
        "url": "http://hl7.org/fhir/us/core/StructureDefinition/us-core-race",
        "extension": [ {
          "url": "ombCategory",
          "valueCoding": {
            "system": "urn:oid:2.16.840.1.113883.6.238",
            "code": "1002-5",
            "display": "American Indian or Alaska Native",
            "userSelected": true
          }
        }, {
          "url": "text",
          "valueString": "American Indian or Alaska Native"
        } ]
      }, {
        "url": "http://hl7.org/fhir/us/core/StructureDefinition/us-core-ethnicity",
        "extension": [ {
          "url": "ombCategory",
          "valueCoding": {
            "system": "urn:oid:2.16.840.1.113883.6.238",
            "code": "2186-5",
            "display": "Not Hispanic or Latino",
            "userSelected": true
          }
        }, {
          "url": "text",
          "valueString": "Not Hispanic or Latino"
        } ]
      } ],
      "identifier": [ {
        "type": {
          "coding": [ {
            "system": "http://terminology.hl7.org/CodeSystem/v2-0203",
            "code": "MR"
          } ]
        },
        "system": "https://GoodHealthCare.com/",
        "value": "6109658e98086b538055b9e4"
      } ],
      "active": true,
      "name": [ {
        "use": "usual",
        "family": "IPPFail",
        "given": [ "GlaucomaDxRefuted" ]
      } ],
      "gender": "male",
      "birthDate": "1990-12-31"
    },
    "request": {
      "method": "POST",
      "url": "Patient/e320fffc-78f7-4fb3-9cce-cc3608809c53"
    }
  }, {
    "fullUrl": "https://madie.cms.gov/Encounter/604287465c49a000003f51d4",
    "resource": {
      "resourceType": "Encounter",
      "id": "604287465c49a000003f51d4",
      "meta": {
        "profile": [ "http://hl7.org/fhir/us/qicore/StructureDefinition/qicore-encounter" ]
      },
      "status": "finished",
      "class": {
        "system": "http://terminology.hl7.org/CodeSystem/v3-ActCode",
        "code": "AMB",
        "display": "ambulatory",
        "userSelected": true
      },
      "type": [ {
        "coding": [ {
          "system": "http://snomed.info/sct",
          "version": "http://snomed.info/sct/731000124108/version/202303",
          "code": "37894004"
        }, {
          "system": "http://www.ama-assn.org/go/cpt",
          "version": "2023",
          "code": "99213",
          "userSelected": true
        } ]
      } ],
      "subject": {
        "reference": "Patient/e320fffc-78f7-4fb3-9cce-cc3608809c53"
      },
      "period": {
        "start": "2025-03-05T08:00:00.000+00:00",
        "end": "2025-03-05T08:30:00.000+00:00"
      }
    },
    "request": {
      "method": "POST",
      "url": "Encounter/604287465c49a000003f51d4"
    }
  }, {
    "fullUrl": "https://madie.cms.gov/Condition/6420002306",
    "resource": {
      "resourceType": "Condition",
      "id": "6420002306",
      "meta": {
        "profile": [ "http://hl7.org/fhir/us/qicore/StructureDefinition/qicore-condition" ]
      },
      "clinicalStatus": {
        "coding": [ {
          "system": "http://terminology.hl7.org/CodeSystem/condition-clinical",
          "code": "inactive",
          "display": "resolved"
        } ]
      },
      "verificationStatus": {
        "coding": [ {
          "system": "http://terminology.hl7.org/CodeSystem/condition-ver-status",
          "code": "refuted",
          "display": "Refuted"
        } ],
        "text": "Refuted"
      },
      "category": [ {
        "coding": [ {
          "system": "http://terminology.hl7.org/CodeSystem/condition-category",
          "code": "problem-list-item",
          "display": "problem-list-item",
          "userSelected": true
        } ]
      } ],
      "code": {
        "coding": [ {
          "system": "http://snomed.info/sct",
          "version": "http://snomed.info/sct/731000124108/version/20230301",
          "code": "15633281000119103",
          "display": "Bilateral primary open angle glaucoma (disorder)"
        } ]
      },
      "subject": {
        "reference": "Patient/e320fffc-78f7-4fb3-9cce-cc3608809c53"
      },
      "onsetDateTime": "2023-01-01T08:00:00.000+00:00"
    },
    "request": {
      "method": "POST",
      "url": "Condition/6420002306"
    }
  }, {
    "fullUrl": "https://madie.cms.gov/MeasureReport/d8745c10-f322-465d-8b51-6618e26b61f9",
    "resource": {
      "resourceType": "MeasureReport",
      "id": "d8745c10-f322-465d-8b51-6618e26b61f9",
      "meta": {
        "profile": [ "http://hl7.org/fhir/us/cqfmeasures/StructureDefinition/test-case-cqfm" ]
      },
      "contained": [ {
        "resourceType": "Parameters",
        "id": "e1fc3c99-64e8-46ca-8017-f4102c67410b-parameters",
        "parameter": [ {
          "name": "subject",
          "valueString": "e320fffc-78f7-4fb3-9cce-cc3608809c53"
        } ]
      } ],
      "extension": [ {
        "url": "http://hl7.org/fhir/us/cqfmeasures/StructureDefinition/cqfm-inputParameters",
        "valueReference": {
          "reference": "#e1fc3c99-64e8-46ca-8017-f4102c67410b-parameters"
        }
      }, {
        "url": "http://hl7.org/fhir/us/cqfmeasures/StructureDefinition/cqfm-testCaseDescription",
        "valueMarkdown": "Patient with Glaucoma diagnosis which has verification status of refuted and does not meet initial population criteria therefore"
      } ],
      "modifierExtension": [ {
        "url": "http://hl7.org/fhir/us/cqfmeasures/StructureDefinition/cqfm-isTestCase",
        "valueBoolean": true
      } ],
      "status": "complete",
      "type": "individual",
      "measure": "https://madie.cms.gov/Measure/POAGOpticNerveEvaluationFHIR",
      "period": {
        "start": "2025-01-01",
        "end": "2025-12-31"
      },
      "group": [ {
        "population": [ {
          "code": {
            "coding": [ {
              "system": "http://terminology.hl7.org/CodeSystem/measure-population",
              "code": "initial-population",
              "display": "Initial Population"
            } ]
          },
          "count": 0
        }, {
          "code": {
            "coding": [ {
              "system": "http://terminology.hl7.org/CodeSystem/measure-population",
              "code": "denominator",
              "display": "Denominator"
            } ]
          },
          "count": 0
        }, {
          "code": {
            "coding": [ {
              "system": "http://terminology.hl7.org/CodeSystem/measure-population",
              "code": "denominator-exception",
              "display": "Denominator Exception"
            } ]
          },
          "count": 0
        }, {
          "code": {
            "coding": [ {
              "system": "http://terminology.hl7.org/CodeSystem/measure-population",
              "code": "numerator",
              "display": "Numerator"
            } ]
          },
          "count": 0
        } ]
      } ],
      "evaluatedResource": [ {
        "reference": "Patient/e320fffc-78f7-4fb3-9cce-cc3608809c53"
      }, {
        "reference": "Encounter/604287465c49a000003f51d4"
      }, {
        "reference": "Condition/6420002306"
      } ]
    },
    "request": {
      "method": "POST",
      "url": "MeasureReport/d8745c10-f322-465d-8b51-6618e26b61f9"
    }
  } ]
}