{
  "resourceType": "Bundle",
  "id": "ippfail-scanoutsidemp",
  "type": "transaction",
  "entry": [ {
    "fullUrl": "https://madie.cms.gov/Patient/998b7fee-53b4-4d2d-ba52-3819c9f9a7e5",
    "resource": {
      "resourceType": "Patient",
      "id": "998b7fee-53b4-4d2d-ba52-3819c9f9a7e5",
      "meta": {
        "profile": [ "http://hl7.org/fhir/us/core/StructureDefinition/us-core-patient", "http://hl7.org/fhir/us/qicore/StructureDefinition/qicore-patient" ]
      },
      "extension": [ {
        "url": "http://hl7.org/fhir/us/core/StructureDefinition/us-core-race",
        "extension": [ {
          "url": "ombCategory",
          "valueCoding": {
            "system": "urn:oid:2.16.840.1.113883.6.238",
            "code": "2028-9",
            "display": "Asian"
          }
        }, {
          "url": "text",
          "valueString": "Asian"
        } ]
      }, {
        "url": "http://hl7.org/fhir/us/core/StructureDefinition/us-core-ethnicity",
        "extension": [ {
          "url": "ombCategory",
          "valueCoding": {
            "system": "urn:oid:2.16.840.1.113883.6.238",
            "code": "2135-2",
            "display": "Hispanic or Latino"
          }
        }, {
          "url": "text",
          "valueString": "Hispanic or Latino"
        } ]
      } ],
      "identifier": [ {
        "system": "http://hospital.smarthealthit.org",
        "value": "999999995"
      } ],
      "name": [ {
        "family": "ScanOutsideMP",
        "given": [ "IPPFail" ]
      } ],
      "gender": "male",
      "birthDate": "1978-06-12"
    },
    "request": {
      "method": "POST",
      "url": "Patient/998b7fee-53b4-4d2d-ba52-3819c9f9a7e5"
    }
  }, {
    "fullUrl": "https://madie.cms.gov/Encounter/ippfail-scanoutsidemp-1",
    "resource": {
      "resourceType": "Encounter",
      "id": "d81ce219-c70a-4d78-a13d-7f5589f80f48",
      "meta": {
        "profile": [ "http://hl7.org/fhir/us/qicore/StructureDefinition/qicore-encounter" ]
      },
      "status": "finished",
      "class": {
        "system": "http://terminology.hl7.org/CodeSystem/v3-ActCode",
        "code": "IMP",
        "display": "inpatient encounter"
      },
      "type": [ {
        "coding": [ {
          "system": "http://snomed.info/sct",
          "code": "183452005",
          "display": "Emergency hospital admission"
        } ]
      } ],
      "subject": {
        "reference": "Patient/998b7fee-53b4-4d2d-ba52-3819c9f9a7e5"
      },
      "period": {
        "start": "2025-12-30T00:00:00.000Z",
        "end": "2026-01-03T01:00:00.000Z"
      }
    },
    "request": {
      "method": "POST",
      "url": "Encounter/d81ce219-c70a-4d78-a13d-7f5589f80f48"
    }
  }, {
    "fullUrl": "https://madie.cms.gov/Observation/ippfail-scanoutsidemp-2",
    "resource": {
      "resourceType": "Observation",
      "id": "ippfail-scanoutsidemp-2",
      "meta": {
        "profile": [ "http://hl7.org/fhir/us/qicore/StructureDefinition/qicore-observation" ]
      },
      "status": "final",
      "category": [ {
        "coding": [ {
          "system": "http://terminology.hl7.org/CodeSystem/observation-category",
          "code": "imaging",
          "display": "Imaging"
        } ]
      } ],
      "code": {
        "coding": [ {
          "system": "http://loinc.org",
          "code": "96914-7",
          "display": "CT dose and image quality category"
        } ],
        "text": "CT dose and image quality category"
      },
      "subject": {
        "reference": "Patient/998b7fee-53b4-4d2d-ba52-3819c9f9a7e5"
      },
      "encounter": {
        "reference": "Encounter/d81ce219-c70a-4d78-a13d-7f5589f80f48"
      },
      "effectiveDateTime": "2026-01-02T00:00:00.000Z",
      "valueCodeableConcept": {
        "coding": [ {
          "system": "http://loinc.org",
          "code": "LA31753-9",
          "display": "Abdomen and Pelvis Routine Dose"
        } ]
      },
      "component": [ {
        "code": {
          "coding": [ {
            "system": "http://loinc.org",
            "code": "96912-1",
            "display": "Calculated CT global noise"
          } ]
        },
        "valueQuantity": {
          "value": 63,
          "unit": "[hnsf'U]",
          "system": "http://unitsofmeasure.org",
          "code": "[hnsf'U]"
        }
      }, {
        "code": {
          "coding": [ {
            "system": "http://loinc.org",
            "code": "96913-9",
            "display": "Calculated CT size-adjusted dose"
          } ]
        },
        "valueQuantity": {
          "value": 597,
          "unit": "mGy.cm",
          "system": "http://unitsofmeasure.org",
          "code": "mGy.cm"
        }
      } ]
    },
    "request": {
      "method": "POST",
      "url": "Observation/ippfail-scanoutsidemp-2"
    }
  }, {
    "fullUrl": "https://madie.cms.gov/MeasureReport/7e004a98-d68e-48b5-8f58-231e0d5b894c",
    "resource": {
      "resourceType": "MeasureReport",
      "id": "7e004a98-d68e-48b5-8f58-231e0d5b894c",
      "meta": {
        "profile": [ "http://hl7.org/fhir/us/cqfmeasures/StructureDefinition/test-case-cqfm" ]
      },
      "contained": [ {
        "resourceType": "Parameters",
        "id": "19fd32ab-aec7-44ef-86c0-4827ae3a94f4-parameters",
        "parameter": [ {
          "name": "subject",
          "valueString": "998b7fee-53b4-4d2d-ba52-3819c9f9a7e5"
        } ]
      } ],
      "extension": [ {
        "url": "http://hl7.org/fhir/us/cqfmeasures/StructureDefinition/cqfm-inputParameters",
        "valueReference": {
          "reference": "#19fd32ab-aec7-44ef-86c0-4827ae3a94f4-parameters"
        }
      }, {
        "url": "http://hl7.org/fhir/us/cqfmeasures/StructureDefinition/cqfm-testCaseDescription",
        "valueMarkdown": "Patient has a valid CT Scan but it occurs outside the Measurement Period"
      } ],
      "modifierExtension": [ {
        "url": "http://hl7.org/fhir/us/cqfmeasures/StructureDefinition/cqfm-isTestCase",
        "valueBoolean": true
      } ],
      "status": "complete",
      "type": "individual",
      "measure": "https://madie.cms.gov/Measure/ALARACTOQRFHIR",
      "period": {
        "start": "2025-01-01",
        "end": "2025-12-31"
      },
      "group": [ {
        "population": [ {
          "code": {
            "coding": [ {
              "system": "http://terminology.hl7.org/CodeSystem/measure-population",
              "code": "initial-population",
              "display": "Initial Population"
            } ]
          },
          "count": 0
        }, {
          "code": {
            "coding": [ {
              "system": "http://terminology.hl7.org/CodeSystem/measure-population",
              "code": "denominator",
              "display": "Denominator"
            } ]
          },
          "count": 0
        }, {
          "code": {
            "coding": [ {
              "system": "http://terminology.hl7.org/CodeSystem/measure-population",
              "code": "denominator-exclusion",
              "display": "Denominator Exclusion"
            } ]
          },
          "count": 0
        }, {
          "code": {
            "coding": [ {
              "system": "http://terminology.hl7.org/CodeSystem/measure-population",
              "code": "numerator",
              "display": "Numerator"
            } ]
          },
          "count": 0
        } ]
      } ],
      "evaluatedResource": [ {
        "reference": "https://madie.cms.gov/Patient/998b7fee-53b4-4d2d-ba52-3819c9f9a7e5"
      }, {
        "reference": "https://madie.cms.gov/Encounter/ippfail-scanoutsidemp-1"
      }, {
        "reference": "https://madie.cms.gov/Observation/ippfail-scanoutsidemp-2"
      } ]
    },
    "request": {
      "method": "POST",
      "url": "MeasureReport/7e004a98-d68e-48b5-8f58-231e0d5b894c"
    }
  } ]
}