{"resourceType":"Bundle","id":"tests-fe1e8e8e-0d5a-40bb-93ca-28c808e5e2dd-bundle","type":"transaction","entry":[{"fullUrl":"https://madie.cms.gov/Patient/fe1e8e8e-0d5a-40bb-93ca-28c808e5e2dd","resource":{"resourceType":"Patient","id":"fe1e8e8e-0d5a-40bb-93ca-28c808e5e2dd","meta":{"profile":["http://hl7.org/fhir/us/qicore/StructureDefinition/qicore-patient"]},"extension":[{"url":"http://hl7.org/fhir/us/core/StructureDefinition/us-core-race","extension":[{"url":"ombCategory","valueCoding":{"system":"urn:oid:2.16.840.1.113883.6.238","code":"2028-9","display":"Asian","userSelected":true}},{"url":"text","valueString":"Asian"}]},{"url":"http://hl7.org/fhir/us/core/StructureDefinition/us-core-ethnicity","extension":[{"url":"ombCategory","valueCoding":{"system":"urn:oid:2.16.840.1.113883.6.238","code":"2135-2","display":"Hispanic or Latino","userSelected":true}},{"url":"text","valueString":"Hispanic or Latino"}]}],"identifier":[{"type":{"coding":[{"system":"http://terminology.hl7.org/CodeSystem/v2-0203","code":"MR"}]},"system":"http://hospital.smarthealthit.org","value":"999999995"}],"name":[{"family":"Bertha","given":["Betty"]}],"gender":"female","birthDate":"2012-01-01"},"request":{"method":"PUT","url":"Patient/fe1e8e8e-0d5a-40bb-93ca-28c808e5e2dd"}},{"fullUrl":"https://madie.cms.gov/Condition/Condition-11","resource":{"resourceType":"Condition","id":"877b824f-8685-48b6-957d-9a7b7d190af3","meta":{"profile":["http://hl7.org/fhir/us/qicore/StructureDefinition/qicore-condition"]},"clinicalStatus":{"coding":[{"system":"http://terminology.hl7.org/CodeSystem/condition-clinical","code":"active"}]},"category":[{"coding":[{"system":"http://terminology.hl7.org/CodeSystem/condition-category","code":"problem-list-item","display":"Problem List Item"}]}],"code":{"coding":[{"system":"http://hl7.org/fhir/sid/icd-10-cm","code":"F10.10","display":"Alcohol abuse, uncomplicated"}]},"subject":{"reference":"Patient/fe1e8e8e-0d5a-40bb-93ca-28c808e5e2dd"},"onsetDateTime":"2025-11-14T00:00:00.000Z"},"request":{"method":"PUT","url":"Condition/877b824f-8685-48b6-957d-9a7b7d190af3"}},{"fullUrl":"https://madie.cms.gov/Encounter/Encounter-11","resource":{"resourceType":"Encounter","id":"615b9708-5fda-4656-bf53-b3c0d73ac827","meta":{"profile":["http://hl7.org/fhir/us/qicore/StructureDefinition/qicore-encounter"]},"status":"finished","class":{"system":"http://terminology.hl7.org/CodeSystem/v3-ActCode","code":"AMB","display":"ambulatory"},"type":[{"coding":[{"system":"http://snomed.info/sct","code":"182969009","display":"Dependent drug detoxification (regime/therapy)"}]}],"subject":{"reference":"Patient/fe1e8e8e-0d5a-40bb-93ca-28c808e5e2dd"},"period":{"start":"2025-11-14T00:00:00.000Z","end":"2025-11-14T01:15:00.000Z"}},"request":{"method":"PUT","url":"Encounter/615b9708-5fda-4656-bf53-b3c0d73ac827"}},{"fullUrl":"https://madie.cms.gov/Procedure/Procedure-11","resource":{"resourceType":"Procedure","id":"42e06974-d272-463c-bb36-71bc54d7d6cf","meta":{"profile":["http://hl7.org/fhir/us/qicore/StructureDefinition/qicore-procedure"]},"extension":[{"url":"http://hl7.org/fhir/us/qicore/StructureDefinition/qicore-recorded","valueDateTime":"2025-11-27T00:00:00.000Z"}],"status":"completed","code":{"coding":[{"system":"http://www.nlm.nih.gov/research/umls/hcpcs","code":"G2067","display":"Medication assisted treatment, methadone; weekly bundle including dispensing and/or administration, substance use counseling, individual and group therapy, and toxicology testing, if performed (provision of the services by a medicare-enrolled opioid treatment program)"}]},"subject":{"reference":"Patient/fe1e8e8e-0d5a-40bb-93ca-28c808e5e2dd"},"performedPeriod":{"start":"2025-11-27T00:00:00.000Z","end":"2025-11-27T01:00:00.000Z"}},"request":{"method":"PUT","url":"Procedure/42e06974-d272-463c-bb36-71bc54d7d6cf"}},{"fullUrl":"https://madie.cms.gov/Procedure/Procedure-11.1","resource":{"resourceType":"Procedure","id":"702f3bf8-d96b-46d1-b3be-2d34149c99f6","meta":{"profile":["http://hl7.org/fhir/us/qicore/StructureDefinition/qicore-procedure"]},"extension":[{"url":"http://hl7.org/fhir/us/qicore/StructureDefinition/qicore-recorded","valueDateTime":"2025-11-30T00:00:00.000Z"}],"status":"completed","code":{"coding":[{"system":"http://snomed.info/sct","code":"1254709001","display":"Referral to substance use disorder treatment program (procedure)"}]},"subject":{"reference":"Patient/fe1e8e8e-0d5a-40bb-93ca-28c808e5e2dd"},"performedPeriod":{"start":"2025-11-30T00:00:00.000Z","end":"2025-11-30T00:00:00.000Z"}},"request":{"method":"PUT","url":"Procedure/702f3bf8-d96b-46d1-b3be-2d34149c99f6"}},{"fullUrl":"https://madie.cms.gov/Procedure/Procedure-11.2","resource":{"resourceType":"Procedure","id":"0794ec69-6bdd-480f-a6d0-9ef9cc4f044a","meta":{"profile":["http://hl7.org/fhir/us/qicore/StructureDefinition/qicore-procedure"]},"extension":[{"url":"http://hl7.org/fhir/us/qicore/StructureDefinition/qicore-recorded","valueDateTime":"2025-12-01T00:00:00.000Z"}],"status":"completed","code":{"coding":[{"system":"http://snomed.info/sct","code":"1254709001","display":"Referral to substance use disorder treatment program (procedure)"}]},"subject":{"reference":"Patient/fe1e8e8e-0d5a-40bb-93ca-28c808e5e2dd"},"performedPeriod":{"start":"2025-12-01T00:00:00.000Z","end":"2025-12-01T00:00:00.000Z"}},"request":{"method":"PUT","url":"Procedure/0794ec69-6bdd-480f-a6d0-9ef9cc4f044a"}},{"fullUrl":"https://madie.cms.gov/MeasureReport/b14fc06d-de8e-42e8-a29e-2c17da9e4fc1","resource":{"resourceType":"MeasureReport","id":"b14fc06d-de8e-42e8-a29e-2c17da9e4fc1","meta":{"profile":["http://hl7.org/fhir/us/cqfmeasures/StructureDefinition/test-case-cqfm"]},"contained":[{"resourceType":"Parameters","id":"a4f473ac-c018-4555-a1cb-146134f0142c-parameters","parameter":[{"name":"subject","valueString":"fe1e8e8e-0d5a-40bb-93ca-28c808e5e2dd"}]}],"extension":[{"url":"http://hl7.org/fhir/us/cqfmeasures/StructureDefinition/cqfm-inputParameters","valueReference":{"reference":"#a4f473ac-c018-4555-a1cb-146134f0142c-parameters"}},{"url":"http://hl7.org/fhir/us/cqfmeasures/StructureDefinition/cqfm-testCaseDescription","valueMarkdown":"Two short-acting SUD medication administration 34 days after the Initiation of Treatment for first SUD episode"}],"modifierExtension":[{"url":"http://hl7.org/fhir/us/cqfmeasures/StructureDefinition/cqfm-isTestCase","valueBoolean":true}],"status":"complete","type":"individual","measure":"https://madie.cms.gov/Measure/InitiationandEngagementofSubstanceUseDisorderTreatmentFHIR","period":{"start":"2025-01-01","end":"2025-12-31"},"group":[{"population":[{"code":{"coding":[{"system":"http://terminology.hl7.org/CodeSystem/measure-population","code":"initial-population","display":"Initial Population"}]},"count":1},{"code":{"coding":[{"system":"http://terminology.hl7.org/CodeSystem/measure-population","code":"denominator","display":"Denominator"}]},"count":1},{"code":{"coding":[{"system":"http://terminology.hl7.org/CodeSystem/measure-population","code":"denominator-exclusion","display":"Denominator Exclusion"}]},"count":0},{"code":{"coding":[{"system":"http://terminology.hl7.org/CodeSystem/measure-population","code":"numerator","display":"Numerator"}]},"count":1}]},{"population":[{"code":{"coding":[{"system":"http://terminology.hl7.org/CodeSystem/measure-population","code":"initial-population","display":"Initial Population"}]},"count":1},{"code":{"coding":[{"system":"http://terminology.hl7.org/CodeSystem/measure-population","code":"denominator","display":"Denominator"}]},"count":1},{"code":{"coding":[{"system":"http://terminology.hl7.org/CodeSystem/measure-population","code":"denominator-exclusion","display":"Denominator Exclusion"}]},"count":0},{"code":{"coding":[{"system":"http://terminology.hl7.org/CodeSystem/measure-population","code":"numerator","display":"Numerator"}]},"count":1}]}]},"request":{"method":"PUT","url":"MeasureReport/b14fc06d-de8e-42e8-a29e-2c17da9e4fc1"}}]}