{"resourceType":"Bundle","id":"tests-dd4cdfbe-a188-40b5-b4df-fd791b27ba67-bundle","type":"transaction","entry":[{"fullUrl":"https://madie.cms.gov/Patient/dd4cdfbe-a188-40b5-b4df-fd791b27ba67","resource":{"resourceType":"Patient","id":"dd4cdfbe-a188-40b5-b4df-fd791b27ba67","meta":{"profile":["http://hl7.org/fhir/us/qicore/StructureDefinition/qicore-patient"]},"extension":[{"url":"http://hl7.org/fhir/us/core/StructureDefinition/us-core-race","extension":[{"url":"ombCategory","valueCoding":{"system":"urn:oid:2.16.840.1.113883.6.238","code":"2028-9","display":"Asian","userSelected":true}},{"url":"text","valueString":"Asian"}]},{"url":"http://hl7.org/fhir/us/core/StructureDefinition/us-core-ethnicity","extension":[{"url":"ombCategory","valueCoding":{"system":"urn:oid:2.16.840.1.113883.6.238","code":"2135-2","display":"Hispanic or Latino","userSelected":true}},{"url":"text","valueString":"Hispanic or Latino"}]}],"identifier":[{"type":{"coding":[{"system":"http://terminology.hl7.org/CodeSystem/v2-0203","code":"MR"}]},"system":"http://hospital.smarthealthit.org","value":"999999995"}],"name":[{"family":"Bertha","given":["Betty"]}],"gender":"female","birthDate":"2012-01-01"},"request":{"method":"PUT","url":"Patient/dd4cdfbe-a188-40b5-b4df-fd791b27ba67"}},{"fullUrl":"https://madie.cms.gov/Condition/Condition-10","resource":{"resourceType":"Condition","id":"3e38a232-30c4-4bda-a721-0a1387c6756e","meta":{"profile":["http://hl7.org/fhir/us/qicore/StructureDefinition/qicore-condition"]},"clinicalStatus":{"coding":[{"system":"http://terminology.hl7.org/CodeSystem/condition-clinical","code":"active"}]},"category":[{"coding":[{"system":"http://terminology.hl7.org/CodeSystem/condition-category","code":"problem-list-item","display":"Problem List Item"}]}],"code":{"coding":[{"system":"http://hl7.org/fhir/sid/icd-10-cm","code":"F10.10","display":"Alcohol abuse, uncomplicated"}]},"subject":{"reference":"Patient/dd4cdfbe-a188-40b5-b4df-fd791b27ba67"},"onsetDateTime":"2025-01-01T00:00:00.000Z"},"request":{"method":"PUT","url":"Condition/3e38a232-30c4-4bda-a721-0a1387c6756e"}},{"fullUrl":"https://madie.cms.gov/Encounter/Encounter-10","resource":{"resourceType":"Encounter","id":"874bb87d-793b-40d7-888c-b806ab17beb3","meta":{"profile":["http://hl7.org/fhir/us/qicore/StructureDefinition/qicore-encounter"]},"status":"finished","class":{"system":"http://terminology.hl7.org/CodeSystem/v3-ActCode","code":"AMB","display":"ambulatory"},"type":[{"coding":[{"system":"http://snomed.info/sct","code":"182969009","display":"Dependent drug detoxification (regime/therapy)"}]}],"subject":{"reference":"Patient/dd4cdfbe-a188-40b5-b4df-fd791b27ba67"},"period":{"start":"2025-01-01T00:00:00.000Z","end":"2025-01-01T01:15:00.000Z"}},"request":{"method":"PUT","url":"Encounter/874bb87d-793b-40d7-888c-b806ab17beb3"}},{"fullUrl":"https://madie.cms.gov/Procedure/Procedure-10","resource":{"resourceType":"Procedure","id":"9377e0bb-1c8c-4f06-b229-d2dd99a4f42f","meta":{"profile":["http://hl7.org/fhir/us/qicore/StructureDefinition/qicore-procedure"]},"extension":[{"url":"http://hl7.org/fhir/us/qicore/StructureDefinition/qicore-recorded","valueDateTime":"2025-01-15T00:00:00.000Z"}],"status":"completed","code":{"coding":[{"system":"https://www.cms.gov/Medicare/Coding/HCPCSReleaseCodeSets","code":"G2067","display":"Medication assisted treatment, methadone; weekly bundle including dispensing and/or administration, substance use counseling, individual and group therapy, and toxicology testing, if performed (provision of the services by a medicare-enrolled opioid treatment program)"}]},"subject":{"reference":"Patient/dd4cdfbe-a188-40b5-b4df-fd791b27ba67"},"performedPeriod":{"start":"2025-01-15T00:00:00.000Z","end":"2025-01-15T01:00:00.000Z"}},"request":{"method":"PUT","url":"Procedure/9377e0bb-1c8c-4f06-b229-d2dd99a4f42f"}},{"fullUrl":"https://madie.cms.gov/MedicationRequest/MedicationRequest-10","resource":{"resourceType":"MedicationRequest","id":"3e185ae5-9c3b-4397-aeef-268a9d2927df","meta":{"profile":["http://hl7.org/fhir/us/qicore/StructureDefinition/qicore-medicationrequest"]},"status":"active","intent":"order","medicationCodeableConcept":{"coding":[{"system":"http://www.nlm.nih.gov/research/umls/rxnorm","code":"1010600","display":"buprenorphine 2 MG / naloxone 0.5 MG Sublingual Film"}]},"subject":{"reference":"Patient/dd4cdfbe-a188-40b5-b4df-fd791b27ba67"},"authoredOn":"2025-01-17T00:00:00.000Z","requester":{"reference":"Practitioner/example"},"dosageInstruction":[{"timing":{"repeat":{"boundsPeriod":{"start":"2025-02-17T00:00:00.000Z","end":"2025-02-17T00:00:00.000Z"}}}}]},"request":{"method":"PUT","url":"MedicationRequest/3e185ae5-9c3b-4397-aeef-268a9d2927df"}},{"fullUrl":"https://madie.cms.gov/Procedure/Procedure-10.2","resource":{"resourceType":"Procedure","id":"d7f0753a-f682-400e-986d-628fb77342c5","meta":{"profile":["http://hl7.org/fhir/us/qicore/StructureDefinition/qicore-procedure"]},"extension":[{"url":"http://hl7.org/fhir/us/qicore/StructureDefinition/qicore-recorded","valueDateTime":"2025-02-17T00:00:00.000Z"}],"status":"completed","code":{"coding":[{"system":"http://www.nlm.nih.gov/research/umls/hcpcs","code":"G2068","display":"Medication assisted treatment, buprenorphine (oral); weekly bundle including dispensing and/or administration, substance use counseling, individual and group therapy, and toxicology testing if performed (provision of the services by a medicare-enrolled opioid treatment program)"}]},"subject":{"reference":"Patient/dd4cdfbe-a188-40b5-b4df-fd791b27ba67"},"performedPeriod":{"start":"2025-02-17T00:00:00.000Z","end":"2025-02-17T01:00:00.000Z"}},"request":{"method":"PUT","url":"Procedure/d7f0753a-f682-400e-986d-628fb77342c5"}},{"fullUrl":"https://madie.cms.gov/MeasureReport/6153ff70-2701-4c64-8fa3-9b205a661ded","resource":{"resourceType":"MeasureReport","id":"6153ff70-2701-4c64-8fa3-9b205a661ded","meta":{"profile":["http://hl7.org/fhir/us/cqfmeasures/StructureDefinition/test-case-cqfm"]},"contained":[{"resourceType":"Parameters","id":"3d3bbd2b-e772-4f65-8e85-c252195e4b59-parameters","parameter":[{"name":"subject","valueString":"dd4cdfbe-a188-40b5-b4df-fd791b27ba67"}]}],"extension":[{"url":"http://hl7.org/fhir/us/cqfmeasures/StructureDefinition/cqfm-inputParameters","valueReference":{"reference":"#3d3bbd2b-e772-4f65-8e85-c252195e4b59-parameters"}},{"url":"http://hl7.org/fhir/us/cqfmeasures/StructureDefinition/cqfm-testCaseDescription","valueMarkdown":"Short Acting Medication Order engagement visit & engagement medication treatment event 35 days after Initiation of treatment for SUD episode. "}],"modifierExtension":[{"url":"http://hl7.org/fhir/us/cqfmeasures/StructureDefinition/cqfm-isTestCase","valueBoolean":true}],"status":"complete","type":"individual","measure":"https://madie.cms.gov/Measure/InitiationandEngagementofSubstanceUseDisorderTreatmentFHIR","period":{"start":"2025-01-01","end":"2025-12-31"},"group":[{"population":[{"code":{"coding":[{"system":"http://terminology.hl7.org/CodeSystem/measure-population","code":"initial-population","display":"Initial Population"}]},"count":1},{"code":{"coding":[{"system":"http://terminology.hl7.org/CodeSystem/measure-population","code":"denominator","display":"Denominator"}]},"count":1},{"code":{"coding":[{"system":"http://terminology.hl7.org/CodeSystem/measure-population","code":"denominator-exclusion","display":"Denominator Exclusion"}]},"count":0},{"code":{"coding":[{"system":"http://terminology.hl7.org/CodeSystem/measure-population","code":"numerator","display":"Numerator"}]},"count":0}]},{"population":[{"code":{"coding":[{"system":"http://terminology.hl7.org/CodeSystem/measure-population","code":"initial-population","display":"Initial Population"}]},"count":1},{"code":{"coding":[{"system":"http://terminology.hl7.org/CodeSystem/measure-population","code":"denominator","display":"Denominator"}]},"count":1},{"code":{"coding":[{"system":"http://terminology.hl7.org/CodeSystem/measure-population","code":"denominator-exclusion","display":"Denominator Exclusion"}]},"count":0},{"code":{"coding":[{"system":"http://terminology.hl7.org/CodeSystem/measure-population","code":"numerator","display":"Numerator"}]},"count":0}]}]},"request":{"method":"PUT","url":"MeasureReport/6153ff70-2701-4c64-8fa3-9b205a661ded"}}]}