{
  "resourceType": "Bundle",
  "id": "Patient-8-DENEXPass-AbxMeds1DayB4EDate",
  "type": "transaction",
  "entry": [ {
    "fullUrl": "https://madie.cms.gov/Patient/c8cf3084-8ed2-42e6-8ac7-ac63d27253e4",
    "resource": {
      "resourceType": "Patient",
      "id": "c8cf3084-8ed2-42e6-8ac7-ac63d27253e4",
      "meta": {
        "profile": [ "http://hl7.org/fhir/us/qicore/StructureDefinition/qicore-patient" ]
      },
      "extension": [ {
        "url": "http://hl7.org/fhir/us/core/StructureDefinition/us-core-race",
        "extension": [ {
          "url": "ombCategory",
          "valueCoding": {
            "system": "urn:oid:2.16.840.1.113883.6.238",
            "code": "2028-9",
            "display": "Asian"
          }
        }, {
          "url": "text",
          "valueString": "Asian"
        } ]
      }, {
        "url": "http://hl7.org/fhir/us/core/StructureDefinition/us-core-ethnicity",
        "extension": [ {
          "url": "ombCategory",
          "valueCoding": {
            "system": "urn:oid:2.16.840.1.113883.6.238",
            "code": "2135-2",
            "display": "Hispanic or Latino"
          }
        }, {
          "url": "text",
          "valueString": "Hispanic or Latino"
        } ]
      } ],
      "identifier": [ {
        "system": "http://hospital.smarthealthit.org",
        "value": "999999995"
      } ],
      "name": [ {
        "family": "Bertha",
        "given": [ "Betty" ]
      } ],
      "gender": "female",
      "birthDate": "2024-10-01"
    },
    "request": {
      "method": "POST",
      "url": "Patient/c8cf3084-8ed2-42e6-8ac7-ac63d27253e4"
    }
  }, {
    "fullUrl": "https://madie.cms.gov/Encounter/Encounter-12",
    "resource": {
      "resourceType": "Encounter",
      "id": "Encounter-12",
      "meta": {
        "profile": [ "http://hl7.org/fhir/us/qicore/StructureDefinition/qicore-encounter" ]
      },
      "status": "finished",
      "class": {
        "system": "http://terminology.hl7.org/CodeSystem/v3-ActCode",
        "code": "AMB",
        "display": "ambulatory"
      },
      "type": [ {
        "coding": [ {
          "system": "http://www.ama-assn.org/go/cpt",
          "version": "2023",
          "code": "99455",
          "display": "Work related or medical disability examination by the treating physician that includes: Completion of a medical history commensurate with the patient's condition; Performance of an examination commensurate with the patient's condition; Formulation of a diagnosis, assessment of capabilities and stability, and calculation of impairment; Development of future medical treatment plan; and Completion of necessary documentation/certificates and report."
        } ]
      } ],
      "subject": {
        "reference": "Patient/c8cf3084-8ed2-42e6-8ac7-ac63d27253e4"
      },
      "period": {
        "start": "2025-01-02T00:00:00.000Z",
        "end": "2025-01-02T01:15:00.000Z"
      }
    },
    "request": {
      "method": "POST",
      "url": "Encounter/Encounter-12"
    }
  }, {
    "fullUrl": "https://madie.cms.gov/Condition/Condition-11",
    "resource": {
      "resourceType": "Condition",
      "id": "Condition-11",
      "meta": {
        "profile": [ "http://hl7.org/fhir/us/qicore/StructureDefinition/qicore-condition" ]
      },
      "clinicalStatus": {
        "coding": [ {
          "system": "http://terminology.hl7.org/CodeSystem/condition-clinical",
          "code": "active"
        } ]
      },
      "category": [ {
        "coding": [ {
          "system": "http://terminology.hl7.org/CodeSystem/condition-category",
          "code": "problem-list-item",
          "display": "Problem List Item"
        } ]
      } ],
      "code": {
        "coding": [ {
          "system": "http://snomed.info/sct",
          "code": "54398005",
          "display": "Acute upper respiratory infection (disorder)"
        } ]
      },
      "subject": {
        "reference": "Patient/c8cf3084-8ed2-42e6-8ac7-ac63d27253e4"
      },
      "onsetDateTime": "2025-01-02T01:00:00.000Z"
    },
    "request": {
      "method": "POST",
      "url": "Condition/Condition-11"
    }
  }, {
    "fullUrl": "https://madie.cms.gov/MedicationRequest/MedicationRequest-1",
    "resource": {
      "resourceType": "MedicationRequest",
      "id": "MedicationRequest-1",
      "meta": {
        "profile": [ "http://hl7.org/fhir/us/qicore/StructureDefinition/qicore-medicationrequest" ]
      },
      "status": "active",
      "intent": "order",
      "category": [ {
        "coding": [ {
          "system": "http://terminology.hl7.org/CodeSystem/medicationrequest-category",
          "code": "discharge",
          "display": "Discharge"
        } ]
      } ],
      "medicationCodeableConcept": {
        "coding": [ {
          "system": "http://www.nlm.nih.gov/research/umls/rxnorm",
          "code": "1043022",
          "display": "cefixime 100 MG Chewable Tablet",
          "userSelected": true
        } ]
      },
      "subject": {
        "reference": "Patient/c8cf3084-8ed2-42e6-8ac7-ac63d27253e4"
      },
      "authoredOn": "2024-12-03T00:00:00.000Z",
      "dosageInstruction": [ {
        "timing": {
          "repeat": {
            "boundsPeriod": {
              "start": "2024-12-03T00:00:00.000Z",
              "end": "2025-01-01T00:00:00.000Z"
            }
          }
        }
      } ]
    },
    "request": {
      "method": "POST",
      "url": "MedicationRequest/MedicationRequest-1"
    }
  }, {
    "fullUrl": "https://madie.cms.gov/MeasureReport/39a0d792-8043-4ea3-a0b4-95de876e5754",
    "resource": {
      "resourceType": "MeasureReport",
      "id": "39a0d792-8043-4ea3-a0b4-95de876e5754",
      "meta": {
        "profile": [ "http://hl7.org/fhir/us/cqfmeasures/StructureDefinition/test-case-cqfm" ]
      },
      "contained": [ {
        "resourceType": "Parameters",
        "id": "39350f93-6571-463c-98f0-4d308cf94175-parameters",
        "parameter": [ {
          "name": "subject",
          "valueString": "c8cf3084-8ed2-42e6-8ac7-ac63d27253e4"
        } ]
      } ],
      "extension": [ {
        "url": "http://hl7.org/fhir/us/cqfmeasures/StructureDefinition/cqfm-inputParameters",
        "valueReference": {
          "reference": "#39350f93-6571-463c-98f0-4d308cf94175-parameters"
        }
      }, {
        "url": "http://hl7.org/fhir/us/cqfmeasures/StructureDefinition/cqfm-testCaseDescription",
        "valueMarkdown": "Antibiotic meds requested 1 dat before episode date"
      } ],
      "modifierExtension": [ {
        "url": "http://hl7.org/fhir/us/cqfmeasures/StructureDefinition/cqfm-isTestCase",
        "valueBoolean": true
      } ],
      "status": "complete",
      "type": "individual",
      "measure": "https://madie.cms.gov/Measure/AppropriateTreatmentforUpperRespiratoryInfectionURIFHIR",
      "period": {
        "start": "2025-01-01",
        "end": "2025-12-31"
      },
      "group": [ {
        "population": [ {
          "code": {
            "coding": [ {
              "system": "http://terminology.hl7.org/CodeSystem/measure-population",
              "code": "initial-population",
              "display": "Initial Population"
            } ]
          },
          "count": 1
        }, {
          "code": {
            "coding": [ {
              "system": "http://terminology.hl7.org/CodeSystem/measure-population",
              "code": "denominator",
              "display": "Denominator"
            } ]
          },
          "count": 1
        }, {
          "code": {
            "coding": [ {
              "system": "http://terminology.hl7.org/CodeSystem/measure-population",
              "code": "denominator-exclusion",
              "display": "Denominator Exclusion"
            } ]
          },
          "count": 1
        }, {
          "code": {
            "coding": [ {
              "system": "http://terminology.hl7.org/CodeSystem/measure-population",
              "code": "numerator",
              "display": "Numerator"
            } ]
          },
          "count": 0
        } ]
      } ],
      "evaluatedResource": [ {
        "reference": "https://madie.cms.gov/Patient/c8cf3084-8ed2-42e6-8ac7-ac63d27253e4"
      }, {
        "reference": "https://madie.cms.gov/Encounter/Encounter-12"
      }, {
        "reference": "https://madie.cms.gov/Condition/Condition-11"
      }, {
        "reference": "https://madie.cms.gov/MedicationRequest/MedicationRequest-1"
      } ]
    },
    "request": {
      "method": "POST",
      "url": "MeasureReport/39a0d792-8043-4ea3-a0b4-95de876e5754"
    }
  } ]
}