{
  "resourceType": "Bundle",
  "id": "NUMFail-FlourideAppProcsJan1AfterMP",
  "type": "transaction",
  "entry": [ {
    "fullUrl": "https://madie.cms.gov/Patient/3d962304-b248-4e8b-9e42-b382a5b4754c",
    "resource": {
      "resourceType": "Patient",
      "id": "3d962304-b248-4e8b-9e42-b382a5b4754c",
      "meta": {
        "profile": [ "http://hl7.org/fhir/us/qicore/StructureDefinition/qicore-patient" ]
      },
      "extension": [ {
        "url": "http://hl7.org/fhir/us/core/StructureDefinition/us-core-race",
        "extension": [ {
          "url": "ombCategory",
          "valueCoding": {
            "system": "urn:oid:2.16.840.1.113883.6.238",
            "code": "2028-9",
            "display": "Asian"
          }
        }, {
          "url": "text",
          "valueString": "Asian"
        } ]
      }, {
        "url": "http://hl7.org/fhir/us/core/StructureDefinition/us-core-ethnicity",
        "extension": [ {
          "url": "ombCategory",
          "valueCoding": {
            "system": "urn:oid:2.16.840.1.113883.6.238",
            "code": "2135-2",
            "display": "Hispanic or Latino"
          }
        }, {
          "url": "text",
          "valueString": "Hispanic or Latino"
        } ]
      } ],
      "identifier": [ {
        "system": "http://hospital.smarthealthit.org",
        "value": "999999995"
      } ],
      "name": [ {
        "family": "Bertha",
        "given": [ "Betty" ]
      } ],
      "gender": "female",
      "birthDate": "2005-01-01"
    },
    "request": {
      "method": "POST",
      "url": "Patient/3d962304-b248-4e8b-9e42-b382a5b4754c"
    }
  }, {
    "fullUrl": "https://madie.cms.gov/Encounter/Encounter-12",
    "resource": {
      "resourceType": "Encounter",
      "id": "Encounter-12",
      "meta": {
        "profile": [ "http://hl7.org/fhir/us/qicore/StructureDefinition/qicore-encounter" ]
      },
      "status": "finished",
      "class": {
        "system": "http://terminology.hl7.org/CodeSystem/v3-ActCode",
        "code": "AMB",
        "display": "ambulatory"
      },
      "type": [ {
        "coding": [ {
          "system": "http://www.ada.org/cdt",
          "code": "D0120",
          "display": "periodic oral evaluation - established patient"
        } ]
      } ],
      "subject": {
        "reference": "Patient/3d962304-b248-4e8b-9e42-b382a5b4754c"
      },
      "period": {
        "start": "2025-01-01T00:00:00.000Z",
        "end": "2025-01-01T01:15:00.000Z"
      }
    },
    "request": {
      "method": "POST",
      "url": "Encounter/Encounter-12"
    }
  }, {
    "fullUrl": "https://madie.cms.gov/Procedure/Procedure-12",
    "resource": {
      "resourceType": "Procedure",
      "id": "Procedure-12",
      "meta": {
        "profile": [ "http://hl7.org/fhir/us/qicore/StructureDefinition/qicore-procedure" ]
      },
      "extension": [ {
        "url": "http://hl7.org/fhir/us/qicore/StructureDefinition/qicore-recorded",
        "valueDateTime": "2026-01-01T00:00:00.000Z"
      } ],
      "status": "completed",
      "code": {
        "coding": [ {
          "system": "http://snomed.info/sct",
          "code": "313042009",
          "display": "Application of dental fluoride varnish (procedure)"
        } ]
      },
      "subject": {
        "reference": "Patient/3d962304-b248-4e8b-9e42-b382a5b4754c"
      },
      "performedPeriod": {
        "start": "2026-01-01T00:00:00.000Z",
        "end": "2026-01-01T01:00:00.000Z"
      }
    },
    "request": {
      "method": "POST",
      "url": "Procedure/Procedure-12"
    }
  }, {
    "fullUrl": "https://madie.cms.gov/Procedure/Procedure-12.1",
    "resource": {
      "resourceType": "Procedure",
      "id": "Procedure-12.1",
      "meta": {
        "profile": [ "http://hl7.org/fhir/us/qicore/StructureDefinition/qicore-procedure" ]
      },
      "extension": [ {
        "url": "http://hl7.org/fhir/us/qicore/StructureDefinition/qicore-recorded",
        "valueDateTime": "2026-01-01T01:00:00.000Z"
      } ],
      "status": "completed",
      "code": {
        "coding": [ {
          "system": "http://snomed.info/sct",
          "code": "313042009",
          "display": "Application of dental fluoride varnish (procedure)"
        } ]
      },
      "subject": {
        "reference": "Patient/3d962304-b248-4e8b-9e42-b382a5b4754c"
      },
      "performedPeriod": {
        "start": "2026-01-01T00:00:00.000Z",
        "end": "2026-01-01T00:00:00.000Z"
      }
    },
    "request": {
      "method": "POST",
      "url": "Procedure/Procedure-12.1"
    }
  }, {
    "fullUrl": "https://madie.cms.gov/MeasureReport/0edb631c-05cd-42ac-9247-7803cdf0dd1b",
    "resource": {
      "resourceType": "MeasureReport",
      "id": "0edb631c-05cd-42ac-9247-7803cdf0dd1b",
      "meta": {
        "profile": [ "http://hl7.org/fhir/us/cqfmeasures/StructureDefinition/test-case-cqfm" ]
      },
      "contained": [ {
        "resourceType": "Parameters",
        "id": "97bdf9e0-a19a-494b-bc9b-98906477e152-parameters",
        "parameter": [ {
          "name": "subject",
          "valueString": "3d962304-b248-4e8b-9e42-b382a5b4754c"
        } ]
      } ],
      "extension": [ {
        "url": "http://hl7.org/fhir/us/cqfmeasures/StructureDefinition/cqfm-inputParameters",
        "valueReference": {
          "reference": "#97bdf9e0-a19a-494b-bc9b-98906477e152-parameters"
        }
      }, {
        "url": "http://hl7.org/fhir/us/cqfmeasures/StructureDefinition/cqfm-testCaseDescription",
        "valueMarkdown": "Patient 20yo w/ an Oral Evaluation Encounter 1/1 of the MP & 2 Flouride Application Procedures that end on 12/31 before the MP."
      } ],
      "modifierExtension": [ {
        "url": "http://hl7.org/fhir/us/cqfmeasures/StructureDefinition/cqfm-isTestCase",
        "valueBoolean": true
      } ],
      "status": "complete",
      "type": "individual",
      "measure": "https://madie.cms.gov/Measure/PrimaryCariesPreventionasOfferedbyDentistsFHIR",
      "period": {
        "start": "2025-01-01",
        "end": "2025-12-31"
      },
      "group": [ {
        "population": [ {
          "code": {
            "coding": [ {
              "system": "http://terminology.hl7.org/CodeSystem/measure-population",
              "code": "initial-population",
              "display": "Initial Population"
            } ]
          },
          "count": 1
        }, {
          "code": {
            "coding": [ {
              "system": "http://terminology.hl7.org/CodeSystem/measure-population",
              "code": "denominator",
              "display": "Denominator"
            } ]
          },
          "count": 1
        }, {
          "code": {
            "coding": [ {
              "system": "http://terminology.hl7.org/CodeSystem/measure-population",
              "code": "denominator-exclusion",
              "display": "Denominator Exclusion"
            } ]
          },
          "count": 0
        }, {
          "code": {
            "coding": [ {
              "system": "http://terminology.hl7.org/CodeSystem/measure-population",
              "code": "numerator",
              "display": "Numerator"
            } ]
          },
          "count": 0
        } ]
      } ],
      "evaluatedResource": [ {
        "reference": "https://madie.cms.gov/Patient/3d962304-b248-4e8b-9e42-b382a5b4754c"
      }, {
        "reference": "https://madie.cms.gov/Encounter/Encounter-12"
      }, {
        "reference": "https://madie.cms.gov/Procedure/Procedure-12"
      }, {
        "reference": "https://madie.cms.gov/Procedure/Procedure-12.1"
      } ]
    },
    "request": {
      "method": "POST",
      "url": "MeasureReport/0edb631c-05cd-42ac-9247-7803cdf0dd1b"
    }
  } ]
}