{"resourceType":"Bundle","id":"tests-d46ab51c-9b21-4b1c-b1dd-090c7f3e831a-bundle","type":"transaction","entry":[{"fullUrl":"https://madie.cms.gov/Patient/d46ab51c-9b21-4b1c-b1dd-090c7f3e831a","resource":{"resourceType":"Patient","id":"d46ab51c-9b21-4b1c-b1dd-090c7f3e831a","meta":{"profile":["http://hl7.org/fhir/us/qicore/StructureDefinition/qicore-patient"]},"extension":[{"url":"http://hl7.org/fhir/us/core/StructureDefinition/us-core-race","extension":[{"url":"ombCategory","valueCoding":{"system":"urn:oid:2.16.840.1.113883.6.238","code":"2028-9","display":"Asian","userSelected":true}},{"url":"text","valueString":"Asian"}]},{"url":"http://hl7.org/fhir/us/core/StructureDefinition/us-core-ethnicity","extension":[{"url":"ombCategory","valueCoding":{"system":"urn:oid:2.16.840.1.113883.6.238","code":"2135-2","display":"Hispanic or Latino","userSelected":true}},{"url":"text","valueString":"Hispanic or Latino"}]}],"identifier":[{"type":{"coding":[{"system":"http://terminology.hl7.org/CodeSystem/v2-0203","code":"MR"}]},"system":"http://hospital.smarthealthit.org","value":"999999995"}],"name":[{"family":"Bertha","given":["Betty"]}],"gender":"female","birthDate":"1954-12-31"},"request":{"method":"PUT","url":"Patient/d46ab51c-9b21-4b1c-b1dd-090c7f3e831a"}},{"fullUrl":"https://madie.cms.gov/Encounter/Encounter-1","resource":{"resourceType":"Encounter","id":"244fe68c-b19e-4562-86cc-cde26e0dc3b0","meta":{"profile":["http://hl7.org/fhir/us/qicore/StructureDefinition/qicore-encounter"]},"status":"finished","class":{"system":"http://terminology.hl7.org/CodeSystem/v3-ActCode","code":"AMB","display":"ambulatory"},"type":[{"coding":[{"system":"http://snomed.info/sct","code":"456201000124103","display":"Medicare annual wellness visit (procedure)"}]}],"subject":{"reference":"Patient/d46ab51c-9b21-4b1c-b1dd-090c7f3e831a"},"period":{"start":"2025-01-01T00:00:00.000Z","end":"2025-01-01T00:00:00.000Z"}},"request":{"method":"PUT","url":"Encounter/244fe68c-b19e-4562-86cc-cde26e0dc3b0"}},{"fullUrl":"https://madie.cms.gov/Condition/Condition-1","resource":{"resourceType":"Condition","id":"a1008748-3a11-4be7-88bf-19aef684f4b0","meta":{"profile":["http://hl7.org/fhir/us/qicore/StructureDefinition/qicore-condition"]},"clinicalStatus":{"coding":[{"system":"http://terminology.hl7.org/CodeSystem/condition-clinical","code":"active"}]},"category":[{"coding":[{"system":"http://terminology.hl7.org/CodeSystem/condition-category","code":"problem-list-item","display":"Problem List Item"}]}],"code":{"coding":[{"system":"http://snomed.info/sct","code":"102781000119107","display":"Sensory neuropathy due to type 1 diabetes mellitus (disorder)"}]},"subject":{"reference":"Patient/d46ab51c-9b21-4b1c-b1dd-090c7f3e831a"},"onsetDateTime":"2025-01-01T00:00:00.000Z"},"request":{"method":"PUT","url":"Condition/a1008748-3a11-4be7-88bf-19aef684f4b0"}},{"fullUrl":"https://madie.cms.gov/Encounter/Encounter-2","resource":{"resourceType":"Encounter","id":"8ea94017-7d5c-4d33-a585-d361aa24ec3d","meta":{"profile":["http://hl7.org/fhir/us/qicore/StructureDefinition/qicore-encounter"]},"status":"finished","class":{"system":"http://terminology.hl7.org/CodeSystem/v3-ActCode","code":"AMB","display":"ambulatory"},"type":[{"coding":[{"system":"http://snomed.info/sct","code":"305824005","display":"Seen by palliative care medicine service (finding)"}]}],"subject":{"reference":"Patient/d46ab51c-9b21-4b1c-b1dd-090c7f3e831a"},"period":{"start":"2025-01-01T00:00:00.000Z","end":"2025-01-01T01:00:00.000Z"}},"request":{"method":"PUT","url":"Encounter/8ea94017-7d5c-4d33-a585-d361aa24ec3d"}},{"fullUrl":"https://madie.cms.gov/MeasureReport/fca36680-38eb-4f88-a77a-a34ad2e364d4","resource":{"resourceType":"MeasureReport","id":"fca36680-38eb-4f88-a77a-a34ad2e364d4","meta":{"profile":["http://hl7.org/fhir/us/cqfmeasures/StructureDefinition/test-case-cqfm"]},"contained":[{"resourceType":"Parameters","id":"32a26385-3890-4f74-93e5-eab3edda66a1-parameters","parameter":[{"name":"subject","valueString":"d46ab51c-9b21-4b1c-b1dd-090c7f3e831a"}]}],"extension":[{"url":"http://hl7.org/fhir/us/cqfmeasures/StructureDefinition/cqfm-inputParameters","valueReference":{"reference":"#32a26385-3890-4f74-93e5-eab3edda66a1-parameters"}},{"url":"http://hl7.org/fhir/us/cqfmeasures/StructureDefinition/cqfm-testCaseDescription","valueMarkdown":"Palliative care encounter during the MP"}],"modifierExtension":[{"url":"http://hl7.org/fhir/us/cqfmeasures/StructureDefinition/cqfm-isTestCase","valueBoolean":true}],"status":"complete","type":"individual","measure":"https://madie.cms.gov/Measure/DiabetesEyeExamFHIR","period":{"start":"2025-01-01","end":"2025-12-31"},"group":[{"population":[{"code":{"coding":[{"system":"http://terminology.hl7.org/CodeSystem/measure-population","code":"initial-population","display":"Initial Population"}]},"count":1},{"code":{"coding":[{"system":"http://terminology.hl7.org/CodeSystem/measure-population","code":"denominator","display":"Denominator"}]},"count":1},{"code":{"coding":[{"system":"http://terminology.hl7.org/CodeSystem/measure-population","code":"denominator-exclusion","display":"Denominator Exclusion"}]},"count":1},{"code":{"coding":[{"system":"http://terminology.hl7.org/CodeSystem/measure-population","code":"numerator","display":"Numerator"}]},"count":0}]}]},"request":{"method":"PUT","url":"MeasureReport/fca36680-38eb-4f88-a77a-a34ad2e364d4"}}]}