{"resourceType":"Bundle","id":"tests-985b5e49-2f5d-4eb3-a33c-2d0eb156bf7b-bundle","type":"transaction","entry":[{"fullUrl":"https://madie.cms.gov/Patient/985b5e49-2f5d-4eb3-a33c-2d0eb156bf7b","resource":{"resourceType":"Patient","id":"985b5e49-2f5d-4eb3-a33c-2d0eb156bf7b","meta":{"profile":["http://hl7.org/fhir/us/qicore/StructureDefinition/qicore-patient"]},"extension":[{"url":"http://hl7.org/fhir/us/core/StructureDefinition/us-core-race","extension":[{"url":"ombCategory","valueCoding":{"system":"urn:oid:2.16.840.1.113883.6.238","code":"2028-9","display":"Asian","userSelected":true}},{"url":"text","valueString":"Asian"}]},{"url":"http://hl7.org/fhir/us/core/StructureDefinition/us-core-ethnicity","extension":[{"url":"ombCategory","valueCoding":{"system":"urn:oid:2.16.840.1.113883.6.238","code":"2135-2","display":"Hispanic or Latino","userSelected":true}},{"url":"text","valueString":"Hispanic or Latino"}]}],"identifier":[{"type":{"coding":[{"system":"http://terminology.hl7.org/CodeSystem/v2-0203","code":"MR"}]},"system":"http://hospital.smarthealthit.org","value":"999999995"}],"name":[{"family":"Bertha","given":["Betty"]}],"gender":"female","birthDate":"2007-12-31"},"request":{"method":"PUT","url":"Patient/985b5e49-2f5d-4eb3-a33c-2d0eb156bf7b"}},{"fullUrl":"https://madie.cms.gov/Encounter/Encounter-28","resource":{"resourceType":"Encounter","id":"188d5d6e-8820-466b-8849-98d968d41a34","meta":{"profile":["http://hl7.org/fhir/us/qicore/StructureDefinition/qicore-encounter"]},"status":"finished","class":{"system":"http://terminology.hl7.org/CodeSystem/v3-ActCode","code":"AMB","display":"ambulatory"},"type":[{"coding":[{"system":"http://snomed.info/sct","code":"185463005","display":"Visit out of hours (procedure)"}]}],"subject":{"reference":"Patient/985b5e49-2f5d-4eb3-a33c-2d0eb156bf7b"},"period":{"start":"2025-01-01T00:00:00.000Z","end":"2025-01-01T00:00:00.000Z"}},"request":{"method":"PUT","url":"Encounter/188d5d6e-8820-466b-8849-98d968d41a34"}},{"fullUrl":"https://madie.cms.gov/Condition/Condition-28","resource":{"resourceType":"Condition","id":"588baf36-a228-4ae4-bcd1-70233ac25751","meta":{"profile":["http://hl7.org/fhir/us/qicore/StructureDefinition/qicore-condition"]},"clinicalStatus":{"coding":[{"system":"http://terminology.hl7.org/CodeSystem/condition-clinical","code":"active"}]},"category":[{"coding":[{"system":"http://terminology.hl7.org/CodeSystem/condition-category","code":"problem-list-item","display":"Problem List Item"}]}],"code":{"coding":[{"system":"http://snomed.info/sct","code":"102781000119107","display":"Sensory neuropathy due to type 1 diabetes mellitus (disorder)"}]},"subject":{"reference":"Patient/985b5e49-2f5d-4eb3-a33c-2d0eb156bf7b"},"onsetDateTime":"2025-01-01T00:00:00.000Z"},"request":{"method":"PUT","url":"Condition/588baf36-a228-4ae4-bcd1-70233ac25751"}},{"fullUrl":"https://madie.cms.gov/Condition/Condition-28.1","resource":{"resourceType":"Condition","id":"eba490b4-e3a9-4a44-8ff8-33dc8e99ac33","meta":{"profile":["http://hl7.org/fhir/us/qicore/StructureDefinition/qicore-condition"]},"clinicalStatus":{"coding":[{"system":"http://terminology.hl7.org/CodeSystem/condition-clinical","code":"active"}]},"category":[{"coding":[{"system":"http://terminology.hl7.org/CodeSystem/condition-category","code":"problem-list-item","display":"Problem List Item"}]}],"code":{"coding":[{"system":"http://snomed.info/sct","code":"193349004","display":"Preproliferative retinopathy due to diabetes mellitus (disorder)"}]},"subject":{"reference":"Patient/985b5e49-2f5d-4eb3-a33c-2d0eb156bf7b"},"onsetDateTime":"2024-12-31T23:59:59.000Z"},"request":{"method":"PUT","url":"Condition/eba490b4-e3a9-4a44-8ff8-33dc8e99ac33"}},{"fullUrl":"https://madie.cms.gov/Observation/Observation-28","resource":{"resourceType":"Observation","id":"4efa37a5-570a-4868-9eb5-d2741bc134b9","meta":{"profile":["http://hl7.org/fhir/us/qicore/StructureDefinition/qicore-observation"]},"status":"final","category":[{"coding":[{"system":"http://terminology.hl7.org/CodeSystem/observation-category","code":"exam"}]}],"code":{"coding":[{"system":"http://snomed.info/sct","code":"252779009","display":"Single bright white flash electroretinography (procedure)"}]},"subject":{"reference":"Patient/985b5e49-2f5d-4eb3-a33c-2d0eb156bf7b"},"effectivePeriod":{"start":"2025-12-31T23:59:59.000Z","end":"2025-12-31T23:59:59.000Z"}},"request":{"method":"PUT","url":"Observation/4efa37a5-570a-4868-9eb5-d2741bc134b9"}},{"fullUrl":"https://madie.cms.gov/MeasureReport/3a5e39db-b8cd-4647-8066-61abce090577","resource":{"resourceType":"MeasureReport","id":"3a5e39db-b8cd-4647-8066-61abce090577","meta":{"profile":["http://hl7.org/fhir/us/cqfmeasures/StructureDefinition/test-case-cqfm"]},"contained":[{"resourceType":"Parameters","id":"99e29c0e-234a-45ab-9f42-4e469d1ffb30-parameters","parameter":[{"name":"subject","valueString":"985b5e49-2f5d-4eb3-a33c-2d0eb156bf7b"}]}],"extension":[{"url":"http://hl7.org/fhir/us/cqfmeasures/StructureDefinition/cqfm-inputParameters","valueReference":{"reference":"#99e29c0e-234a-45ab-9f42-4e469d1ffb30-parameters"}},{"url":"http://hl7.org/fhir/us/cqfmeasures/StructureDefinition/cqfm-testCaseDescription","valueMarkdown":"Patient 18yo w/ an Office Visit Encounter, Diabetes Condition ending 1/1 during the MP, and Retinopathy Condition 12/31 of the year before the MP, with an Eye Exam Observation 12/31 of the MP."}],"modifierExtension":[{"url":"http://hl7.org/fhir/us/cqfmeasures/StructureDefinition/cqfm-isTestCase","valueBoolean":true}],"status":"complete","type":"individual","measure":"https://madie.cms.gov/Measure/DiabetesEyeExamFHIR","period":{"start":"2025-01-01","end":"2025-12-31"},"group":[{"population":[{"code":{"coding":[{"system":"http://terminology.hl7.org/CodeSystem/measure-population","code":"initial-population","display":"Initial Population"}]},"count":1},{"code":{"coding":[{"system":"http://terminology.hl7.org/CodeSystem/measure-population","code":"denominator","display":"Denominator"}]},"count":1},{"code":{"coding":[{"system":"http://terminology.hl7.org/CodeSystem/measure-population","code":"denominator-exclusion","display":"Denominator Exclusion"}]},"count":0},{"code":{"coding":[{"system":"http://terminology.hl7.org/CodeSystem/measure-population","code":"numerator","display":"Numerator"}]},"count":1}]}]},"request":{"method":"PUT","url":"MeasureReport/3a5e39db-b8cd-4647-8066-61abce090577"}}]}