{"resourceType":"Bundle","id":"tests-b3af1243-c45d-4061-8d36-baa6de256376-bundle","type":"transaction","entry":[{"fullUrl":"https://madie.cms.gov/Patient/b3af1243-c45d-4061-8d36-baa6de256376","resource":{"resourceType":"Patient","id":"b3af1243-c45d-4061-8d36-baa6de256376","meta":{"profile":["http://hl7.org/fhir/us/qicore/StructureDefinition/qicore-patient"]},"extension":[{"url":"http://hl7.org/fhir/us/core/StructureDefinition/us-core-race","extension":[{"url":"ombCategory","valueCoding":{"system":"urn:oid:2.16.840.1.113883.6.238","code":"2028-9","display":"Asian","userSelected":true}},{"url":"text","valueString":"Asian"}]},{"url":"http://hl7.org/fhir/us/core/StructureDefinition/us-core-ethnicity","extension":[{"url":"ombCategory","valueCoding":{"system":"urn:oid:2.16.840.1.113883.6.238","code":"2135-2","display":"Hispanic or Latino","userSelected":true}},{"url":"text","valueString":"Hispanic or Latino"}]}],"identifier":[{"type":{"coding":[{"system":"http://terminology.hl7.org/CodeSystem/v2-0203","code":"MR"}]},"system":"http://hospital.smarthealthit.org","value":"999999995"}],"name":[{"family":"Bertha","given":["Betty"]}],"gender":"female","birthDate":"1954-12-31"},"request":{"method":"PUT","url":"Patient/b3af1243-c45d-4061-8d36-baa6de256376"}},{"fullUrl":"https://madie.cms.gov/Encounter/Encounter-1","resource":{"resourceType":"Encounter","id":"26388690-140e-4916-b255-68bffcc13269","meta":{"profile":["http://hl7.org/fhir/us/qicore/StructureDefinition/qicore-encounter"]},"status":"finished","class":{"system":"http://terminology.hl7.org/CodeSystem/v3-ActCode","code":"AMB","display":"ambulatory"},"type":[{"coding":[{"system":"http://snomed.info/sct","code":"456201000124103","display":"Medicare annual wellness visit (procedure)"}]}],"subject":{"reference":"Patient/b3af1243-c45d-4061-8d36-baa6de256376"},"period":{"start":"2025-01-01T00:00:00.000Z","end":"2025-01-01T00:00:00.000Z"}},"request":{"method":"PUT","url":"Encounter/26388690-140e-4916-b255-68bffcc13269"}},{"fullUrl":"https://madie.cms.gov/Condition/Condition-1","resource":{"resourceType":"Condition","id":"c5bd1fc1-08d2-4208-b56d-140d2fc3adc0","meta":{"profile":["http://hl7.org/fhir/us/qicore/StructureDefinition/qicore-condition"]},"clinicalStatus":{"coding":[{"system":"http://terminology.hl7.org/CodeSystem/condition-clinical","code":"active"}]},"category":[{"coding":[{"system":"http://terminology.hl7.org/CodeSystem/condition-category","code":"problem-list-item","display":"Problem List Item"}]}],"code":{"coding":[{"system":"http://snomed.info/sct","code":"102781000119107","display":"Sensory neuropathy due to type 1 diabetes mellitus (disorder)"}]},"subject":{"reference":"Patient/b3af1243-c45d-4061-8d36-baa6de256376"},"onsetDateTime":"2025-01-01T00:00:00.000Z"},"request":{"method":"PUT","url":"Condition/c5bd1fc1-08d2-4208-b56d-140d2fc3adc0"}},{"fullUrl":"https://madie.cms.gov/Condition/Condition-2","resource":{"resourceType":"Condition","id":"e08a0931-5b4f-459e-91d8-1066fef854a3","meta":{"profile":["http://hl7.org/fhir/us/qicore/StructureDefinition/qicore-condition"]},"clinicalStatus":{"coding":[{"system":"http://terminology.hl7.org/CodeSystem/condition-clinical","code":"active"}]},"category":[{"coding":[{"system":"http://terminology.hl7.org/CodeSystem/condition-category","code":"problem-list-item","display":"Problem List Item"}]}],"code":{"coding":[{"system":"http://snomed.info/sct","code":"441874000","display":"Seen by palliative care service (finding)"}]},"subject":{"reference":"Patient/b3af1243-c45d-4061-8d36-baa6de256376"},"onsetDateTime":"2024-12-31T23:59:59.000Z"},"request":{"method":"PUT","url":"Condition/e08a0931-5b4f-459e-91d8-1066fef854a3"}},{"fullUrl":"https://madie.cms.gov/MeasureReport/a78932b6-92f0-49ba-96d4-56dae6b8ea3a","resource":{"resourceType":"MeasureReport","id":"a78932b6-92f0-49ba-96d4-56dae6b8ea3a","meta":{"profile":["http://hl7.org/fhir/us/cqfmeasures/StructureDefinition/test-case-cqfm"]},"contained":[{"resourceType":"Parameters","id":"e2a004b6-c786-445e-a8cf-a375048e3c76-parameters","parameter":[{"name":"subject","valueString":"b3af1243-c45d-4061-8d36-baa6de256376"}]}],"extension":[{"url":"http://hl7.org/fhir/us/cqfmeasures/StructureDefinition/cqfm-inputParameters","valueReference":{"reference":"#e2a004b6-c786-445e-a8cf-a375048e3c76-parameters"}},{"url":"http://hl7.org/fhir/us/cqfmeasures/StructureDefinition/cqfm-testCaseDescription","valueMarkdown":"Palliative care diagnosis during the MP"}],"modifierExtension":[{"url":"http://hl7.org/fhir/us/cqfmeasures/StructureDefinition/cqfm-isTestCase","valueBoolean":true}],"status":"complete","type":"individual","measure":"https://madie.cms.gov/Measure/DiabetesEyeExamFHIR","period":{"start":"2025-01-01","end":"2025-12-31"},"group":[{"population":[{"code":{"coding":[{"system":"http://terminology.hl7.org/CodeSystem/measure-population","code":"initial-population","display":"Initial Population"}]},"count":1},{"code":{"coding":[{"system":"http://terminology.hl7.org/CodeSystem/measure-population","code":"denominator","display":"Denominator"}]},"count":1},{"code":{"coding":[{"system":"http://terminology.hl7.org/CodeSystem/measure-population","code":"denominator-exclusion","display":"Denominator Exclusion"}]},"count":1},{"code":{"coding":[{"system":"http://terminology.hl7.org/CodeSystem/measure-population","code":"numerator","display":"Numerator"}]},"count":0}]}]},"request":{"method":"PUT","url":"MeasureReport/a78932b6-92f0-49ba-96d4-56dae6b8ea3a"}}]}