{"resourceType":"Bundle","id":"tests-57858042-c2aa-49f4-b401-1f1fd9ab289a-bundle","type":"transaction","entry":[{"fullUrl":"https://madie.cms.gov/Patient/57858042-c2aa-49f4-b401-1f1fd9ab289a","resource":{"resourceType":"Patient","id":"57858042-c2aa-49f4-b401-1f1fd9ab289a","meta":{"profile":["http://hl7.org/fhir/us/qicore/StructureDefinition/qicore-patient"]},"extension":[{"url":"http://hl7.org/fhir/us/core/StructureDefinition/us-core-race","extension":[{"url":"ombCategory","valueCoding":{"system":"urn:oid:2.16.840.1.113883.6.238","code":"2054-5","display":"Black or African American","userSelected":true}},{"url":"text","valueString":"Black or African American"}]},{"url":"http://hl7.org/fhir/us/core/StructureDefinition/us-core-ethnicity","extension":[{"url":"ombCategory","valueCoding":{"system":"urn:oid:2.16.840.1.113883.6.238","code":"2186-5","display":"Not Hispanic or Latino","userSelected":true}},{"url":"text","valueString":"Not Hispanic or Latino"}]}],"identifier":[{"type":{"coding":[{"system":"http://terminology.hl7.org/CodeSystem/v2-0203","code":"MR"}]},"system":"https://bonnie-fhir.healthit.gov/","value":"62fbe009bf5132f90ee35d30"}],"name":[{"family":"DENEXPass","given":["DischargeToHomeHospiceCareDuringMP"]}],"gender":"male","birthDate":"1945-10-15"},"request":{"method":"PUT","url":"Patient/57858042-c2aa-49f4-b401-1f1fd9ab289a"}},{"fullUrl":"https://madie.cms.gov/Encounter/encounter-to-evaluate-bmi-533f","resource":{"resourceType":"Encounter","id":"88db78ce-4b9b-4cbd-aa62-f583e9625593","meta":{"profile":["http://hl7.org/fhir/us/qicore/StructureDefinition/qicore-encounter"]},"status":"finished","class":{"system":"http://terminology.hl7.org/CodeSystem/v3-ActCode","code":"AMB","display":"ambulatory"},"type":[{"coding":[{"system":"http://snomed.info/sct","version":"2022-03","code":"10197000","display":"Psychiatric interview and evaluation (procedure)","userSelected":true}]}],"subject":{"reference":"Patient/57858042-c2aa-49f4-b401-1f1fd9ab289a"},"period":{"start":"2025-12-31T23:30:00.000+00:00","end":"2025-12-31T23:59:00.000+00:00"}},"request":{"method":"PUT","url":"Encounter/88db78ce-4b9b-4cbd-aa62-f583e9625593"}},{"fullUrl":"https://madie.cms.gov/Observation/body-mass-index-bmi-ratio-5d32","resource":{"resourceType":"Observation","id":"5550e033-9dfe-4569-81ed-f21a383cdb89","meta":{"profile":["http://hl7.org/fhir/us/qicore/StructureDefinition/qicore-observation"]},"status":"corrected","category":[{"coding":[{"system":"http://terminology.hl7.org/CodeSystem/observation-category","code":"procedure","display":"Procedure"}]}],"code":{"coding":[{"system":"http://loinc.org","code":"39156-5","display":"Body mass index (BMI) [Ratio]","userSelected":true}]},"subject":{"reference":"Patient/57858042-c2aa-49f4-b401-1f1fd9ab289a"},"effectiveDateTime":"2025-12-31T23:59:00.000+00:00","valueQuantity":{"value":25.0,"unit":"kg/m2"}},"request":{"method":"PUT","url":"Observation/5550e033-9dfe-4569-81ed-f21a383cdb89"}},{"fullUrl":"https://madie.cms.gov/Procedure/follow-up-for-above-normal-bmi-5d34","resource":{"resourceType":"Procedure","id":"f9ad3640-770f-467f-b7e0-6a5de1c048fb","meta":{"profile":["http://hl7.org/fhir/us/qicore/StructureDefinition/qicore-procedure"]},"extension":[{"url":"http://hl7.org/fhir/us/qicore/StructureDefinition/qicore-recorded","valueDateTime":"2025-12-31T23:59:00.000+00:00"}],"status":"completed","code":{"coding":[{"system":"http://snomed.info/sct","version":"2022-03","code":"182922004","display":"Dietary regime (regime/therapy)","userSelected":true}]},"subject":{"reference":"Patient/57858042-c2aa-49f4-b401-1f1fd9ab289a"},"performedDateTime":"2025-12-31T23:59:00.000+00:00","reasonCode":[{"coding":[{"system":"http://hl7.org/fhir/sid/icd-10-cm","code":"E66.01","display":"Morbid (severe) obesity due to excess calories","userSelected":true}]}]},"request":{"method":"PUT","url":"Procedure/f9ad3640-770f-467f-b7e0-6a5de1c048fb"}},{"fullUrl":"https://madie.cms.gov/Encounter/encounter-inpatient-5d35","resource":{"resourceType":"Encounter","id":"8ce001ab-f4a7-4323-94f5-16d7501ca09f","meta":{"profile":["http://hl7.org/fhir/us/qicore/StructureDefinition/qicore-encounter"]},"status":"finished","class":{"system":"http://terminology.hl7.org/CodeSystem/v3-ActCode","code":"AMB","display":"ambulatory"},"type":[{"coding":[{"system":"http://snomed.info/sct","version":"2022-03","code":"183452005","display":"Emergency hospital admission (procedure)","userSelected":true}]}],"subject":{"reference":"Patient/57858042-c2aa-49f4-b401-1f1fd9ab289a"},"period":{"start":"2025-01-01T00:01:00.000+00:00","end":"2025-01-02T00:59:00.000+00:00"},"hospitalization":{"dischargeDisposition":{"coding":[{"system":"http://snomed.info/sct","code":"428361000124107","display":"Discharge to home for hospice care (procedure)","userSelected":true}]}}},"request":{"method":"PUT","url":"Encounter/8ce001ab-f4a7-4323-94f5-16d7501ca09f"}},{"fullUrl":"https://madie.cms.gov/Coverage/1","resource":{"resourceType":"Coverage","id":"0b71f9de-e11d-4af1-a091-0f999bfcfb58","meta":{"profile":["http://hl7.org/fhir/us/qicore/StructureDefinition/qicore-coverage"]},"status":"active","beneficiary":{"reference":"Patient/57858042-c2aa-49f4-b401-1f1fd9ab289a"},"payor":[{"reference":"Organization/26111c91-b0e2-476c-a20b-e3f39799f8f5"}]},"request":{"method":"PUT","url":"Coverage/0b71f9de-e11d-4af1-a091-0f999bfcfb58"}},{"fullUrl":"https://madie.cms.gov/Organization/123456","resource":{"resourceType":"Organization","id":"26111c91-b0e2-476c-a20b-e3f39799f8f5","meta":{"profile":["http://hl7.org/fhir/us/qicore/StructureDefinition/qicore-organization"]},"identifier":[{"use":"temp","system":"urn:oid:2.16.840.1.113883.4.4","value":"21-3259825"}],"active":true,"type":[{"coding":[{"system":"http://terminology.hl7.org/CodeSystem/organization-type","code":"pay","display":"Payer"}]}],"name":"Blue Cross Blue Shield of Texas","telecom":[{"system":"phone","value":"(+1) 972-766-6900"}],"address":[{"use":"billing","type":"postal","line":["P.O. Box 660044"],"city":"Dallas","state":"TX","postalCode":"75266-0044","country":"USA"}]},"request":{"method":"PUT","url":"Organization/26111c91-b0e2-476c-a20b-e3f39799f8f5"}},{"fullUrl":"https://madie.cms.gov/MeasureReport/b1363b9a-4a77-489d-b7ff-fcb118ab5c87","resource":{"resourceType":"MeasureReport","id":"b1363b9a-4a77-489d-b7ff-fcb118ab5c87","meta":{"profile":["http://hl7.org/fhir/us/cqfmeasures/StructureDefinition/test-case-cqfm"]},"contained":[{"resourceType":"Parameters","id":"9b13973f-33a0-4d44-926a-bd47b471f0ac-parameters","parameter":[{"name":"subject","valueString":"57858042-c2aa-49f4-b401-1f1fd9ab289a"}]}],"extension":[{"url":"http://hl7.org/fhir/us/cqfmeasures/StructureDefinition/cqfm-inputParameters","valueReference":{"reference":"#9b13973f-33a0-4d44-926a-bd47b471f0ac-parameters"}},{"url":"http://hl7.org/fhir/us/cqfmeasures/StructureDefinition/cqfm-testCaseDescription","valueMarkdown":"1 clinic enc, last day and last 29 minutes of the year, BMI 25 kg/m2\n 1 hospital enc. for which the patient was discharged to home hospice. "}],"modifierExtension":[{"url":"http://hl7.org/fhir/us/cqfmeasures/StructureDefinition/cqfm-isTestCase","valueBoolean":true}],"status":"complete","type":"individual","measure":"https://madie.cms.gov/Measure/PCSBMIScreenAndFollowUpFHIR","period":{"start":"2025-01-01","end":"2025-12-31"},"group":[{"population":[{"code":{"coding":[{"system":"http://terminology.hl7.org/CodeSystem/measure-population","code":"initial-population","display":"Initial Population"}]},"count":1},{"code":{"coding":[{"system":"http://terminology.hl7.org/CodeSystem/measure-population","code":"denominator","display":"Denominator"}]},"count":1},{"code":{"coding":[{"system":"http://terminology.hl7.org/CodeSystem/measure-population","code":"denominator-exclusion","display":"Denominator Exclusion"}]},"count":1},{"code":{"coding":[{"system":"http://terminology.hl7.org/CodeSystem/measure-population","code":"denominator-exception","display":"Denominator Exception"}]},"count":0},{"code":{"coding":[{"system":"http://terminology.hl7.org/CodeSystem/measure-population","code":"numerator","display":"Numerator"}]},"count":0}]}]},"request":{"method":"PUT","url":"MeasureReport/b1363b9a-4a77-489d-b7ff-fcb118ab5c87"}}]}