{
  "resourceType": "Bundle",
  "id": "62c880ec0111a60120dc21f6",
  "type": "transaction",
  "entry": [ {
    "fullUrl": "https://madie.cms.gov/Patient/338b6de7-9fdb-4e6b-a0cf-571459f31127",
    "resource": {
      "resourceType": "Patient",
      "id": "338b6de7-9fdb-4e6b-a0cf-571459f31127",
      "meta": {
        "profile": [ "http://hl7.org/fhir/us/qicore/StructureDefinition/qicore-patient" ]
      },
      "text": {
        "status": "generated",
        "div": "<div xmlns=\"http://www.w3.org/1999/xhtml\"><div class=\"hapiHeaderText\">PainAssess7DaysPriorRadTx<b>NUMERFailPop2</b></div><table class=\"hapiPropertyTable\"><tbody><tr><td>Identifier</td><td>c8dceba3c1a4e57c39b8866880103c78</td></tr><tr><td>Date of birth</td><td><span>25 April 1975</span></td></tr></tbody></table></div>"
      },
      "extension": [ {
        "url": "http://hl7.org/fhir/us/core/StructureDefinition/us-core-race",
        "extension": [ {
          "url": "ombCategory",
          "valueCoding": {
            "system": "urn:oid:2.16.840.1.113883.6.238",
            "code": "1002-5",
            "display": "American Indian or Alaska Native",
            "userSelected": true
          }
        }, {
          "url": "text",
          "valueString": "American Indian or Alaska Native"
        } ]
      }, {
        "url": "http://hl7.org/fhir/us/core/StructureDefinition/us-core-ethnicity",
        "extension": [ {
          "url": "ombCategory",
          "valueCoding": {
            "system": "urn:oid:2.16.840.1.113883.6.238",
            "code": "2135-2",
            "display": "Hispanic or Latino",
            "userSelected": true
          }
        }, {
          "url": "text",
          "valueString": "Hispanic or Latino"
        } ]
      } ],
      "identifier": [ {
        "type": {
          "coding": [ {
            "system": "http://terminology.hl7.org/CodeSystem/v2-0203",
            "code": "MR"
          } ]
        },
        "system": "https://bonnie-fhir.healthit.gov/",
        "value": "62c880ec0111a60120dc21f6"
      } ],
      "active": true,
      "name": [ {
        "use": "usual",
        "family": "NUMERFailPop2",
        "given": [ "PainAssess7DaysPriorRadTx" ]
      } ],
      "gender": "male",
      "birthDate": "1951-02-10"
    },
    "request": {
      "method": "POST",
      "url": "Patient/338b6de7-9fdb-4e6b-a0cf-571459f31127"
    }
  }, {
    "fullUrl": "https://madie.cms.gov/Observation/5e41c62ba9c22a0000b32af2",
    "resource": {
      "resourceType": "Observation",
      "id": "5e41c62ba9c22a0000b32af2",
      "meta": {
        "profile": [ "http://hl7.org/fhir/us/qicore/StructureDefinition/qicore-observation" ]
      },
      "status": "final",
      "category": [ {
        "coding": [ {
          "system": "http://terminology.hl7.org/CodeSystem/observation-category",
          "code": "survey",
          "display": "Survey"
        } ],
        "text": "Survey"
      } ],
      "code": {
        "coding": [ {
          "system": "http://loinc.org",
          "code": "38208-5"
        } ]
      },
      "subject": {
        "reference": "Patient/338b6de7-9fdb-4e6b-a0cf-571459f31127"
      },
      "effectiveDateTime": "2025-04-29T08:00:00.000Z",
      "valueInteger": 9
    },
    "request": {
      "method": "POST",
      "url": "Observation/5e41c62ba9c22a0000b32af2"
    }
  }, {
    "fullUrl": "https://madie.cms.gov/Condition/5ca52609b8484613a555a947",
    "resource": {
      "resourceType": "Condition",
      "id": "5ca52609b8484613a555a947",
      "meta": {
        "profile": [ "http://hl7.org/fhir/us/qicore/StructureDefinition/qicore-condition" ]
      },
      "clinicalStatus": {
        "coding": [ {
          "system": "http://terminology.hl7.org/CodeSystem/condition-clinical",
          "code": "active",
          "display": "Active",
          "userSelected": true
        } ]
      },
      "verificationStatus": {
        "coding": [ {
          "system": "http://terminology.hl7.org/CodeSystem/condition-ver-status",
          "code": "confirmed",
          "display": "Confirmed"
        } ]
      },
      "category": [ {
        "coding": [ {
          "system": "http://terminology.hl7.org/CodeSystem/condition-category",
          "code": "problem-list-item",
          "display": "Problem List Item"
        } ]
      } ],
      "code": {
        "coding": [ {
          "system": "http://snomed.info/sct",
          "code": "107691000119101"
        } ]
      },
      "subject": {
        "reference": "Patient/338b6de7-9fdb-4e6b-a0cf-571459f31127"
      },
      "onsetDateTime": "2021-05-06T10:45:00.000Z"
    },
    "request": {
      "method": "POST",
      "url": "Condition/5ca52609b8484613a555a947"
    }
  }, {
    "fullUrl": "https://madie.cms.gov/Coverage/60099ac71c76ba64612b0649",
    "resource": {
      "resourceType": "Coverage",
      "id": "60099ac71c76ba64612b0649",
      "meta": {
        "profile": [ "http://hl7.org/fhir/us/qicore/StructureDefinition/qicore-coverage" ]
      },
      "status": "active",
      "beneficiary": {
        "reference": "Patient/338b6de7-9fdb-4e6b-a0cf-571459f31127"
      },
      "period": {
        "start": "1975-04-25T08:00:00.000Z"
      },
      "payor": [ {
        "reference": "Organization/123456"
      } ]
    },
    "request": {
      "method": "POST",
      "url": "Coverage/60099ac71c76ba64612b0649"
    }
  }, {
    "fullUrl": "https://madie.cms.gov/Encounter/radiation-treatment-management-2794",
    "resource": {
      "resourceType": "Encounter",
      "id": "radiation-treatment-management-2794",
      "meta": {
        "profile": [ "http://hl7.org/fhir/us/qicore/StructureDefinition/qicore-encounter" ]
      },
      "status": "finished",
      "class": {
        "system": "http://terminology.hl7.org/CodeSystem/v3-ActCode",
        "code": "AMB",
        "display": "ambulatory",
        "userSelected": true
      },
      "type": [ {
        "coding": [ {
          "system": "http://www.ama-assn.org/go/cpt",
          "version": "2023",
          "code": "77427",
          "display": "Radiation treatment management, 5 treatments",
          "userSelected": true
        } ]
      } ],
      "subject": {
        "reference": "Patient/338b6de7-9fdb-4e6b-a0cf-571459f31127"
      },
      "period": {
        "start": "2025-05-06T12:45:00.000+00:00",
        "end": "2025-05-06T13:00:00.000+00:00"
      }
    },
    "request": {
      "method": "POST",
      "url": "Encounter/radiation-treatment-management-2794"
    }
  }, {
    "fullUrl": "https://madie.cms.gov/Organization/123456",
    "resource": {
      "resourceType": "Organization",
      "id": "123456",
      "meta": {
        "profile": [ "http://hl7.org/fhir/us/qicore/StructureDefinition/qicore-organization" ]
      },
      "identifier": [ {
        "use": "temp",
        "system": "urn:oid:2.16.840.1.113883.4.4",
        "value": "21-3259825"
      } ],
      "active": true,
      "type": [ {
        "coding": [ {
          "system": "http://terminology.hl7.org/CodeSystem/organization-type",
          "code": "pay",
          "display": "Payer"
        } ]
      } ],
      "name": "Blue Cross Blue Shield of Texas",
      "telecom": [ {
        "system": "phone",
        "value": "(+1) 972-766-6900"
      } ],
      "address": [ {
        "use": "billing",
        "type": "postal",
        "line": [ "P.O. Box 660044" ],
        "city": "Dallas",
        "state": "TX",
        "postalCode": "75266-0044",
        "country": "USA"
      } ]
    },
    "request": {
      "method": "POST",
      "url": "Organization/123456"
    }
  }, {
    "fullUrl": "https://madie.cms.gov/Practitioner/practitioner-123456",
    "resource": {
      "resourceType": "Practitioner",
      "id": "practitioner-123456",
      "meta": {
        "profile": [ "http://hl7.org/fhir/us/qicore/StructureDefinition/qicore-practitioner" ]
      },
      "identifier": [ {
        "system": "http://hl7.org/fhir/sid/us-npi",
        "value": "123456"
      } ],
      "name": [ {
        "family": "Evil",
        "prefix": [ "Dr" ]
      } ]
    },
    "request": {
      "method": "POST",
      "url": "Practitioner/practitioner-123456"
    }
  }, {
    "fullUrl": "https://madie.cms.gov/MeasureReport/7c5eee5c-9bcd-403d-bb0d-922744d0542e",
    "resource": {
      "resourceType": "MeasureReport",
      "id": "7c5eee5c-9bcd-403d-bb0d-922744d0542e",
      "meta": {
        "profile": [ "http://hl7.org/fhir/us/cqfmeasures/StructureDefinition/test-case-cqfm" ]
      },
      "contained": [ {
        "resourceType": "Parameters",
        "id": "5b88149e-b4c4-4f1b-a88e-7b5e6f76c5dc-parameters",
        "parameter": [ {
          "name": "subject",
          "valueString": "338b6de7-9fdb-4e6b-a0cf-571459f31127"
        } ]
      } ],
      "extension": [ {
        "url": "http://hl7.org/fhir/us/cqfmeasures/StructureDefinition/cqfm-inputParameters",
        "valueReference": {
          "reference": "#5b88149e-b4c4-4f1b-a88e-7b5e6f76c5dc-parameters"
        }
      }, {
        "url": "http://hl7.org/fhir/us/cqfmeasures/StructureDefinition/cqfm-testCaseDescription",
        "valueMarkdown": "Patient with cancer diagnosis that overlaps radiation treatment management during measurement period. Pain intensity assessment was performed 7 days before radiation treatment management.\n"
      } ],
      "modifierExtension": [ {
        "url": "http://hl7.org/fhir/us/cqfmeasures/StructureDefinition/cqfm-isTestCase",
        "valueBoolean": true
      } ],
      "status": "complete",
      "type": "individual",
      "measure": "https://madie.cms.gov/Measure/OncologyPainIntensityQuantifiedFHIR",
      "period": {
        "start": "2025-01-01",
        "end": "2025-12-31"
      },
      "group": [ {
        "population": [ {
          "code": {
            "coding": [ {
              "system": "http://terminology.hl7.org/CodeSystem/measure-population",
              "code": "initial-population",
              "display": "Initial Population"
            } ]
          },
          "count": 0
        }, {
          "code": {
            "coding": [ {
              "system": "http://terminology.hl7.org/CodeSystem/measure-population",
              "code": "denominator",
              "display": "Denominator"
            } ]
          },
          "count": 0
        }, {
          "code": {
            "coding": [ {
              "system": "http://terminology.hl7.org/CodeSystem/measure-population",
              "code": "numerator",
              "display": "Numerator"
            } ]
          },
          "count": 0
        } ]
      }, {
        "population": [ {
          "code": {
            "coding": [ {
              "system": "http://terminology.hl7.org/CodeSystem/measure-population",
              "code": "initial-population",
              "display": "Initial Population"
            } ]
          },
          "count": 1
        }, {
          "code": {
            "coding": [ {
              "system": "http://terminology.hl7.org/CodeSystem/measure-population",
              "code": "denominator",
              "display": "Denominator"
            } ]
          },
          "count": 1
        }, {
          "code": {
            "coding": [ {
              "system": "http://terminology.hl7.org/CodeSystem/measure-population",
              "code": "numerator",
              "display": "Numerator"
            } ]
          },
          "count": 0
        } ]
      } ],
      "evaluatedResource": [ {
        "reference": "https://madie.cms.gov/Patient/338b6de7-9fdb-4e6b-a0cf-571459f31127"
      }, {
        "reference": "https://madie.cms.gov/Observation/5e41c62ba9c22a0000b32af2"
      }, {
        "reference": "https://madie.cms.gov/Condition/5ca52609b8484613a555a947"
      }, {
        "reference": "https://madie.cms.gov/Coverage/60099ac71c76ba64612b0649"
      }, {
        "reference": "https://madie.cms.gov/Encounter/radiation-treatment-management-2794"
      }, {
        "reference": "https://madie.cms.gov/Organization/123456"
      }, {
        "reference": "https://madie.cms.gov/Practitioner/practitioner-123456"
      } ]
    },
    "request": {
      "method": "POST",
      "url": "MeasureReport/7c5eee5c-9bcd-403d-bb0d-922744d0542e"
    }
  } ]
}