{
  "resourceType": "Bundle",
  "id": "4646131313",
  "type": "transaction",
  "entry": [ {
    "fullUrl": "https://madie.cms.gov/Patient/7f62a1c0-a39c-41b7-98b6-5877db9755b0",
    "resource": {
      "resourceType": "Patient",
      "id": "7f62a1c0-a39c-41b7-98b6-5877db9755b0",
      "meta": {
        "profile": [ "http://hl7.org/fhir/us/qicore/StructureDefinition/qicore-patient" ]
      },
      "extension": [ {
        "url": "http://hl7.org/fhir/us/core/StructureDefinition/us-core-race",
        "extension": [ {
          "url": "ombCategory",
          "valueCoding": {
            "system": "urn:oid:2.16.840.1.113883.6.238",
            "code": "1002-5",
            "display": "American Indian or Alaska Native"
          }
        }, {
          "url": "text",
          "valueString": "American Indian or Alaska Native"
        } ]
      }, {
        "url": "http://hl7.org/fhir/us/core/StructureDefinition/us-core-ethnicity",
        "extension": [ {
          "url": "ombCategory",
          "valueCoding": {
            "system": "urn:oid:2.16.840.1.113883.6.238",
            "code": "2135-2",
            "display": "Hispanic or Latino"
          }
        }, {
          "url": "text",
          "valueString": "Hispanic or Latino"
        } ]
      } ],
      "identifier": [ {
        "type": {
          "coding": [ {
            "system": "http://terminology.hl7.org/CodeSystem/v2-0203",
            "code": "MR"
          } ]
        },
        "system": "https://bonnie-fhir.healthit.gov/",
        "value": "3513413131355"
      } ],
      "active": true,
      "name": [ {
        "use": "usual",
        "family": "NUMERFail",
        "given": [ "USSImprovementof2" ]
      } ],
      "gender": "male",
      "birthDate": "1947-02-19"
    },
    "request": {
      "method": "POST",
      "url": "Patient/7f62a1c0-a39c-41b7-98b6-5877db9755b0"
    }
  }, {
    "fullUrl": "https://madie.cms.gov/Observation/3163413131",
    "resource": {
      "resourceType": "Observation",
      "id": "3163413131",
      "meta": {
        "profile": [ "http://hl7.org/fhir/us/qicore/StructureDefinition/qicore-observation" ]
      },
      "status": "final",
      "category": [ {
        "coding": [ {
          "system": "http://terminology.hl7.org/CodeSystem/observation-category",
          "code": "survey",
          "display": "Survey"
        } ]
      } ],
      "code": {
        "coding": [ {
          "system": "http://loinc.org",
          "version": "2.76",
          "code": "80976-4"
        } ]
      },
      "subject": {
        "reference": "Patient/7f62a1c0-a39c-41b7-98b6-5877db9755b0"
      },
      "effectivePeriod": {
        "start": "2025-01-30T08:00:00.000+00:00"
      },
      "valueInteger": 12
    },
    "request": {
      "method": "POST",
      "url": "Observation/3163413131"
    }
  }, {
    "fullUrl": "https://madie.cms.gov/Observation/1341313213",
    "resource": {
      "resourceType": "Observation",
      "id": "1341313213",
      "meta": {
        "profile": [ "http://hl7.org/fhir/us/qicore/StructureDefinition/qicore-observation" ]
      },
      "status": "final",
      "category": [ {
        "coding": [ {
          "system": "http://terminology.hl7.org/CodeSystem/observation-category",
          "code": "survey",
          "display": "Survey"
        } ]
      } ],
      "code": {
        "coding": [ {
          "system": "http://loinc.org",
          "version": "2.76",
          "code": "80976-4"
        } ]
      },
      "subject": {
        "reference": "Patient/7f62a1c0-a39c-41b7-98b6-5877db9755b0"
      },
      "effectivePeriod": {
        "start": "2025-11-06T08:00:00.000+00:00"
      },
      "valueInteger": 10
    },
    "request": {
      "method": "POST",
      "url": "Observation/1341313213"
    }
  }, {
    "fullUrl": "https://madie.cms.gov/Condition/313465463153",
    "resource": {
      "resourceType": "Condition",
      "id": "313465463153",
      "meta": {
        "profile": [ "http://hl7.org/fhir/us/qicore/StructureDefinition/qicore-condition" ]
      },
      "clinicalStatus": {
        "coding": [ {
          "system": "http://terminology.hl7.org/CodeSystem/condition-clinical",
          "code": "resolved"
        } ]
      },
      "verificationStatus": {
        "coding": [ {
          "system": "http://terminology.hl7.org/CodeSystem/condition-ver-status",
          "code": "confirmed"
        } ]
      },
      "category": [ {
        "coding": [ {
          "system": "http://terminology.hl7.org/CodeSystem/condition-category",
          "code": "problem-list-item",
          "display": "Problem List Item"
        } ]
      } ],
      "code": {
        "coding": [ {
          "system": "http://hl7.org/fhir/sid/icd-10-cm",
          "version": "2024",
          "code": "Z68.42"
        } ]
      },
      "subject": {
        "reference": "Patient/7f62a1c0-a39c-41b7-98b6-5877db9755b0"
      },
      "onsetDateTime": "2023-02-28T08:00:00+00:00",
      "abatementDateTime": "2024-06-28T08:15:00+00:00"
    },
    "request": {
      "method": "POST",
      "url": "Condition/313465463153"
    }
  }, {
    "fullUrl": "https://madie.cms.gov/Condition/967964166163",
    "resource": {
      "resourceType": "Condition",
      "id": "967964166163",
      "meta": {
        "profile": [ "http://hl7.org/fhir/us/qicore/StructureDefinition/qicore-condition" ]
      },
      "clinicalStatus": {
        "coding": [ {
          "system": "http://terminology.hl7.org/CodeSystem/condition-clinical",
          "code": "active"
        } ]
      },
      "verificationStatus": {
        "coding": [ {
          "system": "http://terminology.hl7.org/CodeSystem/condition-ver-status",
          "code": "confirmed"
        } ]
      },
      "category": [ {
        "coding": [ {
          "system": "http://terminology.hl7.org/CodeSystem/condition-category",
          "code": "problem-list-item",
          "display": "Problem List Item"
        } ]
      } ],
      "code": {
        "coding": [ {
          "system": "http://hl7.org/fhir/sid/icd-10-cm",
          "version": "2024",
          "code": "N40.1"
        } ]
      },
      "subject": {
        "reference": "Patient/7f62a1c0-a39c-41b7-98b6-5877db9755b0"
      },
      "onsetPeriod": {
        "start": "2024-12-30T08:00:00.000+00:00"
      }
    },
    "request": {
      "method": "POST",
      "url": "Condition/967964166163"
    }
  }, {
    "fullUrl": "https://madie.cms.gov/Encounter/9741631631325",
    "resource": {
      "resourceType": "Encounter",
      "id": "9741631631325",
      "meta": {
        "profile": [ "http://hl7.org/fhir/us/qicore/StructureDefinition/qicore-encounter" ]
      },
      "status": "finished",
      "class": {
        "system": "http://terminology.hl7.org/CodeSystem/v3-ActCode",
        "code": "AMB",
        "display": "ambulatory"
      },
      "type": [ {
        "coding": [ {
          "system": "http://www.ama-assn.org/go/cpt",
          "version": "2024",
          "code": "99213"
        } ]
      } ],
      "subject": {
        "reference": "Patient/7f62a1c0-a39c-41b7-98b6-5877db9755b0"
      },
      "period": {
        "start": "2025-01-30T08:00:00+00:00",
        "end": "2025-01-30T08:15:00+00:00"
      }
    },
    "request": {
      "method": "POST",
      "url": "Encounter/9741631631325"
    }
  }, {
    "fullUrl": "https://madie.cms.gov/MeasureReport/4e89c91d-7596-4e31-9f65-9e75fbc73c99",
    "resource": {
      "resourceType": "MeasureReport",
      "id": "4e89c91d-7596-4e31-9f65-9e75fbc73c99",
      "meta": {
        "profile": [ "http://hl7.org/fhir/us/cqfmeasures/StructureDefinition/test-case-cqfm" ]
      },
      "contained": [ {
        "resourceType": "Parameters",
        "id": "aec8788d-7d08-424a-9cfd-e70d15025296-parameters",
        "parameter": [ {
          "name": "subject",
          "valueString": "7f62a1c0-a39c-41b7-98b6-5877db9755b0"
        } ]
      } ],
      "extension": [ {
        "url": "http://hl7.org/fhir/us/cqfmeasures/StructureDefinition/cqfm-inputParameters",
        "valueReference": {
          "reference": "#aec8788d-7d08-424a-9cfd-e70d15025296-parameters"
        }
      }, {
        "url": "http://hl7.org/fhir/us/cqfmeasures/StructureDefinition/cqfm-testCaseDescription",
        "valueMarkdown": "Male Patient with BPH Diagnosis and initial and followup assessments but with the followup assessment failing a symptom score improvement of 3 required for the numerator."
      } ],
      "modifierExtension": [ {
        "url": "http://hl7.org/fhir/us/cqfmeasures/StructureDefinition/cqfm-isTestCase",
        "valueBoolean": true
      } ],
      "status": "complete",
      "type": "individual",
      "measure": "https://madie.cms.gov/Measure/UrinarySymptomScoreChangeAfterBenignProstaticHyperplasiaFHIR",
      "period": {
        "start": "2025-01-01",
        "end": "2025-12-31"
      },
      "group": [ {
        "population": [ {
          "code": {
            "coding": [ {
              "system": "http://terminology.hl7.org/CodeSystem/measure-population",
              "code": "initial-population",
              "display": "Initial Population"
            } ]
          },
          "count": 1
        }, {
          "code": {
            "coding": [ {
              "system": "http://terminology.hl7.org/CodeSystem/measure-population",
              "code": "denominator",
              "display": "Denominator"
            } ]
          },
          "count": 1
        }, {
          "code": {
            "coding": [ {
              "system": "http://terminology.hl7.org/CodeSystem/measure-population",
              "code": "denominator-exclusion",
              "display": "Denominator Exclusion"
            } ]
          },
          "count": 0
        }, {
          "code": {
            "coding": [ {
              "system": "http://terminology.hl7.org/CodeSystem/measure-population",
              "code": "numerator",
              "display": "Numerator"
            } ]
          },
          "count": 0
        } ]
      } ],
      "evaluatedResource": [ {
        "reference": "https://madie.cms.gov/Patient/7f62a1c0-a39c-41b7-98b6-5877db9755b0"
      }, {
        "reference": "https://madie.cms.gov/Observation/3163413131"
      }, {
        "reference": "https://madie.cms.gov/Observation/1341313213"
      }, {
        "reference": "https://madie.cms.gov/Condition/313465463153"
      }, {
        "reference": "https://madie.cms.gov/Condition/967964166163"
      }, {
        "reference": "https://madie.cms.gov/Encounter/9741631631325"
      } ]
    },
    "request": {
      "method": "POST",
      "url": "MeasureReport/4e89c91d-7596-4e31-9f65-9e75fbc73c99"
    }
  } ]
}