{"resourceType":"Bundle","id":"tests-a938e0ff-51b3-4001-b33e-5fd2c00a9147-bundle","type":"transaction","entry":[{"fullUrl":"https://madie.cms.gov/Patient/a938e0ff-51b3-4001-b33e-5fd2c00a9147","resource":{"resourceType":"Patient","id":"a938e0ff-51b3-4001-b33e-5fd2c00a9147","meta":{"profile":["http://hl7.org/fhir/us/qicore/StructureDefinition/qicore-patient"]},"text":{"status":"generated","div":"<div xmlns=\"http://www.w3.org/1999/xhtml\"><div class=\"hapiHeaderText\">MedAntithromboticStart_eq0dayAtEdStart <b>NUMERPASS </b></div><table class=\"hapiPropertyTable\"><tbody><tr><td>Identifier</td><td>168b1b1f52f949d3490002df317e49f8</td></tr><tr><td>Date of birth</td><td><span>26 September 1975</span></td></tr></tbody></table></div>"},"extension":[{"url":"http://hl7.org/fhir/us/core/StructureDefinition/us-core-race","extension":[{"url":"ombCategory","valueCoding":{"system":"urn:oid:2.16.840.1.113883.6.238","code":"2054-5","display":"Black or African American","userSelected":true}},{"url":"text","valueString":"Black or African American"}]},{"url":"http://hl7.org/fhir/us/core/StructureDefinition/us-core-ethnicity","extension":[{"url":"ombCategory","valueCoding":{"system":"urn:oid:2.16.840.1.113883.6.238","code":"2186-5","display":"Not Hispanic or Latino","userSelected":true}},{"url":"text","valueString":"Not Hispanic or Latino"}]}],"identifier":[{"type":{"coding":[{"system":"http://terminology.hl7.org/CodeSystem/v2-0203","code":"MR"}]},"system":"https://bonnie-fhir.healthit.gov/","value":"60f82c2e98086b570510e28e"}],"active":true,"name":[{"use":"usual","family":"NUMERPass","given":["MedAntithromboticStart_eq0dayAtEdStart"]}],"gender":"female","birthDate":"1975-09-26"},"request":{"method":"PUT","url":"Patient/a938e0ff-51b3-4001-b33e-5fd2c00a9147"}},{"fullUrl":"https://madie.cms.gov/Encounter/5c954893b848462de0ae626f","resource":{"resourceType":"Encounter","id":"c9da298b-bc39-4f76-86c3-80f75a431dab","meta":{"profile":["http://hl7.org/fhir/us/qicore/StructureDefinition/qicore-encounter"]},"status":"finished","class":{"system":"http://terminology.hl7.org/CodeSystem/v3-ActCode","code":"EMER","display":"emergency"},"type":[{"coding":[{"system":"http://snomed.info/sct","code":"4525004"}]}],"subject":{"reference":"Patient/a938e0ff-51b3-4001-b33e-5fd2c00a9147"},"period":{"start":"2025-10-10T06:00:00+00:00","end":"2025-10-10T08:30:00+00:00"},"length":{"value":0,"unit":"days"}},"request":{"method":"PUT","url":"Encounter/c9da298b-bc39-4f76-86c3-80f75a431dab"}},{"fullUrl":"https://madie.cms.gov/Encounter/5c954893b848462de0ae6270","resource":{"resourceType":"Encounter","id":"89019cd8-e29b-4e4b-bb53-92e2117c0802","meta":{"profile":["http://hl7.org/fhir/us/qicore/StructureDefinition/qicore-encounter"]},"status":"finished","class":{"system":"http://terminology.hl7.org/CodeSystem/v3-ActCode","code":"IMP","display":"inpatient encounter"},"type":[{"coding":[{"system":"http://snomed.info/sct","code":"32485007"}]}],"subject":{"reference":"Patient/a938e0ff-51b3-4001-b33e-5fd2c00a9147"},"period":{"start":"2025-10-10T09:00:00+00:00","end":"2025-10-12T11:30:00+00:00"},"length":{"value":2,"unit":"days"},"diagnosis":[{"condition":{"reference":"Condition/ischemic-stroke-7d60"},"use":{"coding":[{"system":"http://terminology.hl7.org/CodeSystem/diagnosis-role","code":"billing","display":"Billing"}]},"rank":1}]},"request":{"method":"PUT","url":"Encounter/89019cd8-e29b-4e4b-bb53-92e2117c0802"}},{"fullUrl":"https://madie.cms.gov/MedicationAdministration/5c954893b848462de0ae6272","resource":{"resourceType":"MedicationAdministration","id":"c300c84c-e7c4-4cf7-b8bd-4a39885da043","meta":{"profile":["http://hl7.org/fhir/us/qicore/StructureDefinition/qicore-medicationadministration"]},"status":"completed","medicationCodeableConcept":{"coding":[{"system":"http://www.nlm.nih.gov/research/umls/rxnorm","code":"1037045"}]},"subject":{"reference":"Patient/a938e0ff-51b3-4001-b33e-5fd2c00a9147"},"effectivePeriod":{"start":"2025-10-10T06:00:00+00:00","end":"2025-10-10T07:20:00+00:00"}},"request":{"method":"PUT","url":"MedicationAdministration/c300c84c-e7c4-4cf7-b8bd-4a39885da043"}},{"fullUrl":"https://madie.cms.gov/Coverage/5e20a36d1c76ba6c5896ebf1","resource":{"resourceType":"Coverage","id":"c9c85ccb-2004-478e-b572-7be9c39a968b","status":"active","beneficiary":{"reference":"Patient/a938e0ff-51b3-4001-b33e-5fd2c00a9147"},"period":{"start":"1975-09-26T08:00:00+00:00"},"payor":[{"reference":"Organization/26111c91-b0e2-476c-a20b-e3f39799f8f5"}]},"request":{"method":"PUT","url":"Coverage/c9c85ccb-2004-478e-b572-7be9c39a968b"}},{"fullUrl":"https://madie.cms.gov/Condition/ischemic-stroke-7d60","resource":{"resourceType":"Condition","id":"bfce4233-d119-46e4-a51c-707a4a333f13","meta":{"profile":["http://hl7.org/fhir/us/qicore/StructureDefinition/qicore-condition"]},"clinicalStatus":{"coding":[{"system":"http://terminology.hl7.org/CodeSystem/condition-clinical","code":"active"}]},"verificationStatus":{"coding":[{"system":"http://terminology.hl7.org/CodeSystem/condition-ver-status","code":"confirmed"}]},"category":[{"coding":[{"system":"http://terminology.hl7.org/CodeSystem/condition-category","code":"encounter-diagnosis","display":"Encounter Diagnosis"}]}],"code":{"coding":[{"system":"http://snomed.info/sct","version":"2020-09","code":"111297002","display":"Nonparalytic stroke (disorder)","userSelected":true}]},"subject":{"reference":"Patient/a938e0ff-51b3-4001-b33e-5fd2c00a9147"},"recordedDate":"2025-08-16T08:00:00.000+00:00"},"request":{"method":"PUT","url":"Condition/bfce4233-d119-46e4-a51c-707a4a333f13"}},{"fullUrl":"https://madie.cms.gov/Organization/123456","resource":{"resourceType":"Organization","id":"26111c91-b0e2-476c-a20b-e3f39799f8f5","meta":{"profile":["http://hl7.org/fhir/us/qicore/StructureDefinition/qicore-organization"]},"identifier":[{"use":"temp","system":"urn:oid:2.16.840.1.113883.4.4","value":"21-3259825"}],"active":true,"type":[{"coding":[{"system":"http://terminology.hl7.org/CodeSystem/organization-type","code":"pay","display":"Payer"}]}],"name":"Blue Cross Blue Shield of Texas","telecom":[{"system":"phone","value":"(+1) 972-766-6900"}],"address":[{"use":"billing","type":"postal","line":["P.O. Box 660044"],"city":"Dallas","state":"TX","postalCode":"75266-0044","country":"USA"}]},"request":{"method":"PUT","url":"Organization/26111c91-b0e2-476c-a20b-e3f39799f8f5"}},{"fullUrl":"https://madie.cms.gov/Practitioner/practitioner-123456","resource":{"resourceType":"Practitioner","id":"94c1eebc-7673-4c7c-88c3-c3c9027b5259","identifier":[{"system":"http://hl7.org/fhir/sid/us-npi","value":"123456"}],"name":[{"family":"Evil","prefix":["Dr"]}]},"request":{"method":"PUT","url":"Practitioner/94c1eebc-7673-4c7c-88c3-c3c9027b5259"}},{"fullUrl":"https://madie.cms.gov/MeasureReport/e85d057e-ea1a-4154-af86-48dc032723a4","resource":{"resourceType":"MeasureReport","id":"e85d057e-ea1a-4154-af86-48dc032723a4","meta":{"profile":["http://hl7.org/fhir/us/cqfmeasures/StructureDefinition/test-case-cqfm"]},"contained":[{"resourceType":"Parameters","id":"4200cc74-6344-4116-bbe2-118a0d47a177-parameters","parameter":[{"name":"subject","valueString":"a938e0ff-51b3-4001-b33e-5fd2c00a9147"}]}],"extension":[{"url":"http://hl7.org/fhir/us/cqfmeasures/StructureDefinition/cqfm-inputParameters","valueReference":{"reference":"#4200cc74-6344-4116-bbe2-118a0d47a177-parameters"}},{"url":"http://hl7.org/fhir/us/cqfmeasures/StructureDefinition/cqfm-testCaseDescription","valueMarkdown":"\"Patient receives antithrombotic in the ED.MedAntithromboticStart EQ 0day at ED start\nglobal.\"\"Hospitalization\"\" =(Ed+IP)\"\n"}],"modifierExtension":[{"url":"http://hl7.org/fhir/us/cqfmeasures/StructureDefinition/cqfm-isTestCase","valueBoolean":true}],"status":"complete","type":"individual","measure":"https://madie.cms.gov/Measure/AntithromboticTherapyByEndofHospitalDay2FHIR","period":{"start":"2025-01-01","end":"2025-12-31"},"group":[{"population":[{"code":{"coding":[{"system":"http://terminology.hl7.org/CodeSystem/measure-population","code":"initial-population","display":"Initial Population"}]},"count":1},{"code":{"coding":[{"system":"http://terminology.hl7.org/CodeSystem/measure-population","code":"denominator","display":"Denominator"}]},"count":1},{"code":{"coding":[{"system":"http://terminology.hl7.org/CodeSystem/measure-population","code":"denominator-exclusion","display":"Denominator Exclusion"}]},"count":0},{"code":{"coding":[{"system":"http://terminology.hl7.org/CodeSystem/measure-population","code":"numerator","display":"Numerator"}]},"count":1},{"code":{"coding":[{"system":"http://terminology.hl7.org/CodeSystem/measure-population","code":"denominator-exception","display":"Denominator Exception"}]},"count":0}]}]},"request":{"method":"PUT","url":"MeasureReport/e85d057e-ea1a-4154-af86-48dc032723a4"}}]}