{"resourceType":"Bundle","id":"tests-cbe5f41b-754f-49d8-91c4-85823628ceff-bundle","type":"transaction","entry":[{"fullUrl":"https://madie.cms.gov/Patient/cbe5f41b-754f-49d8-91c4-85823628ceff","resource":{"resourceType":"Patient","id":"cbe5f41b-754f-49d8-91c4-85823628ceff","meta":{"profile":["http://hl7.org/fhir/us/qicore/StructureDefinition/qicore-patient"]},"identifier":[{"type":{"coding":[{"system":"http://terminology.hl7.org/CodeSystem/v2-0203","code":"MR"}]},"system":"https://bonnie-fhir.healthit.gov/","value":"60f82c2e98086b570510e281"}],"active":true,"name":[{"use":"usual","family":"DENEXPass","given":["ProcTPA=EDStart"]}],"gender":"female","birthDate":"1975-09-26"},"request":{"method":"PUT","url":"Patient/cbe5f41b-754f-49d8-91c4-85823628ceff"}},{"fullUrl":"https://madie.cms.gov/Encounter/5c954893b848462de0ae6245","resource":{"resourceType":"Encounter","id":"64222e5a-75ed-4392-8fcb-9e83872ad4f2","meta":{"profile":["http://hl7.org/fhir/us/qicore/StructureDefinition/qicore-encounter"]},"status":"finished","class":{"system":"http://terminology.hl7.org/CodeSystem/v3-ActCode","code":"EMER","display":"emergency"},"type":[{"coding":[{"system":"http://snomed.info/sct","code":"4525004"}]}],"subject":{"reference":"Patient/cbe5f41b-754f-49d8-91c4-85823628ceff"},"period":{"start":"2025-10-10T06:00:00+00:00","end":"2025-10-10T08:30:00+00:00"},"length":{"value":0,"unit":"days"}},"request":{"method":"PUT","url":"Encounter/64222e5a-75ed-4392-8fcb-9e83872ad4f2"}},{"fullUrl":"https://madie.cms.gov/Encounter/5c954893b848462de0ae6246","resource":{"resourceType":"Encounter","id":"d4c8ccf9-7e99-4bb8-86c0-704607eae06a","meta":{"profile":["http://hl7.org/fhir/us/qicore/StructureDefinition/qicore-encounter"]},"status":"finished","class":{"system":"http://terminology.hl7.org/CodeSystem/v3-ActCode","code":"IMP","display":"inpatient encounter"},"type":[{"coding":[{"system":"http://snomed.info/sct","code":"32485007"}]}],"subject":{"reference":"Patient/cbe5f41b-754f-49d8-91c4-85823628ceff"},"period":{"start":"2025-10-10T09:00:00+00:00","end":"2025-10-12T11:15:00+00:00"},"length":{"value":2,"unit":"days"},"diagnosis":[{"condition":{"reference":"Condition/ischemic-stroke-2d64"},"use":{"coding":[{"system":"http://terminology.hl7.org/CodeSystem/diagnosis-role","code":"billing","display":"Billing"}]},"rank":1}]},"request":{"method":"PUT","url":"Encounter/d4c8ccf9-7e99-4bb8-86c0-704607eae06a"}},{"fullUrl":"https://madie.cms.gov/Coverage/5e20a36b1c76ba6c5896ebe4","resource":{"resourceType":"Coverage","id":"2c638923-1286-46fd-818b-41cbf3203972","status":"active","beneficiary":{"reference":"Patient/cbe5f41b-754f-49d8-91c4-85823628ceff"},"period":{"start":"1975-09-26T08:00:00+00:00"},"payor":[{"reference":"Organization/26111c91-b0e2-476c-a20b-e3f39799f8f5"}]},"request":{"method":"PUT","url":"Coverage/2c638923-1286-46fd-818b-41cbf3203972"}},{"fullUrl":"https://madie.cms.gov/Condition/ischemic-stroke-2d64","resource":{"resourceType":"Condition","id":"8ab528aa-e7ac-4ef9-95d8-bbec270c615b","meta":{"profile":["http://hl7.org/fhir/us/qicore/StructureDefinition/qicore-condition"]},"clinicalStatus":{"coding":[{"system":"http://terminology.hl7.org/CodeSystem/condition-clinical","code":"active"}]},"verificationStatus":{"coding":[{"system":"http://terminology.hl7.org/CodeSystem/condition-ver-status","code":"confirmed"}]},"category":[{"coding":[{"system":"http://terminology.hl7.org/CodeSystem/condition-category","code":"encounter-diagnosis","display":"Encounter Diagnosis"}]}],"code":{"coding":[{"system":"http://snomed.info/sct","version":"2020-09","code":"111297002","display":"Nonparalytic stroke (disorder)","userSelected":true}]},"subject":{"reference":"Patient/cbe5f41b-754f-49d8-91c4-85823628ceff"},"recordedDate":"2025-10-12T11:15:00+00:00"},"request":{"method":"PUT","url":"Condition/8ab528aa-e7ac-4ef9-95d8-bbec270c615b"}},{"fullUrl":"https://madie.cms.gov/Procedure/5de5671c5b87f90000eaf09b","resource":{"resourceType":"Procedure","id":"692b4b32-14dd-4dc2-b7da-8a7e7b143296","meta":{"profile":["http://hl7.org/fhir/us/qicore/StructureDefinition/qicore-procedure"]},"extension":[{"url":"http://hl7.org/fhir/us/qicore/StructureDefinition/qicore-recorded","valueDateTime":"2025-10-10T06:00:00+00:00"}],"status":"completed","code":{"coding":[{"system":"http://snomed.info/sct","code":"307521008"}]},"subject":{"reference":"Patient/cbe5f41b-754f-49d8-91c4-85823628ceff"},"performedPeriod":{"start":"2025-10-10T06:00:00+00:00","end":"2025-10-10T08:30:00+00:00"}},"request":{"method":"PUT","url":"Procedure/692b4b32-14dd-4dc2-b7da-8a7e7b143296"}},{"fullUrl":"https://madie.cms.gov/Organization/123456","resource":{"resourceType":"Organization","id":"26111c91-b0e2-476c-a20b-e3f39799f8f5","meta":{"profile":["http://hl7.org/fhir/us/qicore/StructureDefinition/qicore-organization"]},"identifier":[{"use":"temp","system":"urn:oid:2.16.840.1.113883.4.4","value":"21-3259825"}],"active":true,"type":[{"coding":[{"system":"http://terminology.hl7.org/CodeSystem/organization-type","code":"pay","display":"Payer"}]}],"name":"Blue Cross Blue Shield of Texas","telecom":[{"system":"phone","value":"(+1) 972-766-6900"}],"address":[{"use":"billing","type":"postal","line":["P.O. Box 660044"],"city":"Dallas","state":"TX","postalCode":"75266-0044","country":"USA"}]},"request":{"method":"PUT","url":"Organization/26111c91-b0e2-476c-a20b-e3f39799f8f5"}},{"fullUrl":"https://madie.cms.gov/Practitioner/practitioner-123456","resource":{"resourceType":"Practitioner","id":"d6762454-d9a8-4377-b6a5-9a90ac27fbb7","identifier":[{"system":"http://hl7.org/fhir/sid/us-npi","value":"123456"}],"name":[{"family":"Evil","prefix":["Dr"]}]},"request":{"method":"PUT","url":"Practitioner/d6762454-d9a8-4377-b6a5-9a90ac27fbb7"}},{"fullUrl":"https://madie.cms.gov/MeasureReport/4a53ebdb-d789-4068-a06a-59debc7214fe","resource":{"resourceType":"MeasureReport","id":"4a53ebdb-d789-4068-a06a-59debc7214fe","meta":{"profile":["http://hl7.org/fhir/us/cqfmeasures/StructureDefinition/test-case-cqfm"]},"contained":[{"resourceType":"Parameters","id":"83f51f06-981f-4f1c-82c1-911930664631-parameters","parameter":[{"name":"subject","valueString":"cbe5f41b-754f-49d8-91c4-85823628ceff"}]}],"extension":[{"url":"http://hl7.org/fhir/us/cqfmeasures/StructureDefinition/cqfm-inputParameters","valueReference":{"reference":"#83f51f06-981f-4f1c-82c1-911930664631-parameters"}},{"url":"http://hl7.org/fhir/us/cqfmeasures/StructureDefinition/cqfm-testCaseDescription","valueMarkdown":"Patient has  Proc IV or IA TPA concurrent with start of ED encounter, global.\"Hospitalization\" =(Ed+IP)\n"}],"modifierExtension":[{"url":"http://hl7.org/fhir/us/cqfmeasures/StructureDefinition/cqfm-isTestCase","valueBoolean":true}],"status":"complete","type":"individual","measure":"https://madie.cms.gov/Measure/AntithromboticTherapyByEndofHospitalDay2FHIR","period":{"start":"2025-01-01","end":"2025-12-31"},"group":[{"population":[{"code":{"coding":[{"system":"http://terminology.hl7.org/CodeSystem/measure-population","code":"initial-population","display":"Initial Population"}]},"count":1},{"code":{"coding":[{"system":"http://terminology.hl7.org/CodeSystem/measure-population","code":"denominator","display":"Denominator"}]},"count":1},{"code":{"coding":[{"system":"http://terminology.hl7.org/CodeSystem/measure-population","code":"denominator-exclusion","display":"Denominator Exclusion"}]},"count":1},{"code":{"coding":[{"system":"http://terminology.hl7.org/CodeSystem/measure-population","code":"numerator","display":"Numerator"}]},"count":0},{"code":{"coding":[{"system":"http://terminology.hl7.org/CodeSystem/measure-population","code":"denominator-exception","display":"Denominator Exception"}]},"count":0}]}]},"request":{"method":"PUT","url":"MeasureReport/4a53ebdb-d789-4068-a06a-59debc7214fe"}}]}