{"resourceType":"Bundle","id":"tests-2ecbb381-211e-421a-8053-21c820f33043-bundle","type":"transaction","entry":[{"fullUrl":"https://madie.cms.gov/Patient/2ecbb381-211e-421a-8053-21c820f33043","resource":{"resourceType":"Patient","id":"2ecbb381-211e-421a-8053-21c820f33043","meta":{"profile":["http://hl7.org/fhir/us/qicore/StructureDefinition/qicore-patient"]},"text":{"status":"generated","div":"<div xmlns=\"http://www.w3.org/1999/xhtml\"><div class=\"hapiHeaderText\">INRDayOfObs_ED&gt;1hrDayOfObs&gt;1hrDayfAftBFEncDayAft <b>DENEXCEPASS </b></div><table class=\"hapiPropertyTable\"><tbody><tr><td>Identifier</td><td>f7acbb223a58f5593ca2d11d2158eb0a863b91e8c34fd0abd3cb6bbb0837b57c</td></tr><tr><td>Date of birth</td><td><span>26 September 1975</span></td></tr></tbody></table></div>"},"extension":[{"url":"http://hl7.org/fhir/us/core/StructureDefinition/us-core-race","extension":[{"url":"ombCategory","valueCoding":{"system":"urn:oid:2.16.840.1.113883.6.238","code":"2054-5","display":"Black or African American","userSelected":true}},{"url":"text","valueString":"Black or African American"}]},{"url":"http://hl7.org/fhir/us/core/StructureDefinition/us-core-ethnicity","extension":[{"url":"ombCategory","valueCoding":{"system":"urn:oid:2.16.840.1.113883.6.238","code":"2186-5","display":"Not Hispanic or Latino","userSelected":true}},{"url":"text","valueString":"Not Hispanic or Latino"}]}],"identifier":[{"type":{"coding":[{"system":"http://terminology.hl7.org/CodeSystem/v2-0203","code":"MR"}]},"system":"https://bonnie-fhir.healthit.gov/","value":"60f82c2f98086b570510e2ae"}],"active":true,"name":[{"use":"usual","family":"DENEXCEPass","given":["INRDayOfObs_ED>1hrDayOfObs>1hrDayfAftBFEncDayAft"]}],"gender":"female","birthDate":"1975-09-26"},"request":{"method":"PUT","url":"Patient/2ecbb381-211e-421a-8053-21c820f33043"}},{"fullUrl":"https://madie.cms.gov/Encounter/5c954894b848462de0ae62f0","resource":{"resourceType":"Encounter","id":"626b55e0-d9b3-4093-a5e6-e42d607ef81f","meta":{"profile":["http://hl7.org/fhir/us/qicore/StructureDefinition/qicore-encounter"]},"status":"finished","class":{"system":"http://terminology.hl7.org/CodeSystem/v3-ActCode","code":"EMER","display":"emergency","userSelected":true},"type":[{"coding":[{"system":"http://snomed.info/sct","code":"4525004"}]}],"subject":{"reference":"Patient/2ecbb381-211e-421a-8053-21c820f33043"},"period":{"start":"2025-10-10T06:15:00+00:00","end":"2025-10-10T23:59:00+00:00"},"length":{"value":0,"unit":"days"}},"request":{"method":"PUT","url":"Encounter/626b55e0-d9b3-4093-a5e6-e42d607ef81f"}},{"fullUrl":"https://madie.cms.gov/Encounter/5c954894b848462de0ae62f1","resource":{"resourceType":"Encounter","id":"ffe50e5d-0d93-4bad-a4fd-5f4d50baabe1","meta":{"profile":["http://hl7.org/fhir/us/qicore/StructureDefinition/qicore-encounter"]},"status":"finished","class":{"system":"http://terminology.hl7.org/CodeSystem/v3-ActCode","code":"OBSENC","display":"observation encounter","userSelected":true},"type":[{"coding":[{"system":"http://snomed.info/sct","code":"448851000124103"}]}],"subject":{"reference":"Patient/2ecbb381-211e-421a-8053-21c820f33043"},"period":{"start":"2025-10-11T01:00:00+00:00","end":"2025-10-11T01:59:00+00:00"},"length":{"value":0,"unit":"days"}},"request":{"method":"PUT","url":"Encounter/ffe50e5d-0d93-4bad-a4fd-5f4d50baabe1"}},{"fullUrl":"https://madie.cms.gov/Encounter/5c954894b848462de0ae62f2","resource":{"resourceType":"Encounter","id":"4c01de60-f382-46d4-b17a-38918fee979d","meta":{"profile":["http://hl7.org/fhir/us/qicore/StructureDefinition/qicore-encounter"]},"status":"finished","class":{"system":"http://terminology.hl7.org/CodeSystem/v3-ActCode","code":"IMP","display":"inpatient encounter","userSelected":true},"type":[{"coding":[{"system":"http://snomed.info/sct","code":"32485007"}]}],"subject":{"reference":"Patient/2ecbb381-211e-421a-8053-21c820f33043"},"period":{"start":"2025-10-11T03:00:00+00:00","end":"2025-10-15T11:30:00+00:00"},"length":{"value":4,"unit":"days"},"diagnosis":[{"condition":{"reference":"Condition/ischemic-stroke-9f18"},"use":{"coding":[{"system":"http://terminology.hl7.org/CodeSystem/diagnosis-role","code":"billing","display":"Billing"}]},"rank":1}]},"request":{"method":"PUT","url":"Encounter/4c01de60-f382-46d4-b17a-38918fee979d"}},{"fullUrl":"https://madie.cms.gov/Observation/5c954894b848462de0ae62f4","resource":{"resourceType":"Observation","id":"51e09cf9-cf82-41c0-9dd6-443483cfcce6","meta":{"profile":["http://hl7.org/fhir/us/qicore/StructureDefinition/qicore-observation"]},"status":"final","category":[{"coding":[{"system":"http://terminology.hl7.org/CodeSystem/observation-category","code":"laboratory","display":"Laboratory"}]}],"code":{"coding":[{"system":"http://loinc.org","code":"34714-6"}]},"subject":{"reference":"Patient/2ecbb381-211e-421a-8053-21c820f33043"},"effectivePeriod":{"start":"2025-10-11T08:00:00+00:00"},"issued":"2025-10-11T01:00:00.000+00:00","valueQuantity":{"value":3.6}},"request":{"method":"PUT","url":"Observation/51e09cf9-cf82-41c0-9dd6-443483cfcce6"}},{"fullUrl":"https://madie.cms.gov/Coverage/5e20a3711c76ba6c5896ec11","resource":{"resourceType":"Coverage","id":"fb5b70e5-dc3d-4709-b0c6-7ec41ca1a063","status":"active","beneficiary":{"reference":"Patient/2ecbb381-211e-421a-8053-21c820f33043"},"period":{"start":"1975-09-26T08:00:00+00:00"},"payor":[{"reference":"Organization/26111c91-b0e2-476c-a20b-e3f39799f8f5"}]},"request":{"method":"PUT","url":"Coverage/fb5b70e5-dc3d-4709-b0c6-7ec41ca1a063"}},{"fullUrl":"https://madie.cms.gov/Condition/ischemic-stroke-9f18","resource":{"resourceType":"Condition","id":"e212c969-da56-48ff-8ee1-cbd628e65af7","meta":{"profile":["http://hl7.org/fhir/us/qicore/StructureDefinition/qicore-condition"]},"clinicalStatus":{"coding":[{"system":"http://terminology.hl7.org/CodeSystem/condition-clinical","code":"active"}]},"verificationStatus":{"coding":[{"system":"http://terminology.hl7.org/CodeSystem/condition-ver-status","code":"confirmed"}]},"category":[{"coding":[{"system":"http://terminology.hl7.org/CodeSystem/condition-category","code":"encounter-diagnosis","display":"Encounter Diagnosis"}]}],"code":{"coding":[{"system":"http://snomed.info/sct","version":"2020-09","code":"111297002","display":"Nonparalytic stroke (disorder)","userSelected":true}]},"subject":{"reference":"Patient/2ecbb381-211e-421a-8053-21c820f33043"},"recordedDate":"2025-08-06T08:00:00.000+00:00"},"request":{"method":"PUT","url":"Condition/e212c969-da56-48ff-8ee1-cbd628e65af7"}},{"fullUrl":"https://madie.cms.gov/Organization/123456","resource":{"resourceType":"Organization","id":"26111c91-b0e2-476c-a20b-e3f39799f8f5","meta":{"profile":["http://hl7.org/fhir/us/qicore/StructureDefinition/qicore-organization"]},"identifier":[{"use":"temp","system":"urn:oid:2.16.840.1.113883.4.4","value":"21-3259825"}],"active":true,"type":[{"coding":[{"system":"http://terminology.hl7.org/CodeSystem/organization-type","code":"pay","display":"Payer"}]}],"name":"Blue Cross Blue Shield of Texas","telecom":[{"system":"phone","value":"(+1) 972-766-6900"}],"address":[{"use":"billing","type":"postal","line":["P.O. Box 660044"],"city":"Dallas","state":"TX","postalCode":"75266-0044","country":"USA"}]},"request":{"method":"PUT","url":"Organization/26111c91-b0e2-476c-a20b-e3f39799f8f5"}},{"fullUrl":"https://madie.cms.gov/MeasureReport/7f898783-13bb-48ab-b4ad-b1d3f554be8a","resource":{"resourceType":"MeasureReport","id":"7f898783-13bb-48ab-b4ad-b1d3f554be8a","meta":{"profile":["http://hl7.org/fhir/us/cqfmeasures/StructureDefinition/test-case-cqfm"]},"contained":[{"resourceType":"Parameters","id":"4be969b6-e446-4545-85bd-a1a1dfd44c76-parameters","parameter":[{"name":"subject","valueString":"2ecbb381-211e-421a-8053-21c820f33043"}]}],"extension":[{"url":"http://hl7.org/fhir/us/cqfmeasures/StructureDefinition/cqfm-inputParameters","valueReference":{"reference":"#4be969b6-e446-4545-85bd-a1a1dfd44c76-parameters"}},{"url":"http://hl7.org/fhir/us/cqfmeasures/StructureDefinition/cqfm-testCaseDescription","valueMarkdown":"Patient receives INR day of Obs, ED ends 61 min before Obs start at midnight, Obs ends 61 min before IP start. Testing Day of operator with HospitalizationWithObservation function.\n"}],"modifierExtension":[{"url":"http://hl7.org/fhir/us/cqfmeasures/StructureDefinition/cqfm-isTestCase","valueBoolean":true}],"status":"complete","type":"individual","measure":"https://madie.cms.gov/Measure/AntithromboticTherapyByEndofHospitalDay2FHIR","period":{"start":"2025-01-01","end":"2025-12-31"},"group":[{"population":[{"code":{"coding":[{"system":"http://terminology.hl7.org/CodeSystem/measure-population","code":"initial-population","display":"Initial Population"}]},"count":1},{"code":{"coding":[{"system":"http://terminology.hl7.org/CodeSystem/measure-population","code":"denominator","display":"Denominator"}]},"count":1},{"code":{"coding":[{"system":"http://terminology.hl7.org/CodeSystem/measure-population","code":"denominator-exclusion","display":"Denominator Exclusion"}]},"count":0},{"code":{"coding":[{"system":"http://terminology.hl7.org/CodeSystem/measure-population","code":"numerator","display":"Numerator"}]},"count":0},{"code":{"coding":[{"system":"http://terminology.hl7.org/CodeSystem/measure-population","code":"denominator-exception","display":"Denominator Exception"}]},"count":1}]}]},"request":{"method":"PUT","url":"MeasureReport/7f898783-13bb-48ab-b4ad-b1d3f554be8a"}}]}