{"resourceType":"Bundle","id":"tests-b569157b-b263-4b72-ab40-132bea1d8f71-bundle","type":"transaction","entry":[{"fullUrl":"https://madie.cms.gov/Patient/b569157b-b263-4b72-ab40-132bea1d8f71","resource":{"resourceType":"Patient","id":"b569157b-b263-4b72-ab40-132bea1d8f71","meta":{"profile":["http://hl7.org/fhir/us/qicore/StructureDefinition/qicore-patient"]},"text":{"status":"generated","div":"<div xmlns=\"http://www.w3.org/1999/xhtml\"><div class=\"hapiHeaderText\">MedAntithromboticStart_eq0dayDuringEncIP <b>NUMERPASS </b></div><table class=\"hapiPropertyTable\"><tbody><tr><td>Identifier</td><td>6aa79e9cebbde8275335fd99b030f3d5</td></tr><tr><td>Date of birth</td><td><span>26 September 1975</span></td></tr></tbody></table></div>"},"extension":[{"url":"http://hl7.org/fhir/us/core/StructureDefinition/us-core-race","extension":[{"url":"ombCategory","valueCoding":{"system":"urn:oid:2.16.840.1.113883.6.238","code":"2054-5","display":"Black or African American","userSelected":true}},{"url":"text","valueString":"Black or African American"}]},{"url":"http://hl7.org/fhir/us/core/StructureDefinition/us-core-ethnicity","extension":[{"url":"ombCategory","valueCoding":{"system":"urn:oid:2.16.840.1.113883.6.238","code":"2186-5","display":"Not Hispanic or Latino","userSelected":true}},{"url":"text","valueString":"Not Hispanic or Latino"}]}],"identifier":[{"type":{"coding":[{"system":"http://terminology.hl7.org/CodeSystem/v2-0203","code":"MR"}]},"system":"https://bonnie-fhir.healthit.gov/","value":"60f82c2d98086b570510e259"}],"active":true,"name":[{"use":"usual","family":"NUMERPass","given":["MedAntithromboticStart_eq0dayDuringEncIP "]}],"gender":"female","birthDate":"1975-09-26"},"request":{"method":"PUT","url":"Patient/b569157b-b263-4b72-ab40-132bea1d8f71"}},{"fullUrl":"https://madie.cms.gov/Encounter/5c954892b848462de0ae61bc","resource":{"resourceType":"Encounter","id":"83b6fae9-5357-45c0-aa42-1b2cb0fd09ab","meta":{"profile":["http://hl7.org/fhir/us/qicore/StructureDefinition/qicore-encounter"]},"status":"finished","class":{"system":"http://terminology.hl7.org/CodeSystem/v3-ActCode","code":"IMP","display":"inpatient encounter"},"type":[{"coding":[{"system":"http://snomed.info/sct","code":"32485007"}]}],"subject":{"reference":"Patient/b569157b-b263-4b72-ab40-132bea1d8f71"},"period":{"start":"2025-10-10T09:00:00+00:00","end":"2025-10-12T11:15:00+00:00"},"length":{"value":2,"unit":"days"},"diagnosis":[{"condition":{"reference":"Condition/ischemic-stroke-7d63"},"use":{"coding":[{"system":"http://terminology.hl7.org/CodeSystem/diagnosis-role","code":"billing","display":"Billing"}]},"rank":1}]},"request":{"method":"PUT","url":"Encounter/83b6fae9-5357-45c0-aa42-1b2cb0fd09ab"}},{"fullUrl":"https://madie.cms.gov/MedicationAdministration/5c954892b848462de0ae61be","resource":{"resourceType":"MedicationAdministration","id":"3e2d4cae-abfb-49d1-8c01-f25d24d2dd98","meta":{"profile":["http://hl7.org/fhir/us/qicore/StructureDefinition/qicore-medicationadministration"]},"status":"completed","medicationCodeableConcept":{"coding":[{"system":"http://www.nlm.nih.gov/research/umls/rxnorm","code":"1037045"}]},"subject":{"reference":"Patient/b569157b-b263-4b72-ab40-132bea1d8f71"},"effectivePeriod":{"start":"2025-10-11T11:00:00+00:00"}},"request":{"method":"PUT","url":"MedicationAdministration/3e2d4cae-abfb-49d1-8c01-f25d24d2dd98"}},{"fullUrl":"https://madie.cms.gov/Coverage/5e20a3671c76ba6c5896ebbc","resource":{"resourceType":"Coverage","id":"d43b5481-94ed-4fcf-8e63-e574a508c54c","status":"active","beneficiary":{"reference":"Patient/b569157b-b263-4b72-ab40-132bea1d8f71"},"period":{"start":"1975-09-26T08:00:00+00:00"},"payor":[{"reference":"Organization/26111c91-b0e2-476c-a20b-e3f39799f8f5"}]},"request":{"method":"PUT","url":"Coverage/d43b5481-94ed-4fcf-8e63-e574a508c54c"}},{"fullUrl":"https://madie.cms.gov/Condition/ischemic-stroke-7d63","resource":{"resourceType":"Condition","id":"17f58813-3cb1-4eb7-88c4-48e6ba5095df","meta":{"profile":["http://hl7.org/fhir/us/qicore/StructureDefinition/qicore-condition"]},"clinicalStatus":{"coding":[{"system":"http://terminology.hl7.org/CodeSystem/condition-clinical","code":"active"}]},"verificationStatus":{"coding":[{"system":"http://terminology.hl7.org/CodeSystem/condition-ver-status","code":"confirmed"}]},"category":[{"coding":[{"system":"http://terminology.hl7.org/CodeSystem/condition-category","code":"encounter-diagnosis","display":"Encounter Diagnosis"}]}],"code":{"coding":[{"system":"http://snomed.info/sct","version":"2020-09","code":"111297002","display":"Nonparalytic stroke (disorder)","userSelected":true}]},"subject":{"reference":"Patient/b569157b-b263-4b72-ab40-132bea1d8f71"},"recordedDate":"2025-08-16T08:00:00.000+00:00"},"request":{"method":"PUT","url":"Condition/17f58813-3cb1-4eb7-88c4-48e6ba5095df"}},{"fullUrl":"https://madie.cms.gov/Organization/123456","resource":{"resourceType":"Organization","id":"26111c91-b0e2-476c-a20b-e3f39799f8f5","meta":{"profile":["http://hl7.org/fhir/us/qicore/StructureDefinition/qicore-organization"]},"identifier":[{"use":"temp","system":"urn:oid:2.16.840.1.113883.4.4","value":"21-3259825"}],"active":true,"type":[{"coding":[{"system":"http://terminology.hl7.org/CodeSystem/organization-type","code":"pay","display":"Payer"}]}],"name":"Blue Cross Blue Shield of Texas","telecom":[{"system":"phone","value":"(+1) 972-766-6900"}],"address":[{"use":"billing","type":"postal","line":["P.O. Box 660044"],"city":"Dallas","state":"TX","postalCode":"75266-0044","country":"USA"}]},"request":{"method":"PUT","url":"Organization/26111c91-b0e2-476c-a20b-e3f39799f8f5"}},{"fullUrl":"https://madie.cms.gov/Practitioner/practitioner-123456","resource":{"resourceType":"Practitioner","id":"ea79d04b-bcf9-47f1-acd0-0a843704cb16","identifier":[{"system":"http://hl7.org/fhir/sid/us-npi","value":"123456"}],"name":[{"family":"Evil","prefix":["Dr"]}]},"request":{"method":"PUT","url":"Practitioner/ea79d04b-bcf9-47f1-acd0-0a843704cb16"}},{"fullUrl":"https://madie.cms.gov/MeasureReport/a224a654-a0e5-49c9-bb38-7d519ed53d8c","resource":{"resourceType":"MeasureReport","id":"a224a654-a0e5-49c9-bb38-7d519ed53d8c","meta":{"profile":["http://hl7.org/fhir/us/cqfmeasures/StructureDefinition/test-case-cqfm"]},"contained":[{"resourceType":"Parameters","id":"7e2b7526-c3dc-4953-8ecd-187646b0a735-parameters","parameter":[{"name":"subject","valueString":"b569157b-b263-4b72-ab40-132bea1d8f71"}]}],"extension":[{"url":"http://hl7.org/fhir/us/cqfmeasures/StructureDefinition/cqfm-inputParameters","valueReference":{"reference":"#7e2b7526-c3dc-4953-8ecd-187646b0a735-parameters"}},{"url":"http://hl7.org/fhir/us/cqfmeasures/StructureDefinition/cqfm-testCaseDescription","valueMarkdown":"\"Patient receives antithrombotic in = 0 day after IP encounter starts.\n global.\"\"Hospitalization\"\" =(IP)\"\n"}],"modifierExtension":[{"url":"http://hl7.org/fhir/us/cqfmeasures/StructureDefinition/cqfm-isTestCase","valueBoolean":true}],"status":"complete","type":"individual","measure":"https://madie.cms.gov/Measure/AntithromboticTherapyByEndofHospitalDay2FHIR","period":{"start":"2025-01-01","end":"2025-12-31"},"group":[{"population":[{"code":{"coding":[{"system":"http://terminology.hl7.org/CodeSystem/measure-population","code":"initial-population","display":"Initial Population"}]},"count":1},{"code":{"coding":[{"system":"http://terminology.hl7.org/CodeSystem/measure-population","code":"denominator","display":"Denominator"}]},"count":1},{"code":{"coding":[{"system":"http://terminology.hl7.org/CodeSystem/measure-population","code":"denominator-exclusion","display":"Denominator Exclusion"}]},"count":0},{"code":{"coding":[{"system":"http://terminology.hl7.org/CodeSystem/measure-population","code":"numerator","display":"Numerator"}]},"count":1},{"code":{"coding":[{"system":"http://terminology.hl7.org/CodeSystem/measure-population","code":"denominator-exception","display":"Denominator Exception"}]},"count":0}]}]},"request":{"method":"PUT","url":"MeasureReport/a224a654-a0e5-49c9-bb38-7d519ed53d8c"}}]}