{"resourceType":"Bundle","id":"tests-871d38c3-6822-4136-8fe0-2ed0f226888f-bundle","type":"transaction","entry":[{"fullUrl":"https://madie.cms.gov/Patient/871d38c3-6822-4136-8fe0-2ed0f226888f","resource":{"resourceType":"Patient","id":"871d38c3-6822-4136-8fe0-2ed0f226888f","meta":{"profile":["http://hl7.org/fhir/us/qicore/StructureDefinition/qicore-patient"]},"text":{"status":"generated","div":"<div xmlns=\"http://www.w3.org/1999/xhtml\"><div class=\"hapiHeaderText\">EncDx=IschemicStroke <b>IPPFAIL </b></div><table class=\"hapiPropertyTable\"><tbody><tr><td>Identifier</td><td>89a98bc05b4643f22db6eeb5f4cd4a58</td></tr><tr><td>Date of birth</td><td><span>20 August 1994</span></td></tr></tbody></table></div>"},"extension":[{"url":"http://hl7.org/fhir/us/core/StructureDefinition/us-core-race","extension":[{"url":"ombCategory","valueCoding":{"system":"urn:oid:2.16.840.1.113883.6.238","code":"1002-5","display":"American Indian or Alaska Native","userSelected":true}},{"url":"text","valueString":"American Indian or Alaska Native"}]},{"url":"http://hl7.org/fhir/us/core/StructureDefinition/us-core-ethnicity","extension":[{"url":"ombCategory","valueCoding":{"system":"urn:oid:2.16.840.1.113883.6.238","code":"2186-5","display":"Not Hispanic or Latino","userSelected":true}},{"url":"text","valueString":"Not Hispanic or Latino"}]}],"identifier":[{"type":{"coding":[{"system":"http://terminology.hl7.org/CodeSystem/v2-0203","code":"MR"}]},"system":"https://bonnie-fhir.healthit.gov/","value":"60f82c2e98086b570510e275"}],"active":true,"name":[{"use":"usual","family":"IPPFail","given":["EncDx=IschemicStroke"]}],"gender":"male","birthDate":"1994-08-20"},"request":{"method":"PUT","url":"Patient/871d38c3-6822-4136-8fe0-2ed0f226888f"}},{"fullUrl":"https://madie.cms.gov/Encounter/5c954893b848462de0ae6226","resource":{"resourceType":"Encounter","id":"9b4ce3ac-4249-45fd-ae48-1d857fd94786","meta":{"profile":["http://hl7.org/fhir/us/qicore/StructureDefinition/qicore-encounter"]},"status":"finished","class":{"system":"http://terminology.hl7.org/CodeSystem/v3-ActCode","code":"IMP","display":"inpatient encounter"},"type":[{"coding":[{"system":"http://snomed.info/sct","code":"32485007"}]}],"subject":{"reference":"Patient/871d38c3-6822-4136-8fe0-2ed0f226888f"},"period":{"start":"2025-08-21T00:00:00+00:00","end":"2025-12-18T23:59:00+00:00"},"length":{"value":119.0,"unit":"days"},"diagnosis":[{"condition":{"reference":"Condition/ischemic-stroke-7d42"},"use":{"coding":[{"system":"http://snomed.info/sct","code":"111297002","display":"Ischemic Stroke"}]}}]},"request":{"method":"PUT","url":"Encounter/9b4ce3ac-4249-45fd-ae48-1d857fd94786"}},{"fullUrl":"https://madie.cms.gov/Coverage/5e20a36a1c76ba6c5896ebd8","resource":{"resourceType":"Coverage","id":"7e8cdf80-53d9-44cf-957e-a0f5bb1320e0","status":"active","beneficiary":{"reference":"Patient/871d38c3-6822-4136-8fe0-2ed0f226888f"},"period":{"start":"1994-08-20T07:00:00+00:00"},"payor":[{"reference":"Organization/26111c91-b0e2-476c-a20b-e3f39799f8f5"}]},"request":{"method":"PUT","url":"Coverage/7e8cdf80-53d9-44cf-957e-a0f5bb1320e0"}},{"fullUrl":"https://madie.cms.gov/Condition/ischemic-stroke-7d42","resource":{"resourceType":"Condition","id":"d4958237-6b19-4c62-a72b-3e0f46d2c086","meta":{"profile":["http://hl7.org/fhir/us/qicore/StructureDefinition/qicore-condition"]},"clinicalStatus":{"coding":[{"system":"http://terminology.hl7.org/CodeSystem/condition-clinical","code":"active"}]},"verificationStatus":{"coding":[{"system":"http://terminology.hl7.org/CodeSystem/condition-ver-status","code":"confirmed"}]},"category":[{"coding":[{"system":"http://terminology.hl7.org/CodeSystem/condition-category","code":"encounter-diagnosis","display":"Encounter Diagnosis"}]}],"code":{"coding":[{"system":"http://snomed.info/sct","version":"2020-09","code":"111297002","display":"Nonparalytic stroke (disorder)","userSelected":true}]},"subject":{"reference":"Patient/871d38c3-6822-4136-8fe0-2ed0f226888f"},"recordedDate":"2025-08-16T08:00:00.000+00:00"},"request":{"method":"PUT","url":"Condition/d4958237-6b19-4c62-a72b-3e0f46d2c086"}},{"fullUrl":"https://madie.cms.gov/Organization/123456","resource":{"resourceType":"Organization","id":"26111c91-b0e2-476c-a20b-e3f39799f8f5","meta":{"profile":["http://hl7.org/fhir/us/qicore/StructureDefinition/qicore-organization"]},"identifier":[{"use":"temp","system":"urn:oid:2.16.840.1.113883.4.4","value":"21-3259825"}],"active":true,"type":[{"coding":[{"system":"http://terminology.hl7.org/CodeSystem/organization-type","code":"pay","display":"Payer"}]}],"name":"Blue Cross Blue Shield of Texas","telecom":[{"system":"phone","value":"(+1) 972-766-6900"}],"address":[{"use":"billing","type":"postal","line":["P.O. Box 660044"],"city":"Dallas","state":"TX","postalCode":"75266-0044","country":"USA"}]},"request":{"method":"PUT","url":"Organization/26111c91-b0e2-476c-a20b-e3f39799f8f5"}},{"fullUrl":"https://madie.cms.gov/Practitioner/practitioner-123456","resource":{"resourceType":"Practitioner","id":"514256b2-24e1-4f39-bb3a-ae3eabc357b2","identifier":[{"system":"http://hl7.org/fhir/sid/us-npi","value":"123456"}],"name":[{"family":"Evil","prefix":["Dr"]}]},"request":{"method":"PUT","url":"Practitioner/514256b2-24e1-4f39-bb3a-ae3eabc357b2"}},{"fullUrl":"https://madie.cms.gov/MeasureReport/9e9b0a3f-c8d0-44e0-a8e3-ee69c5ea6861","resource":{"resourceType":"MeasureReport","id":"9e9b0a3f-c8d0-44e0-a8e3-ee69c5ea6861","meta":{"profile":["http://hl7.org/fhir/us/cqfmeasures/StructureDefinition/test-case-cqfm"]},"contained":[{"resourceType":"Parameters","id":"7b4641c3-3836-417a-8f3c-35b853d39cea-parameters","parameter":[{"name":"subject","valueString":"871d38c3-6822-4136-8fe0-2ed0f226888f"}]}],"extension":[{"url":"http://hl7.org/fhir/us/cqfmeasures/StructureDefinition/cqfm-inputParameters","valueReference":{"reference":"#7b4641c3-3836-417a-8f3c-35b853d39cea-parameters"}},{"url":"http://hl7.org/fhir/us/cqfmeasures/StructureDefinition/cqfm-testCaseDescription","valueMarkdown":"EncDx=IschemicStroke    LOS<120\n"}],"modifierExtension":[{"url":"http://hl7.org/fhir/us/cqfmeasures/StructureDefinition/cqfm-isTestCase","valueBoolean":true}],"status":"complete","type":"individual","measure":"https://madie.cms.gov/Measure/AntithromboticTherapyByEndofHospitalDay2FHIR","period":{"start":"2025-01-01","end":"2025-12-31"},"group":[{"population":[{"code":{"coding":[{"system":"http://terminology.hl7.org/CodeSystem/measure-population","code":"initial-population","display":"Initial Population"}]},"count":0},{"code":{"coding":[{"system":"http://terminology.hl7.org/CodeSystem/measure-population","code":"denominator","display":"Denominator"}]},"count":0},{"code":{"coding":[{"system":"http://terminology.hl7.org/CodeSystem/measure-population","code":"denominator-exclusion","display":"Denominator Exclusion"}]},"count":0},{"code":{"coding":[{"system":"http://terminology.hl7.org/CodeSystem/measure-population","code":"numerator","display":"Numerator"}]},"count":0},{"code":{"coding":[{"system":"http://terminology.hl7.org/CodeSystem/measure-population","code":"denominator-exception","display":"Denominator Exception"}]},"count":0}]}]},"request":{"method":"PUT","url":"MeasureReport/9e9b0a3f-c8d0-44e0-a8e3-ee69c5ea6861"}}]}