{"resourceType":"Bundle","id":"tests-2dc3e469-a1c6-4419-aecc-72e75dc8507b-bundle","type":"transaction","entry":[{"fullUrl":"https://madie.cms.gov/Patient/2dc3e469-a1c6-4419-aecc-72e75dc8507b","resource":{"resourceType":"Patient","id":"2dc3e469-a1c6-4419-aecc-72e75dc8507b","meta":{"profile":["http://hl7.org/fhir/us/qicore/StructureDefinition/qicore-patient"]},"text":{"status":"generated","div":"<div xmlns=\"http://www.w3.org/1999/xhtml\"><div class=\"hapiHeaderText\">LCG3ENC <b>DENEXPASS3 </b></div><table class=\"hapiPropertyTable\"><tbody><tr><td>Date of birth</td><td><span>09 February 1949</span></td></tr></tbody></table></div>"},"extension":[{"url":"http://hl7.org/fhir/us/core/StructureDefinition/us-core-race","extension":[{"url":"ombCategory","valueCoding":{"system":"urn:oid:2.16.840.1.113883.6.238","code":"2106-3","display":"White","userSelected":true}},{"url":"text","valueString":"White"}]},{"url":"http://hl7.org/fhir/us/core/StructureDefinition/us-core-ethnicity","extension":[{"url":"ombCategory","valueCoding":{"system":"urn:oid:2.16.840.1.113883.6.238","code":"2186-5","display":"Not Hispanic or Latino","userSelected":true}},{"url":"text","valueString":"Not Hispanic or Latino"}]}],"identifier":[{"type":{"coding":[{"system":"http://terminology.hl7.org/CodeSystem/v2-0203","code":"MR"}]},"system":"https://bonnie-fhir.healthit.gov/","value":"60f82c3098086b570510e2ce"}],"active":true,"name":[{"use":"usual","family":"DENEXPass3","given":["LCG3ENC"]}],"gender":"male","birthDate":"1949-02-09"},"request":{"method":"PUT","url":"Patient/2dc3e469-a1c6-4419-aecc-72e75dc8507b"}},{"fullUrl":"https://madie.cms.gov/Condition/5e444de83afe5d000044c85a","resource":{"resourceType":"Condition","id":"1e48fb2e-5b84-41e1-9b70-1732267fa8d7","meta":{"profile":["http://hl7.org/fhir/us/qicore/StructureDefinition/qicore-condition"]},"clinicalStatus":{"coding":[{"system":"http://terminology.hl7.org/CodeSystem/condition-clinical","code":"inactive","display":"Inactive","userSelected":true}]},"verificationStatus":{"coding":[{"system":"http://terminology.hl7.org/CodeSystem/condition-ver-status","code":"confirmed","display":"confirmed","userSelected":true}]},"category":[{"coding":[{"system":"http://terminology.hl7.org/CodeSystem/condition-category","code":"encounter-diagnosis","display":"Encounter Diagnosis"}]}],"code":{"coding":[{"system":"http://hl7.org/fhir/sid/icd-10-cm","code":"Z92.82"}]},"subject":{"reference":"Patient/2dc3e469-a1c6-4419-aecc-72e75dc8507b"},"onsetDateTime":"2025-03-11T09:00:00+00:00","abatementDateTime":"2025-04-01T08:15:00+00:00","recordedDate":"2025-03-11T09:00:00+00:00"},"request":{"method":"PUT","url":"Condition/1e48fb2e-5b84-41e1-9b70-1732267fa8d7"}},{"fullUrl":"https://madie.cms.gov/Encounter/5e444b753afe5d000044c598","resource":{"resourceType":"Encounter","id":"b83fc9a7-9b96-4094-8542-709a177f97dd","meta":{"profile":["http://hl7.org/fhir/us/qicore/StructureDefinition/qicore-encounter"]},"status":"finished","class":{"system":"http://terminology.hl7.org/CodeSystem/v3-ActCode","code":"EMER","display":"emergency"},"type":[{"coding":[{"system":"http://snomed.info/sct","code":"4525004"}]}],"subject":{"reference":"Patient/2dc3e469-a1c6-4419-aecc-72e75dc8507b"},"period":{"start":"2025-02-12T08:00:00+00:00","end":"2025-02-12T20:15:00+00:00"},"diagnosis":[{"condition":{"reference":"Condition/ischemic-stroke-7d3c"},"use":{"coding":[{"system":"http://snomed.info/sct","code":"52201006","display":"Internal capsule hemorrhage (disorder)"}]}}]},"request":{"method":"PUT","url":"Encounter/b83fc9a7-9b96-4094-8542-709a177f97dd"}},{"fullUrl":"https://madie.cms.gov/Encounter/5e444bb53afe5d000044c5b7","resource":{"resourceType":"Encounter","id":"ed6bba42-ea6c-4fe0-af4a-cdc928d5892a","meta":{"profile":["http://hl7.org/fhir/us/qicore/StructureDefinition/qicore-encounter"]},"status":"finished","class":{"system":"http://terminology.hl7.org/CodeSystem/v3-ActCode","code":"IMP","display":"inpatient encounter"},"type":[{"coding":[{"system":"http://snomed.info/sct","code":"183452005"}]}],"subject":{"reference":"Patient/2dc3e469-a1c6-4419-aecc-72e75dc8507b"},"period":{"start":"2025-03-01T05:00:00+00:00","end":"2025-03-01T11:15:00+00:00"},"diagnosis":[{"condition":{"reference":"Condition/ischemic-stroke-7d3a"},"use":{"coding":[{"system":"http://terminology.hl7.org/CodeSystem/diagnosis-role","code":"billing","display":"Billing"}]},"rank":1}]},"request":{"method":"PUT","url":"Encounter/ed6bba42-ea6c-4fe0-af4a-cdc928d5892a"}},{"fullUrl":"https://madie.cms.gov/Encounter/5e444ccb3afe5d000044c65b","resource":{"resourceType":"Encounter","id":"d7fae325-82df-4b3b-af97-b1b17337d405","meta":{"profile":["http://hl7.org/fhir/us/qicore/StructureDefinition/qicore-encounter"]},"status":"finished","class":{"system":"http://terminology.hl7.org/CodeSystem/v3-ActCode","code":"OBSENC","display":"observation encounter"},"type":[{"coding":[{"system":"http://snomed.info/sct","code":"448851000124103"}]}],"subject":{"reference":"Patient/2dc3e469-a1c6-4419-aecc-72e75dc8507b"},"period":{"start":"2025-03-01T13:00:00+00:00","end":"2025-03-01T23:15:00+00:00"}},"request":{"method":"PUT","url":"Encounter/d7fae325-82df-4b3b-af97-b1b17337d405"}},{"fullUrl":"https://madie.cms.gov/Encounter/5e444ce03afe5d000044c684","resource":{"resourceType":"Encounter","id":"5b168793-cbbc-4e46-81dd-32781c268c80","meta":{"profile":["http://hl7.org/fhir/us/qicore/StructureDefinition/qicore-encounter"]},"status":"finished","class":{"system":"http://terminology.hl7.org/CodeSystem/v3-ActCode","code":"IMP","display":"inpatient encounter"},"type":[{"coding":[{"system":"http://snomed.info/sct","code":"183452005"}]}],"subject":{"reference":"Patient/2dc3e469-a1c6-4419-aecc-72e75dc8507b"},"period":{"start":"2025-03-02T13:00:00+00:00","end":"2025-03-09T11:15:00+00:00"},"diagnosis":[{"condition":{"reference":"Condition/ischemic-stroke-7d3b"}}]},"request":{"method":"PUT","url":"Encounter/5b168793-cbbc-4e46-81dd-32781c268c80"}},{"fullUrl":"https://madie.cms.gov/Encounter/5e444d2a3afe5d000044c6f1","resource":{"resourceType":"Encounter","id":"f63c5fa7-f367-468d-9cdb-097c61f6fb57","meta":{"profile":["http://hl7.org/fhir/us/qicore/StructureDefinition/qicore-encounter"]},"status":"finished","class":{"system":"http://terminology.hl7.org/CodeSystem/v3-ActCode","code":"EMER","display":"emergency"},"type":[{"coding":[{"system":"http://snomed.info/sct","code":"4525004"}]}],"subject":{"reference":"Patient/2dc3e469-a1c6-4419-aecc-72e75dc8507b"},"period":{"start":"2025-03-11T08:00:00.000+00:00","end":"2025-03-11T08:15:00.000+00:00"},"diagnosis":[{"condition":{"reference":"Condition/ischemic-stroke-7d3c"},"use":{"coding":[{"system":"http://terminology.hl7.org/CodeSystem/diagnosis-role","code":"billing","display":"Billing"}]},"rank":1}]},"request":{"method":"PUT","url":"Encounter/f63c5fa7-f367-468d-9cdb-097c61f6fb57"}},{"fullUrl":"https://madie.cms.gov/Encounter/5e444d703afe5d000044c78c","resource":{"resourceType":"Encounter","id":"9528bd74-4f0e-467f-b9d7-a23379adec8b","meta":{"profile":["http://hl7.org/fhir/us/qicore/StructureDefinition/qicore-encounter"]},"status":"finished","class":{"system":"http://terminology.hl7.org/CodeSystem/v3-ActCode","code":"IMP","display":"inpatient encounter"},"type":[{"coding":[{"system":"http://snomed.info/sct","code":"183452005"}]}],"subject":{"reference":"Patient/2dc3e469-a1c6-4419-aecc-72e75dc8507b"},"period":{"start":"2025-03-11T09:00:00+00:00","end":"2025-04-01T08:15:00+00:00"},"diagnosis":[{"condition":{"reference":"Condition/ischemic-stroke-7d3d"},"use":{"coding":[{"system":"http://terminology.hl7.org/CodeSystem/diagnosis-role","code":"billing","display":"Billing"}]},"rank":1}],"hospitalization":{"dischargeDisposition":{"coding":[{"system":"http://snomed.info/sct","code":"428371000124100","display":"Discharge to healthcare facility for hospice care (procedure)"}]}}},"request":{"method":"PUT","url":"Encounter/9528bd74-4f0e-467f-b9d7-a23379adec8b"}},{"fullUrl":"https://madie.cms.gov/Encounter/5e444e8c3afe5d000044c8f1","resource":{"resourceType":"Encounter","id":"8e29619e-5843-4f41-9cce-167602dda88a","meta":{"profile":["http://hl7.org/fhir/us/qicore/StructureDefinition/qicore-encounter"]},"status":"finished","class":{"system":"http://terminology.hl7.org/CodeSystem/v3-ActCode","code":"IMP","display":"inpatient encounter"},"type":[{"coding":[{"system":"http://snomed.info/sct","code":"183452005"}]}],"subject":{"reference":"Patient/2dc3e469-a1c6-4419-aecc-72e75dc8507b"},"period":{"start":"2025-04-02T08:00:00+00:00","end":"2025-04-02T08:15:00+00:00"},"diagnosis":[{"condition":{"reference":"Condition/ischemic-stroke-7d3c"},"use":{"coding":[{"system":"http://terminology.hl7.org/CodeSystem/diagnosis-role","code":"billing","display":"Billing"}]},"rank":1}]},"request":{"method":"PUT","url":"Encounter/8e29619e-5843-4f41-9cce-167602dda88a"}},{"fullUrl":"https://madie.cms.gov/ServiceRequest/5e444d1f3afe5d000044c6df","resource":{"resourceType":"ServiceRequest","id":"bd2014fb-37e9-400f-9eb6-9846b372b83e","meta":{"profile":["http://hl7.org/fhir/us/qicore/StructureDefinition/qicore-servicerequest"]},"status":"active","intent":"order","code":{"coding":[{"system":"http://snomed.info/sct","code":"133918004"}]},"subject":{"reference":"Patient/2dc3e469-a1c6-4419-aecc-72e75dc8507b"},"authoredOn":"2025-03-02T13:00:00+00:00"},"request":{"method":"PUT","url":"ServiceRequest/bd2014fb-37e9-400f-9eb6-9846b372b83e"}},{"fullUrl":"https://madie.cms.gov/Observation/5e444bf63afe5d000044c5f7","resource":{"resourceType":"Observation","id":"30d3055c-c063-4fac-a0ec-39e6eacc415c","meta":{"profile":["http://hl7.org/fhir/us/qicore/StructureDefinition/qicore-observation"]},"status":"final","category":[{"coding":[{"system":"http://terminology.hl7.org/CodeSystem/observation-category","code":"laboratory","display":"Laboratory"}]}],"code":{"coding":[{"system":"http://loinc.org","code":"34714-6"}]},"subject":{"reference":"Patient/2dc3e469-a1c6-4419-aecc-72e75dc8507b"},"effectivePeriod":{"start":"2025-03-01T05:00:00+00:00","end":"2025-03-01T11:15:00+00:00"},"issued":"2025-03-01T05:00:00.000+00:00","valueQuantity":{"value":2.5}},"request":{"method":"PUT","url":"Observation/30d3055c-c063-4fac-a0ec-39e6eacc415c"}},{"fullUrl":"https://madie.cms.gov/Observation/5e444dc33afe5d000044c832","resource":{"resourceType":"Observation","id":"92d77122-90ba-4985-b005-ab736e7dfdb4","meta":{"profile":["http://hl7.org/fhir/us/qicore/StructureDefinition/qicore-observation"]},"status":"final","category":[{"coding":[{"system":"http://terminology.hl7.org/CodeSystem/observation-category","code":"laboratory","display":"Laboratory"}]}],"code":{"coding":[{"system":"http://loinc.org","code":"34714-6"}]},"subject":{"reference":"Patient/2dc3e469-a1c6-4419-aecc-72e75dc8507b"},"effectivePeriod":{"start":"2025-03-11T09:00:00+00:00","end":"2025-04-01T08:15:00+00:00"},"issued":"2025-03-11T09:00:00.000+00:00","valueQuantity":{"value":3.3}},"request":{"method":"PUT","url":"Observation/92d77122-90ba-4985-b005-ab736e7dfdb4"}},{"fullUrl":"https://madie.cms.gov/Observation/5e444eb23afe5d000044c968","resource":{"resourceType":"Observation","id":"3bbbbe9a-f731-4b17-86da-093eebb7ba3e","meta":{"profile":["http://hl7.org/fhir/us/qicore/StructureDefinition/qicore-observation"]},"status":"final","category":[{"coding":[{"system":"http://terminology.hl7.org/CodeSystem/observation-category","code":"laboratory","display":"Laboratory"}]}],"code":{"coding":[{"system":"http://loinc.org","code":"34714-6"}]},"subject":{"reference":"Patient/2dc3e469-a1c6-4419-aecc-72e75dc8507b"},"effectivePeriod":{"start":"2025-04-02T08:00:00+00:00","end":"2025-04-02T08:15:00+00:00"},"issued":"2025-04-02T08:00:00.000+00:00","valueQuantity":{"value":3.49}},"request":{"method":"PUT","url":"Observation/3bbbbe9a-f731-4b17-86da-093eebb7ba3e"}},{"fullUrl":"https://madie.cms.gov/MedicationAdministration/5e444c933afe5d000044c61a","resource":{"resourceType":"MedicationAdministration","id":"7e5544e2-be99-4e40-b33e-3bca3a255f94","meta":{"profile":["http://hl7.org/fhir/us/qicore/StructureDefinition/qicore-medicationadministration"]},"extension":[{"url":"http://hl7.org/fhir/us/qicore/StructureDefinition/qicore-recorded","valueDateTime":"2025-03-01T05:00:00+00:00"}],"status":"completed","medicationCodeableConcept":{"coding":[{"system":"http://www.nlm.nih.gov/research/umls/rxnorm","code":"1804799"}]},"subject":{"reference":"Patient/2dc3e469-a1c6-4419-aecc-72e75dc8507b"},"effectivePeriod":{"start":"2025-03-01T05:00:00+00:00","end":"2025-03-01T11:15:00+00:00"}},"request":{"method":"PUT","url":"MedicationAdministration/7e5544e2-be99-4e40-b33e-3bca3a255f94"}},{"fullUrl":"https://madie.cms.gov/MedicationAdministration/5e444cfe3afe5d000044c6ce","resource":{"resourceType":"MedicationAdministration","id":"f6082c3d-238f-4a9a-92a8-2a3253d2207d","meta":{"profile":["http://hl7.org/fhir/us/qicore/StructureDefinition/qicore-medicationadministration"]},"extension":[{"url":"http://hl7.org/fhir/us/qicore/StructureDefinition/qicore-recorded","valueDateTime":"2025-03-02T13:00:00+00:00"}],"status":"completed","medicationCodeableConcept":{"coding":[{"system":"http://www.nlm.nih.gov/research/umls/rxnorm","code":"1037045"}]},"subject":{"reference":"Patient/2dc3e469-a1c6-4419-aecc-72e75dc8507b"},"effectivePeriod":{"start":"2025-03-02T13:00:00+00:00","end":"2025-03-02T23:15:00+00:00"}},"request":{"method":"PUT","url":"MedicationAdministration/f6082c3d-238f-4a9a-92a8-2a3253d2207d"}},{"fullUrl":"https://madie.cms.gov/MedicationAdministration/5e444df03afe5d000044c886","resource":{"resourceType":"MedicationAdministration","id":"d0c0ddb6-0fd2-4012-8931-589d721f9b22","meta":{"profile":["http://hl7.org/fhir/us/qicore/StructureDefinition/qicore-medicationadministration"]},"extension":[{"url":"http://hl7.org/fhir/us/qicore/StructureDefinition/qicore-recorded","valueDateTime":"2025-03-11T09:00:00+00:00"}],"status":"completed","medicationCodeableConcept":{"coding":[{"system":"http://www.nlm.nih.gov/research/umls/rxnorm","code":"1037045"}]},"subject":{"reference":"Patient/2dc3e469-a1c6-4419-aecc-72e75dc8507b"},"effectivePeriod":{"start":"2025-03-11T09:00:00+00:00","end":"2025-04-01T08:15:00+00:00"}},"request":{"method":"PUT","url":"MedicationAdministration/d0c0ddb6-0fd2-4012-8931-589d721f9b22"}},{"fullUrl":"https://madie.cms.gov/MedicationAdministration/5e444ed13afe5d000044c998","resource":{"resourceType":"MedicationAdministration","id":"63993606-3fa6-47c3-bfbe-fe4c2ebf5b43","meta":{"profile":["http://hl7.org/fhir/us/qicore/StructureDefinition/qicore-medicationadministration"]},"extension":[{"url":"http://hl7.org/fhir/us/qicore/StructureDefinition/qicore-recorded","valueDateTime":"2025-04-02T08:00:00+00:00"}],"status":"not-done","statusReason":[{"coding":[{"system":"http://snomed.info/sct","code":"105480006","display":"Refusal of treatment by patient (situation)"}]}],"medicationCodeableConcept":{"coding":[{"system":"http://www.nlm.nih.gov/research/umls/rxnorm","code":"1116635"}]},"subject":{"reference":"Patient/2dc3e469-a1c6-4419-aecc-72e75dc8507b"},"effectivePeriod":{"start":"2025-04-02T08:00:00+00:00","end":"2025-04-02T08:15:00+00:00"}},"request":{"method":"PUT","url":"MedicationAdministration/63993606-3fa6-47c3-bfbe-fe4c2ebf5b43"}},{"fullUrl":"https://madie.cms.gov/MedicationAdministration/5e444eff3afe5d000044ca5e","resource":{"resourceType":"MedicationAdministration","id":"16ed5568-ea58-46ef-8772-262be11d8702","meta":{"profile":["http://hl7.org/fhir/us/qicore/StructureDefinition/qicore-medicationadministration"]},"extension":[{"url":"http://hl7.org/fhir/us/qicore/StructureDefinition/qicore-recorded","valueDateTime":"2025-04-02T08:00:00+00:00"}],"status":"completed","medicationCodeableConcept":{"coding":[{"system":"http://www.nlm.nih.gov/research/umls/rxnorm","code":"1037045"}]},"subject":{"reference":"Patient/2dc3e469-a1c6-4419-aecc-72e75dc8507b"},"effectivePeriod":{"start":"2025-04-02T08:00:00+00:00","end":"2025-04-02T08:15:00+00:00"}},"request":{"method":"PUT","url":"MedicationAdministration/16ed5568-ea58-46ef-8772-262be11d8702"}},{"fullUrl":"https://madie.cms.gov/MedicationRequest/5e444cfb3afe5d000044c6be","resource":{"resourceType":"MedicationRequest","id":"44a7b998-a590-4677-9444-811d526e7de8","meta":{"profile":["http://hl7.org/fhir/us/qicore/StructureDefinition/qicore-medicationrequest"]},"status":"completed","intent":"order","medicationCodeableConcept":{"coding":[{"system":"http://www.nlm.nih.gov/research/umls/rxnorm","code":"1037045"}]},"subject":{"reference":"Patient/2dc3e469-a1c6-4419-aecc-72e75dc8507b"},"authoredOn":"2025-03-02T08:00:00+00:00","requester":{"reference":"Practitioner/example"},"dosageInstruction":[{"timing":{"repeat":{"boundsPeriod":{"start":"2025-03-02T13:00:00+00:00","end":"2025-03-02T23:15:00+00:00"}}}}]},"request":{"method":"PUT","url":"MedicationRequest/44a7b998-a590-4677-9444-811d526e7de8"}},{"fullUrl":"https://madie.cms.gov/MedicationRequest/5e444ded3afe5d000044c870","resource":{"resourceType":"MedicationRequest","id":"e7f14a8a-be9a-40b7-b062-7a7d5be9e1d6","meta":{"profile":["http://hl7.org/fhir/us/qicore/StructureDefinition/qicore-medicationrequest"]},"status":"completed","intent":"order","medicationCodeableConcept":{"coding":[{"system":"http://www.nlm.nih.gov/research/umls/rxnorm","code":"1037045"}]},"subject":{"reference":"Patient/2dc3e469-a1c6-4419-aecc-72e75dc8507b"},"authoredOn":"2025-03-11T09:00:00+00:00","requester":{"reference":"Practitioner/example"},"dosageInstruction":[{"timing":{"repeat":{"boundsPeriod":{"start":"2025-03-11T09:00:00+00:00","end":"2025-04-01T08:15:00+00:00"}}}}]},"request":{"method":"PUT","url":"MedicationRequest/e7f14a8a-be9a-40b7-b062-7a7d5be9e1d6"}},{"fullUrl":"https://madie.cms.gov/MedicationRequest/5e444eed3afe5d000044c9fa","resource":{"resourceType":"MedicationRequest","id":"e42bfe13-171c-4ab8-9e77-063f2f6fe1f9","meta":{"profile":["http://hl7.org/fhir/us/qicore/StructureDefinition/qicore-medicationrequest"]},"status":"active","intent":"order","medicationCodeableConcept":{"coding":[{"system":"http://www.nlm.nih.gov/research/umls/rxnorm","code":"1037045"}]},"subject":{"reference":"Patient/2dc3e469-a1c6-4419-aecc-72e75dc8507b"},"authoredOn":"2025-04-02T08:00:00+00:00","requester":{"reference":"Practitioner/example"},"dosageInstruction":[{"timing":{"repeat":{"boundsPeriod":{"start":"2025-04-02T08:00:00+00:00","end":"2025-04-02T08:15:00+00:00"}}}}]},"request":{"method":"PUT","url":"MedicationRequest/e42bfe13-171c-4ab8-9e77-063f2f6fe1f9"}},{"fullUrl":"https://madie.cms.gov/Condition/ischemic-stroke-7d3a","resource":{"resourceType":"Condition","id":"690360a8-01b2-4522-8e90-aa152eda8220","meta":{"profile":["http://hl7.org/fhir/us/qicore/StructureDefinition/qicore-condition"]},"clinicalStatus":{"coding":[{"system":"http://terminology.hl7.org/CodeSystem/condition-clinical","code":"active"}]},"verificationStatus":{"coding":[{"system":"http://terminology.hl7.org/CodeSystem/condition-ver-status","code":"confirmed"}]},"category":[{"coding":[{"system":"http://terminology.hl7.org/CodeSystem/condition-category","code":"encounter-diagnosis","display":"Encounter Diagnosis"}]}],"code":{"coding":[{"system":"http://snomed.info/sct","version":"2020-09","code":"111297002","display":"Nonparalytic stroke (disorder)","userSelected":true}]},"subject":{"reference":"Patient/2dc3e469-a1c6-4419-aecc-72e75dc8507b"},"recordedDate":"2025-08-16T08:00:00.000+00:00"},"request":{"method":"PUT","url":"Condition/690360a8-01b2-4522-8e90-aa152eda8220"}},{"fullUrl":"https://madie.cms.gov/Condition/ischemic-stroke-7d3b","resource":{"resourceType":"Condition","id":"306df999-5895-4c52-9f0c-eae138da617b","meta":{"profile":["http://hl7.org/fhir/us/qicore/StructureDefinition/qicore-condition"]},"clinicalStatus":{"coding":[{"system":"http://terminology.hl7.org/CodeSystem/condition-clinical","code":"active"}]},"verificationStatus":{"coding":[{"system":"http://terminology.hl7.org/CodeSystem/condition-ver-status","code":"confirmed"}]},"category":[{"coding":[{"system":"http://terminology.hl7.org/CodeSystem/condition-category","code":"encounter-diagnosis","display":"Encounter Diagnosis"}]}],"code":{"coding":[{"system":"http://snomed.info/sct","version":"2020-09","code":"111297002","display":"Nonparalytic stroke (disorder)","userSelected":true}]},"subject":{"reference":"Patient/2dc3e469-a1c6-4419-aecc-72e75dc8507b"},"recordedDate":"2025-08-16T08:00:00.000+00:00"},"request":{"method":"PUT","url":"Condition/306df999-5895-4c52-9f0c-eae138da617b"}},{"fullUrl":"https://madie.cms.gov/Condition/ischemic-stroke-7d3c","resource":{"resourceType":"Condition","id":"1f945d40-dc9f-42c1-92cc-9531eb21852d","meta":{"profile":["http://hl7.org/fhir/us/qicore/StructureDefinition/qicore-condition"]},"clinicalStatus":{"coding":[{"system":"http://terminology.hl7.org/CodeSystem/condition-clinical","code":"active"}]},"verificationStatus":{"coding":[{"system":"http://terminology.hl7.org/CodeSystem/condition-ver-status","code":"confirmed"}]},"category":[{"coding":[{"system":"http://terminology.hl7.org/CodeSystem/condition-category","code":"encounter-diagnosis","display":"Encounter Diagnosis"}]}],"code":{"coding":[{"system":"http://snomed.info/sct","version":"2020-09","code":"111297002","display":"Nonparalytic stroke (disorder)","userSelected":true}]},"subject":{"reference":"Patient/2dc3e469-a1c6-4419-aecc-72e75dc8507b"},"recordedDate":"2025-08-16T08:00:00.000+00:00"},"request":{"method":"PUT","url":"Condition/1f945d40-dc9f-42c1-92cc-9531eb21852d"}},{"fullUrl":"https://madie.cms.gov/Condition/ischemic-stroke-7d3d","resource":{"resourceType":"Condition","id":"61b7483e-558d-4e7b-b817-9507d5a6f119","meta":{"profile":["http://hl7.org/fhir/us/qicore/StructureDefinition/qicore-condition"]},"clinicalStatus":{"coding":[{"system":"http://terminology.hl7.org/CodeSystem/condition-clinical","code":"active"}]},"verificationStatus":{"coding":[{"system":"http://terminology.hl7.org/CodeSystem/condition-ver-status","code":"confirmed"}]},"category":[{"coding":[{"system":"http://terminology.hl7.org/CodeSystem/condition-category","code":"encounter-diagnosis","display":"Encounter Diagnosis"}]}],"code":{"coding":[{"system":"http://snomed.info/sct","version":"2020-09","code":"111297002","display":"Nonparalytic stroke (disorder)","userSelected":true}]},"subject":{"reference":"Patient/2dc3e469-a1c6-4419-aecc-72e75dc8507b"},"recordedDate":"2025-08-16T08:00:00.000+00:00"},"request":{"method":"PUT","url":"Condition/61b7483e-558d-4e7b-b817-9507d5a6f119"}},{"fullUrl":"https://madie.cms.gov/Coverage/1","resource":{"resourceType":"Coverage","id":"4d1b0fe7-3cb3-4f33-a294-6f55f919e7eb","meta":{"profile":["http://hl7.org/fhir/us/qicore/StructureDefinition/qicore-coverage"]},"status":"active","beneficiary":{"reference":"Patient/2dc3e469-a1c6-4419-aecc-72e75dc8507b"},"payor":[{"reference":"Organization/26111c91-b0e2-476c-a20b-e3f39799f8f5"}]},"request":{"method":"PUT","url":"Coverage/4d1b0fe7-3cb3-4f33-a294-6f55f919e7eb"}},{"fullUrl":"https://madie.cms.gov/Organization/123456","resource":{"resourceType":"Organization","id":"26111c91-b0e2-476c-a20b-e3f39799f8f5","meta":{"profile":["http://hl7.org/fhir/us/qicore/StructureDefinition/qicore-organization"]},"identifier":[{"use":"temp","system":"urn:oid:2.16.840.1.113883.4.4","value":"21-3259825"}],"active":true,"type":[{"coding":[{"system":"http://terminology.hl7.org/CodeSystem/organization-type","code":"pay","display":"Payer"}]}],"name":"Blue Cross Blue Shield of Texas","telecom":[{"system":"phone","value":"(+1) 972-766-6900"}],"address":[{"use":"billing","type":"postal","line":["P.O. Box 660044"],"city":"Dallas","state":"TX","postalCode":"75266-0044","country":"USA"}]},"request":{"method":"PUT","url":"Organization/26111c91-b0e2-476c-a20b-e3f39799f8f5"}},{"fullUrl":"https://madie.cms.gov/Practitioner/practitioner-123456","resource":{"resourceType":"Practitioner","id":"c28c8afd-3365-4760-9653-1c1a0f1dd77f","identifier":[{"system":"http://hl7.org/fhir/sid/us-npi","value":"123456"}],"name":[{"family":"Evil","prefix":["Dr"]}]},"request":{"method":"PUT","url":"Practitioner/c28c8afd-3365-4760-9653-1c1a0f1dd77f"}},{"fullUrl":"https://madie.cms.gov/MeasureReport/4af14141-5817-4dff-b34d-b427371c6a34","resource":{"resourceType":"MeasureReport","id":"4af14141-5817-4dff-b34d-b427371c6a34","meta":{"profile":["http://hl7.org/fhir/us/cqfmeasures/StructureDefinition/test-case-cqfm"]},"contained":[{"resourceType":"Parameters","id":"4e29d532-ea53-450e-9a8c-b96832ebd170-parameters","parameter":[{"name":"subject","valueString":"2dc3e469-a1c6-4419-aecc-72e75dc8507b"}]}],"extension":[{"url":"http://hl7.org/fhir/us/cqfmeasures/StructureDefinition/cqfm-inputParameters","valueReference":{"reference":"#4e29d532-ea53-450e-9a8c-b96832ebd170-parameters"}},{"url":"http://hl7.org/fhir/us/cqfmeasures/StructureDefinition/cqfm-testCaseDescription","valueMarkdown":"Multiple encounter testing\n"}],"modifierExtension":[{"url":"http://hl7.org/fhir/us/cqfmeasures/StructureDefinition/cqfm-isTestCase","valueBoolean":true}],"status":"complete","type":"individual","measure":"https://madie.cms.gov/Measure/AntithromboticTherapyByEndofHospitalDay2FHIR","period":{"start":"2025-01-01","end":"2025-12-31"},"group":[{"population":[{"code":{"coding":[{"system":"http://terminology.hl7.org/CodeSystem/measure-population","code":"initial-population","display":"Initial Population"}]},"count":3},{"code":{"coding":[{"system":"http://terminology.hl7.org/CodeSystem/measure-population","code":"denominator","display":"Denominator"}]},"count":3},{"code":{"coding":[{"system":"http://terminology.hl7.org/CodeSystem/measure-population","code":"denominator-exclusion","display":"Denominator Exclusion"}]},"count":2},{"code":{"coding":[{"system":"http://terminology.hl7.org/CodeSystem/measure-population","code":"numerator","display":"Numerator"}]},"count":1},{"code":{"coding":[{"system":"http://terminology.hl7.org/CodeSystem/measure-population","code":"denominator-exception","display":"Denominator Exception"}]},"count":0}]}]},"request":{"method":"PUT","url":"MeasureReport/4af14141-5817-4dff-b34d-b427371c6a34"}}]}