{"resourceType":"Bundle","id":"tests-ab28178c-eadb-41a3-861e-ee22c8f12d16-bundle","type":"transaction","entry":[{"fullUrl":"https://madie.cms.gov/Patient/ab28178c-eadb-41a3-861e-ee22c8f12d16","resource":{"resourceType":"Patient","id":"ab28178c-eadb-41a3-861e-ee22c8f12d16","meta":{"profile":["http://hl7.org/fhir/us/qicore/StructureDefinition/qicore-patient"]},"text":{"status":"generated","div":"<div xmlns=\"http://www.w3.org/1999/xhtml\"><div class=\"hapiHeaderText\">PharmContraDayOfObs_ED&lt;1hrObs&gt;1hrDayOfBFEncDayAft <b>DENEXCEPFAIL </b></div><table class=\"hapiPropertyTable\"><tbody><tr><td>Identifier</td><td>4cbac458cf08bb3745514cbd98fe57985e238b54828068b187ed271a02fb3bed</td></tr><tr><td>Date of birth</td><td><span>26 September 1975</span></td></tr></tbody></table></div>"},"extension":[{"url":"http://hl7.org/fhir/us/core/StructureDefinition/us-core-race","extension":[{"url":"ombCategory","valueCoding":{"system":"urn:oid:2.16.840.1.113883.6.238","code":"2054-5","display":"Black or African American","userSelected":true}},{"url":"text","valueString":"Black or African American"}]},{"url":"http://hl7.org/fhir/us/core/StructureDefinition/us-core-ethnicity","extension":[{"url":"ombCategory","valueCoding":{"system":"urn:oid:2.16.840.1.113883.6.238","code":"2186-5","display":"Not Hispanic or Latino","userSelected":true}},{"url":"text","valueString":"Not Hispanic or Latino"}]}],"identifier":[{"type":{"coding":[{"system":"http://terminology.hl7.org/CodeSystem/v2-0203","code":"MR"}]},"system":"https://bonnie-fhir.healthit.gov/","value":"60f82c2f98086b570510e2b8"}],"active":true,"name":[{"use":"usual","family":"DENEXCEPFail","given":["PharmContraDayOfObs_ED<1hrObs>1hrDayOfBFEncDayAft"]}],"gender":"female","birthDate":"1975-09-26"},"request":{"method":"PUT","url":"Patient/ab28178c-eadb-41a3-861e-ee22c8f12d16"}},{"fullUrl":"https://madie.cms.gov/Encounter/5c954894b848462de0ae6327","resource":{"resourceType":"Encounter","id":"fc025e93-6872-4902-95f8-b905bbd6d838","meta":{"profile":["http://hl7.org/fhir/us/qicore/StructureDefinition/qicore-encounter"]},"status":"finished","class":{"system":"http://terminology.hl7.org/CodeSystem/v3-ActCode","code":"EMER","display":"emergency","userSelected":true},"type":[{"coding":[{"system":"http://snomed.info/sct","code":"4525004"}]}],"subject":{"reference":"Patient/ab28178c-eadb-41a3-861e-ee22c8f12d16"},"period":{"start":"2025-10-10T09:00:00.000+00:00","end":"2025-10-10T09:15:00.000+00:00"},"length":{"value":0,"unit":"days"}},"request":{"method":"PUT","url":"Encounter/fc025e93-6872-4902-95f8-b905bbd6d838"}},{"fullUrl":"https://madie.cms.gov/Encounter/5c954894b848462de0ae6328","resource":{"resourceType":"Encounter","id":"ea8b41b8-a830-493d-bb7f-16942d320ec1","meta":{"profile":["http://hl7.org/fhir/us/qicore/StructureDefinition/qicore-encounter"]},"status":"finished","class":{"system":"http://terminology.hl7.org/CodeSystem/v3-ActCode","code":"OBSENC","display":"observation encounter","userSelected":true},"type":[{"coding":[{"system":"http://snomed.info/sct","code":"448851000124103"}]}],"subject":{"reference":"Patient/ab28178c-eadb-41a3-861e-ee22c8f12d16"},"period":{"start":"2025-10-10T09:16:00.000+00:00","end":"2025-10-10T22:59:00.000+00:00"},"length":{"value":0,"unit":"days"}},"request":{"method":"PUT","url":"Encounter/ea8b41b8-a830-493d-bb7f-16942d320ec1"}},{"fullUrl":"https://madie.cms.gov/Encounter/5c954894b848462de0ae6329","resource":{"resourceType":"Encounter","id":"1a53790f-801e-43e8-88d5-3861ae5305ab","meta":{"profile":["http://hl7.org/fhir/us/qicore/StructureDefinition/qicore-encounter"]},"status":"finished","class":{"system":"http://terminology.hl7.org/CodeSystem/v3-ActCode","code":"IMP","display":"inpatient encounter","userSelected":true},"type":[{"coding":[{"system":"http://snomed.info/sct","code":"32485007"}]}],"subject":{"reference":"Patient/ab28178c-eadb-41a3-861e-ee22c8f12d16"},"period":{"start":"2025-10-11T00:00:00.000+00:00","end":"2025-10-15T11:15:00.000+00:00"},"length":{"value":4,"unit":"days"},"diagnosis":[{"condition":{"reference":"Condition/ischemic-stroke-2cfb"},"use":{"coding":[{"system":"http://terminology.hl7.org/CodeSystem/diagnosis-role","code":"billing","display":"Billing"}]},"rank":1}]},"request":{"method":"PUT","url":"Encounter/1a53790f-801e-43e8-88d5-3861ae5305ab"}},{"fullUrl":"https://madie.cms.gov/MedicationAdministration/5de6c35a5b87f90000eaf228","resource":{"resourceType":"MedicationAdministration","id":"5cf06b5c-4af2-4315-a358-ef104abdf71c","meta":{"profile":["http://hl7.org/fhir/us/qicore/StructureDefinition/qicore-medicationadministration"]},"status":"completed","medicationCodeableConcept":{"coding":[{"system":"http://www.nlm.nih.gov/research/umls/rxnorm","code":"1116635"}]},"subject":{"reference":"Patient/ab28178c-eadb-41a3-861e-ee22c8f12d16"},"effectivePeriod":{"start":"2025-10-10T22:59:00+00:00"}},"request":{"method":"PUT","url":"MedicationAdministration/5cf06b5c-4af2-4315-a358-ef104abdf71c"}},{"fullUrl":"https://madie.cms.gov/Coverage/5e20a3721c76ba6c5896ec1b","resource":{"resourceType":"Coverage","id":"115c0336-23ec-4506-a81b-d80f37d2f978","status":"active","beneficiary":{"reference":"Patient/ab28178c-eadb-41a3-861e-ee22c8f12d16"},"period":{"start":"1975-09-26T08:00:00+00:00"},"payor":[{"reference":"Organization/26111c91-b0e2-476c-a20b-e3f39799f8f5"}]},"request":{"method":"PUT","url":"Coverage/115c0336-23ec-4506-a81b-d80f37d2f978"}},{"fullUrl":"https://madie.cms.gov/Condition/ischemic-stroke-2cfb","resource":{"resourceType":"Condition","id":"20fbf2b8-c396-4fcc-97f2-3103559b4093","meta":{"profile":["http://hl7.org/fhir/us/qicore/StructureDefinition/qicore-condition"]},"clinicalStatus":{"coding":[{"system":"http://terminology.hl7.org/CodeSystem/condition-clinical","code":"active"}]},"verificationStatus":{"coding":[{"system":"http://terminology.hl7.org/CodeSystem/condition-ver-status","code":"confirmed"}]},"category":[{"coding":[{"system":"http://terminology.hl7.org/CodeSystem/condition-category","code":"encounter-diagnosis","display":"Encounter Diagnosis"}]}],"code":{"coding":[{"system":"http://snomed.info/sct","version":"2020-09","code":"111297002","display":"Nonparalytic stroke (disorder)","userSelected":true}]},"subject":{"reference":"Patient/ab28178c-eadb-41a3-861e-ee22c8f12d16"},"recordedDate":"2025-08-03T08:00:00.000+00:00"},"request":{"method":"PUT","url":"Condition/20fbf2b8-c396-4fcc-97f2-3103559b4093"}},{"fullUrl":"https://madie.cms.gov/Organization/123456","resource":{"resourceType":"Organization","id":"26111c91-b0e2-476c-a20b-e3f39799f8f5","meta":{"profile":["http://hl7.org/fhir/us/qicore/StructureDefinition/qicore-organization"]},"identifier":[{"use":"temp","system":"urn:oid:2.16.840.1.113883.4.4","value":"21-3259825"}],"active":true,"type":[{"coding":[{"system":"http://terminology.hl7.org/CodeSystem/organization-type","code":"pay","display":"Payer"}]}],"name":"Blue Cross Blue Shield of Texas","telecom":[{"system":"phone","value":"(+1) 972-766-6900"}],"address":[{"use":"billing","type":"postal","line":["P.O. Box 660044"],"city":"Dallas","state":"TX","postalCode":"75266-0044","country":"USA"}]},"request":{"method":"PUT","url":"Organization/26111c91-b0e2-476c-a20b-e3f39799f8f5"}},{"fullUrl":"https://madie.cms.gov/MeasureReport/a6c0fbfd-67a4-4919-97b9-cdb226c776a9","resource":{"resourceType":"MeasureReport","id":"a6c0fbfd-67a4-4919-97b9-cdb226c776a9","meta":{"profile":["http://hl7.org/fhir/us/cqfmeasures/StructureDefinition/test-case-cqfm"]},"contained":[{"resourceType":"Parameters","id":"d90862dd-11a8-48cc-a58c-559e28a25fa4-parameters","parameter":[{"name":"subject","valueString":"ab28178c-eadb-41a3-861e-ee22c8f12d16"}]}],"extension":[{"url":"http://hl7.org/fhir/us/cqfmeasures/StructureDefinition/cqfm-inputParameters","valueReference":{"reference":"#d90862dd-11a8-48cc-a58c-559e28a25fa4-parameters"}},{"url":"http://hl7.org/fhir/us/cqfmeasures/StructureDefinition/cqfm-testCaseDescription","valueMarkdown":"Patient receives Ticagrelor day of Obs. ED ends 1 min before Obs.Obs ends 61 min before IP start at midnight. Testing Day of operator with HospitalizationWithObservation function.\n"}],"modifierExtension":[{"url":"http://hl7.org/fhir/us/cqfmeasures/StructureDefinition/cqfm-isTestCase","valueBoolean":true}],"status":"complete","type":"individual","measure":"https://madie.cms.gov/Measure/AntithromboticTherapyByEndofHospitalDay2FHIR","period":{"start":"2025-01-01","end":"2025-12-31"},"group":[{"population":[{"code":{"coding":[{"system":"http://terminology.hl7.org/CodeSystem/measure-population","code":"initial-population","display":"Initial Population"}]},"count":1},{"code":{"coding":[{"system":"http://terminology.hl7.org/CodeSystem/measure-population","code":"denominator","display":"Denominator"}]},"count":1},{"code":{"coding":[{"system":"http://terminology.hl7.org/CodeSystem/measure-population","code":"denominator-exclusion","display":"Denominator Exclusion"}]},"count":0},{"code":{"coding":[{"system":"http://terminology.hl7.org/CodeSystem/measure-population","code":"numerator","display":"Numerator"}]},"count":0},{"code":{"coding":[{"system":"http://terminology.hl7.org/CodeSystem/measure-population","code":"denominator-exception","display":"Denominator Exception"}]},"count":0}]}]},"request":{"method":"PUT","url":"MeasureReport/a6c0fbfd-67a4-4919-97b9-cdb226c776a9"}}]}