{"resourceType":"Bundle","id":"tests-be5c4068-2639-4b0c-bea3-5b7c80a6fe3b-bundle","type":"transaction","entry":[{"fullUrl":"https://madie.cms.gov/Patient/be5c4068-2639-4b0c-bea3-5b7c80a6fe3b","resource":{"resourceType":"Patient","id":"be5c4068-2639-4b0c-bea3-5b7c80a6fe3b","meta":{"profile":["http://hl7.org/fhir/us/qicore/StructureDefinition/qicore-patient"]},"text":{"status":"generated","div":"<div xmlns=\"http://www.w3.org/1999/xhtml\"><div class=\"hapiHeaderText\">INRGT3.5(100).resultDatetime_EQHospEncStartday <b>DENEXCEPASS </b></div><table class=\"hapiPropertyTable\"><tbody><tr><td>Identifier</td><td>dfa8445af2775eb6d72ac78e5253d54ae4b88f8656f6a0b4bf81ce35b6315a00</td></tr><tr><td>Date of birth</td><td><span>26 September 1975</span></td></tr></tbody></table></div>"},"extension":[{"url":"http://hl7.org/fhir/us/core/StructureDefinition/us-core-race","extension":[{"url":"ombCategory","valueCoding":{"system":"urn:oid:2.16.840.1.113883.6.238","code":"2054-5","display":"Black or African American","userSelected":true}},{"url":"text","valueString":"Black or African American"}]},{"url":"http://hl7.org/fhir/us/core/StructureDefinition/us-core-ethnicity","extension":[{"url":"ombCategory","valueCoding":{"system":"urn:oid:2.16.840.1.113883.6.238","code":"2186-5","display":"Not Hispanic or Latino","userSelected":true}},{"url":"text","valueString":"Not Hispanic or Latino"}]}],"identifier":[{"type":{"coding":[{"system":"http://terminology.hl7.org/CodeSystem/v2-0203","code":"MR"}]},"system":"https://bonnie-fhir.healthit.gov/","value":"60f82c2f98086b570510e2c7"}],"active":true,"name":[{"use":"usual","family":"DENEXCEPass","given":["INRGT3.5(100).resultDatetime_EQHospEncStartday"]}],"gender":"female","birthDate":"1975-09-26"},"request":{"method":"PUT","url":"Patient/be5c4068-2639-4b0c-bea3-5b7c80a6fe3b"}},{"fullUrl":"https://madie.cms.gov/Encounter/5d49ad63b8484631934fe638","resource":{"resourceType":"Encounter","id":"0eb834a3-c7af-46b5-aea6-5ef50c2a5157","meta":{"profile":["http://hl7.org/fhir/us/qicore/StructureDefinition/qicore-encounter"]},"status":"finished","class":{"system":"http://terminology.hl7.org/CodeSystem/v3-ActCode","code":"IMP","display":"inpatient encounter","userSelected":true},"type":[{"coding":[{"system":"http://snomed.info/sct","code":"32485007"}]}],"subject":{"reference":"Patient/be5c4068-2639-4b0c-bea3-5b7c80a6fe3b"},"period":{"start":"2025-10-10T06:30:00+00:00","end":"2025-10-15T11:30:00+00:00"},"length":{"value":5,"unit":"days"},"diagnosis":[{"condition":{"reference":"Condition/ischemic-stroke-9f1a"},"use":{"coding":[{"system":"http://terminology.hl7.org/CodeSystem/diagnosis-role","code":"billing","display":"Billing"}]},"rank":1}]},"request":{"method":"PUT","url":"Encounter/0eb834a3-c7af-46b5-aea6-5ef50c2a5157"}},{"fullUrl":"https://madie.cms.gov/Observation/5d49ad63b8484631934fe637","resource":{"resourceType":"Observation","id":"2ae21fe2-c292-4290-8072-6691eb5b1be9","meta":{"profile":["http://hl7.org/fhir/us/qicore/StructureDefinition/qicore-observation"]},"status":"amended","category":[{"coding":[{"system":"http://terminology.hl7.org/CodeSystem/observation-category","code":"laboratory","display":"Laboratory"}]}],"code":{"coding":[{"system":"http://loinc.org","code":"34714-6"}]},"subject":{"reference":"Patient/be5c4068-2639-4b0c-bea3-5b7c80a6fe3b"},"effectivePeriod":{"start":"2025-10-10T06:15:00+00:00"},"issued":"2025-10-10T06:30:00.000+00:00","valueQuantity":{"value":100,"unit":"0"}},"request":{"method":"PUT","url":"Observation/2ae21fe2-c292-4290-8072-6691eb5b1be9"}},{"fullUrl":"https://madie.cms.gov/Coverage/5e20a3731c76ba6c5896ec25","resource":{"resourceType":"Coverage","id":"54c939ad-35cc-4ffe-8ef2-b907fb67e281","status":"active","beneficiary":{"reference":"Patient/be5c4068-2639-4b0c-bea3-5b7c80a6fe3b"},"period":{"start":"1975-09-26T08:00:00+00:00"},"payor":[{"reference":"Organization/26111c91-b0e2-476c-a20b-e3f39799f8f5"}]},"request":{"method":"PUT","url":"Coverage/54c939ad-35cc-4ffe-8ef2-b907fb67e281"}},{"fullUrl":"https://madie.cms.gov/Condition/ischemic-stroke-9f1a","resource":{"resourceType":"Condition","id":"4ae7f6b7-f4c6-4867-bc40-49b46e9e3921","meta":{"profile":["http://hl7.org/fhir/us/qicore/StructureDefinition/qicore-condition"]},"clinicalStatus":{"coding":[{"system":"http://terminology.hl7.org/CodeSystem/condition-clinical","code":"active"}]},"verificationStatus":{"coding":[{"system":"http://terminology.hl7.org/CodeSystem/condition-ver-status","code":"confirmed"}]},"category":[{"coding":[{"system":"http://terminology.hl7.org/CodeSystem/condition-category","code":"encounter-diagnosis","display":"Encounter Diagnosis"}]}],"code":{"coding":[{"system":"http://snomed.info/sct","version":"2020-09","code":"111297002","display":"Nonparalytic stroke (disorder)","userSelected":true}]},"subject":{"reference":"Patient/be5c4068-2639-4b0c-bea3-5b7c80a6fe3b"},"recordedDate":"2025-08-06T08:00:00.000+00:00"},"request":{"method":"PUT","url":"Condition/4ae7f6b7-f4c6-4867-bc40-49b46e9e3921"}},{"fullUrl":"https://madie.cms.gov/Organization/123456","resource":{"resourceType":"Organization","id":"26111c91-b0e2-476c-a20b-e3f39799f8f5","meta":{"profile":["http://hl7.org/fhir/us/qicore/StructureDefinition/qicore-organization"]},"identifier":[{"use":"temp","system":"urn:oid:2.16.840.1.113883.4.4","value":"21-3259825"}],"active":true,"type":[{"coding":[{"system":"http://terminology.hl7.org/CodeSystem/organization-type","code":"pay","display":"Payer"}]}],"name":"Blue Cross Blue Shield of Texas","telecom":[{"system":"phone","value":"(+1) 972-766-6900"}],"address":[{"use":"billing","type":"postal","line":["P.O. Box 660044"],"city":"Dallas","state":"TX","postalCode":"75266-0044","country":"USA"}]},"request":{"method":"PUT","url":"Organization/26111c91-b0e2-476c-a20b-e3f39799f8f5"}},{"fullUrl":"https://madie.cms.gov/Practitioner/practitioner-123456","resource":{"resourceType":"Practitioner","id":"864394a8-05c8-4217-ac77-7130d5b32f6c","identifier":[{"system":"http://hl7.org/fhir/sid/us-npi","value":"123456"}],"name":[{"family":"Evil","prefix":["Dr"]}]},"request":{"method":"PUT","url":"Practitioner/864394a8-05c8-4217-ac77-7130d5b32f6c"}},{"fullUrl":"https://madie.cms.gov/MeasureReport/67ec1144-dd07-4d4b-aa7d-242aaeefd0e6","resource":{"resourceType":"MeasureReport","id":"67ec1144-dd07-4d4b-aa7d-242aaeefd0e6","meta":{"profile":["http://hl7.org/fhir/us/cqfmeasures/StructureDefinition/test-case-cqfm"]},"contained":[{"resourceType":"Parameters","id":"67415a4c-8941-4254-8265-8f8ed1e8cdc7-parameters","parameter":[{"name":"subject","valueString":"be5c4068-2639-4b0c-bea3-5b7c80a6fe3b"}]}],"extension":[{"url":"http://hl7.org/fhir/us/cqfmeasures/StructureDefinition/cqfm-inputParameters","valueReference":{"reference":"#67415a4c-8941-4254-8265-8f8ed1e8cdc7-parameters"}},{"url":"http://hl7.org/fhir/us/cqfmeasures/StructureDefinition/cqfm-testCaseDescription","valueMarkdown":"Patient receives INR of greater than 3.5 equal to the day of IP start. No ED. No Obs.\n"}],"modifierExtension":[{"url":"http://hl7.org/fhir/us/cqfmeasures/StructureDefinition/cqfm-isTestCase","valueBoolean":true}],"status":"complete","type":"individual","measure":"https://madie.cms.gov/Measure/AntithromboticTherapyByEndofHospitalDay2FHIR","period":{"start":"2025-01-01","end":"2025-12-31"},"group":[{"population":[{"code":{"coding":[{"system":"http://terminology.hl7.org/CodeSystem/measure-population","code":"initial-population","display":"Initial Population"}]},"count":1},{"code":{"coding":[{"system":"http://terminology.hl7.org/CodeSystem/measure-population","code":"denominator","display":"Denominator"}]},"count":1},{"code":{"coding":[{"system":"http://terminology.hl7.org/CodeSystem/measure-population","code":"denominator-exclusion","display":"Denominator Exclusion"}]},"count":0},{"code":{"coding":[{"system":"http://terminology.hl7.org/CodeSystem/measure-population","code":"numerator","display":"Numerator"}]},"count":0},{"code":{"coding":[{"system":"http://terminology.hl7.org/CodeSystem/measure-population","code":"denominator-exception","display":"Denominator Exception"}]},"count":1}]}]},"request":{"method":"PUT","url":"MeasureReport/67ec1144-dd07-4d4b-aa7d-242aaeefd0e6"}}]}