{"resourceType":"Bundle","id":"tests-1ef5e948-acd1-46ae-ab8d-267febd63bb0-bundle","type":"transaction","entry":[{"fullUrl":"https://madie.cms.gov/Patient/1ef5e948-acd1-46ae-ab8d-267febd63bb0","resource":{"resourceType":"Patient","id":"1ef5e948-acd1-46ae-ab8d-267febd63bb0","meta":{"profile":["http://hl7.org/fhir/us/qicore/StructureDefinition/qicore-patient"]},"extension":[{"url":"http://hl7.org/fhir/us/core/StructureDefinition/us-core-race","extension":[{"url":"ombCategory","valueCoding":{"system":"urn:oid:2.16.840.1.113883.6.238","code":"2106-3","display":"White","userSelected":true}},{"url":"text","valueString":"White"}]},{"url":"http://hl7.org/fhir/us/core/StructureDefinition/us-core-ethnicity","extension":[{"url":"ombCategory","valueCoding":{"system":"urn:oid:2.16.840.1.113883.6.238","code":"2186-5","display":"Not Hispanic or Latino","userSelected":true}},{"url":"text","valueString":"Not Hispanic or Latino"}]}],"identifier":[{"type":{"coding":[{"system":"http://terminology.hl7.org/CodeSystem/v2-0203","code":"MR"}]},"system":"https://bonnie-fhir.healthit.gov/","value":"617bebf41619a529957d62be"}],"name":[{"family":"DenExcl7Pass","given":["DxStartsBeforeandEndsDuring90DayPeriod"]}],"gender":"female","birthDate":"1984-12-02"},"request":{"method":"PUT","url":"Patient/1ef5e948-acd1-46ae-ab8d-267febd63bb0"}},{"fullUrl":"https://madie.cms.gov/Encounter/emergency-department-visit-330a","resource":{"resourceType":"Encounter","id":"d828e621-001b-4e9f-8306-1c525affc52c","meta":{"profile":["http://hl7.org/fhir/us/qicore/StructureDefinition/qicore-encounter"]},"status":"finished","class":{"system":"http://terminology.hl7.org/CodeSystem/v3-ActCode","code":"EMER","display":"emergency","userSelected":true},"type":[{"coding":[{"system":"http://snomed.info/sct","version":"2020-09","code":"4525004","display":"Emergency department patient visit (procedure)","userSelected":true}]}],"subject":{"reference":"Patient/1ef5e948-acd1-46ae-ab8d-267febd63bb0"},"period":{"start":"2025-10-09T08:05:00.000+00:00","end":"2025-10-10T07:15:00.000+00:00"}},"request":{"method":"PUT","url":"Encounter/d828e621-001b-4e9f-8306-1c525affc52c"}},{"fullUrl":"https://madie.cms.gov/Condition/stemi-330b","resource":{"resourceType":"Condition","id":"204f3a9c-b310-43bc-8f59-d059393ee030","meta":{"profile":["http://hl7.org/fhir/us/qicore/StructureDefinition/qicore-condition"]},"clinicalStatus":{"coding":[{"system":"http://terminology.hl7.org/CodeSystem/condition-clinical","code":"active","display":"active","userSelected":true}]},"category":[{"coding":[{"system":"http://terminology.hl7.org/CodeSystem/condition-category","code":"encounter-diagnosis","display":"Encounter Diagnosis","userSelected":true}]}],"code":{"coding":[{"system":"http://snomed.info/sct","version":"2020-09","code":"401303003","display":"Acute ST segment elevation myocardial infarction (disorder)","userSelected":true}]},"subject":{"reference":"Patient/1ef5e948-acd1-46ae-ab8d-267febd63bb0"},"onsetDateTime":"2025-10-09T08:30:00.000+00:00"},"request":{"method":"PUT","url":"Condition/204f3a9c-b310-43bc-8f59-d059393ee030"}},{"fullUrl":"https://madie.cms.gov/Condition/cardiopulmonary-arrest-62bf","resource":{"resourceType":"Condition","id":"aa6834e1-7f84-4121-830c-ba5619275a5e","meta":{"profile":["http://hl7.org/fhir/us/qicore/StructureDefinition/qicore-condition"]},"clinicalStatus":{"coding":[{"system":"http://terminology.hl7.org/CodeSystem/condition-clinical","version":"4.0.1","code":"inactive","display":"Inactive","userSelected":true}]},"category":[{"coding":[{"system":"http://terminology.hl7.org/CodeSystem/condition-category","code":"encounter-diagnosis","display":"Encounter Diagnosis","userSelected":true}]}],"code":{"coding":[{"system":"http://snomed.info/sct","version":"2020-09","code":"162710004","display":"On examination - collapse -cardiac arrest (disorder)","userSelected":true}]},"subject":{"reference":"Patient/1ef5e948-acd1-46ae-ab8d-267febd63bb0"},"onsetDateTime":"2025-01-01T08:00:00.000+00:00","abatementDateTime":"2025-08-20T08:15:00.000+00:00"},"request":{"method":"PUT","url":"Condition/aa6834e1-7f84-4121-830c-ba5619275a5e"}},{"fullUrl":"https://madie.cms.gov/MeasureReport/763f0a7f-c0a8-41e8-8509-291745df9b8a","resource":{"resourceType":"MeasureReport","id":"763f0a7f-c0a8-41e8-8509-291745df9b8a","meta":{"profile":["http://hl7.org/fhir/us/cqfmeasures/StructureDefinition/test-case-cqfm"]},"contained":[{"resourceType":"Parameters","id":"8c3e7109-de42-49da-8fd6-2551b3087af8-parameters","parameter":[{"name":"subject","valueString":"1ef5e948-acd1-46ae-ab8d-267febd63bb0"}]}],"extension":[{"url":"http://hl7.org/fhir/us/cqfmeasures/StructureDefinition/cqfm-inputParameters","valueReference":{"reference":"#8c3e7109-de42-49da-8fd6-2551b3087af8-parameters"}},{"url":"http://hl7.org/fhir/us/cqfmeasures/StructureDefinition/cqfm-testCaseDescription","valueMarkdown":"Patient has Cardiopulmonary Arrest (exclusion diagnosis) starts before and ends during 90 day period"}],"modifierExtension":[{"url":"http://hl7.org/fhir/us/cqfmeasures/StructureDefinition/cqfm-isTestCase","valueBoolean":true}],"status":"complete","type":"individual","measure":"https://madie.cms.gov/Measure/AppropriateTreatmentforSTEMIFHIR","period":{"start":"2025-01-01","end":"2025-12-31"},"group":[{"population":[{"code":{"coding":[{"system":"http://terminology.hl7.org/CodeSystem/measure-population","code":"initial-population","display":"Initial Population"}]},"count":1},{"code":{"coding":[{"system":"http://terminology.hl7.org/CodeSystem/measure-population","code":"denominator","display":"Denominator"}]},"count":1},{"code":{"coding":[{"system":"http://terminology.hl7.org/CodeSystem/measure-population","code":"denominator-exclusion","display":"Denominator Exclusion"}]},"count":0},{"code":{"coding":[{"system":"http://terminology.hl7.org/CodeSystem/measure-population","code":"numerator","display":"Numerator"}]},"count":0},{"code":{"coding":[{"system":"http://terminology.hl7.org/CodeSystem/measure-population","code":"denominator-exception","display":"Denominator Exception"}]},"count":0}]}]},"request":{"method":"PUT","url":"MeasureReport/763f0a7f-c0a8-41e8-8509-291745df9b8a"}}]}