{"resourceType":"Bundle","id":"tests-9efd63da-2bbd-4211-ae3e-d5a6bb6a726a-bundle","type":"transaction","entry":[{"fullUrl":"https://madie.cms.gov/Patient/9efd63da-2bbd-4211-ae3e-d5a6bb6a726a","resource":{"resourceType":"Patient","id":"9efd63da-2bbd-4211-ae3e-d5a6bb6a726a","meta":{"profile":["http://hl7.org/fhir/us/qicore/StructureDefinition/qicore-patient"]},"extension":[{"url":"http://hl7.org/fhir/us/core/StructureDefinition/us-core-race","extension":[{"url":"ombCategory","valueCoding":{"system":"urn:oid:2.16.840.1.113883.6.238","code":"2106-3","display":"White","userSelected":true}},{"url":"text","valueString":"White"}]},{"url":"http://hl7.org/fhir/us/core/StructureDefinition/us-core-ethnicity","extension":[{"url":"ombCategory","valueCoding":{"system":"urn:oid:2.16.840.1.113883.6.238","code":"2186-5","display":"Not Hispanic or Latino","userSelected":true}},{"url":"text","valueString":"Not Hispanic or Latino"}]}],"identifier":[{"type":{"coding":[{"system":"http://terminology.hl7.org/CodeSystem/v2-0203","code":"MR"}]},"system":"https://bonnie-fhir.healthit.gov/","value":"6419dca79c0269a68225bb41"}],"name":[{"family":"1IPPass","given":["STEMIstartsduringendsduringEnc"]}],"gender":"female","birthDate":"1984-12-02"},"request":{"method":"PUT","url":"Patient/9efd63da-2bbd-4211-ae3e-d5a6bb6a726a"}},{"fullUrl":"https://madie.cms.gov/Encounter/emergency-department-visit-e632","resource":{"resourceType":"Encounter","id":"ccae483d-73c0-40c8-a239-326b7f896f88","meta":{"profile":["http://hl7.org/fhir/us/qicore/StructureDefinition/qicore-encounter"]},"status":"finished","class":{"system":"http://terminology.hl7.org/CodeSystem/v3-ActCode","code":"EMER","display":"emergency","userSelected":true},"type":[{"coding":[{"system":"http://snomed.info/sct","version":"2020-09","code":"4525004","display":"Emergency department patient visit (procedure)","userSelected":true}]}],"subject":{"reference":"Patient/9efd63da-2bbd-4211-ae3e-d5a6bb6a726a"},"period":{"start":"2025-10-09T08:05:00.000+00:00","end":"2025-10-10T07:15:00.000+00:00"},"diagnosis":[{"condition":{"reference":"Condition/stemi-e633"}}]},"request":{"method":"PUT","url":"Encounter/ccae483d-73c0-40c8-a239-326b7f896f88"}},{"fullUrl":"https://madie.cms.gov/Condition/stemi-e633","resource":{"resourceType":"Condition","id":"3c7a1bcc-6776-4a93-9d05-2fa90fa0caed","meta":{"profile":["http://hl7.org/fhir/us/qicore/StructureDefinition/qicore-condition"]},"clinicalStatus":{"coding":[{"system":"http://terminology.hl7.org/CodeSystem/condition-clinical","code":"active","display":"active","userSelected":true}]},"verificationStatus":{"coding":[{"system":"http://terminology.hl7.org/CodeSystem/condition-ver-status","code":"confirmed","display":"confirmed","userSelected":true}]},"category":[{"coding":[{"system":"http://terminology.hl7.org/CodeSystem/condition-category","code":"encounter-diagnosis","display":"Encounter Diagnosis","userSelected":true}]}],"code":{"coding":[{"system":"http://hl7.org/fhir/sid/icd-10-cm","code":"I21.19","userSelected":true}]},"subject":{"reference":"Patient/9efd63da-2bbd-4211-ae3e-d5a6bb6a726a"},"onsetDateTime":"2025-10-09T08:07:00.000+00:00"},"request":{"method":"PUT","url":"Condition/3c7a1bcc-6776-4a93-9d05-2fa90fa0caed"}},{"fullUrl":"https://madie.cms.gov/Coverage/1","resource":{"resourceType":"Coverage","id":"48c21e5d-0aba-4892-8ccd-6ff1cff0a53e","meta":{"profile":["http://hl7.org/fhir/us/qicore/StructureDefinition/qicore-coverage"]},"status":"active","beneficiary":{"reference":"Patient/9efd63da-2bbd-4211-ae3e-d5a6bb6a726a"},"payor":[{"reference":"Organization/4b5a882f-1f43-485c-85c6-f5ad2337d5b1"}]},"request":{"method":"PUT","url":"Coverage/48c21e5d-0aba-4892-8ccd-6ff1cff0a53e"}},{"fullUrl":"https://madie.cms.gov/Organization/123456","resource":{"resourceType":"Organization","id":"4b5a882f-1f43-485c-85c6-f5ad2337d5b1","meta":{"profile":["http://hl7.org/fhir/us/qicore/StructureDefinition/qicore-organization"]},"identifier":[{"use":"temp","system":"urn:oid:2.16.840.1.113883.4.4","value":"21-3259825"}],"active":true,"type":[{"coding":[{"system":"http://terminology.hl7.org/CodeSystem/organization-type","code":"pay","display":"Payer"}]}],"name":"Blue Cross Blue Shield of Texas","telecom":[{"system":"phone","value":"(+1) 972-766-6900"}],"address":[{"use":"billing","type":"postal","line":["P.O. Box 660044"],"city":"Dallas","state":"TX","postalCode":"75266-0044","country":"USA"}]},"request":{"method":"PUT","url":"Organization/4b5a882f-1f43-485c-85c6-f5ad2337d5b1"}},{"fullUrl":"https://madie.cms.gov/Practitioner/practitioner-123456","resource":{"resourceType":"Practitioner","id":"04135b20-5f0e-4e13-bbad-e801685bddc7","meta":{"profile":["http://hl7.org/fhir/us/qicore/StructureDefinition/qicore-practitioner"]},"identifier":[{"system":"http://hl7.org/fhir/sid/us-npi","value":"123456"}],"name":[{"family":"Evil","prefix":["Dr"]}]},"request":{"method":"PUT","url":"Practitioner/04135b20-5f0e-4e13-bbad-e801685bddc7"}},{"fullUrl":"https://madie.cms.gov/MeasureReport/c3f55df6-a704-407b-b046-3b57ef0b0ba1","resource":{"resourceType":"MeasureReport","id":"c3f55df6-a704-407b-b046-3b57ef0b0ba1","meta":{"profile":["http://hl7.org/fhir/us/cqfmeasures/StructureDefinition/test-case-cqfm"]},"contained":[{"resourceType":"Parameters","id":"197ba2ee-9b6e-48f3-a8c2-e3b1f0416b24-parameters","parameter":[{"name":"subject","valueString":"9efd63da-2bbd-4211-ae3e-d5a6bb6a726a"}]}],"extension":[{"url":"http://hl7.org/fhir/us/cqfmeasures/StructureDefinition/cqfm-inputParameters","valueReference":{"reference":"#197ba2ee-9b6e-48f3-a8c2-e3b1f0416b24-parameters"}},{"url":"http://hl7.org/fhir/us/cqfmeasures/StructureDefinition/cqfm-testCaseDescription","valueMarkdown":"Patient is over 18 years old and has an encounter during the MP and STEMI starts during and ends during Encounter "}],"modifierExtension":[{"url":"http://hl7.org/fhir/us/cqfmeasures/StructureDefinition/cqfm-isTestCase","valueBoolean":true}],"status":"complete","type":"individual","measure":"https://madie.cms.gov/Measure/AppropriateTreatmentforSTEMIFHIR","period":{"start":"2025-01-01","end":"2025-12-31"},"group":[{"population":[{"code":{"coding":[{"system":"http://terminology.hl7.org/CodeSystem/measure-population","code":"initial-population","display":"Initial Population"}]},"count":1},{"code":{"coding":[{"system":"http://terminology.hl7.org/CodeSystem/measure-population","code":"denominator","display":"Denominator"}]},"count":1},{"code":{"coding":[{"system":"http://terminology.hl7.org/CodeSystem/measure-population","code":"denominator-exclusion","display":"Denominator Exclusion"}]},"count":0},{"code":{"coding":[{"system":"http://terminology.hl7.org/CodeSystem/measure-population","code":"numerator","display":"Numerator"}]},"count":0},{"code":{"coding":[{"system":"http://terminology.hl7.org/CodeSystem/measure-population","code":"denominator-exception","display":"Denominator Exception"}]},"count":0}]}]},"request":{"method":"PUT","url":"MeasureReport/c3f55df6-a704-407b-b046-3b57ef0b0ba1"}}]}