{"resourceType":"Bundle","id":"tests-e5611b09-d279-4c4d-ae0a-8cf72c0a6984-bundle","type":"transaction","entry":[{"fullUrl":"https://madie.cms.gov/Patient/e5611b09-d279-4c4d-ae0a-8cf72c0a6984","resource":{"resourceType":"Patient","id":"e5611b09-d279-4c4d-ae0a-8cf72c0a6984","meta":{"profile":["http://hl7.org/fhir/us/qicore/StructureDefinition/qicore-patient"]},"extension":[{"url":"http://hl7.org/fhir/us/core/StructureDefinition/us-core-race","extension":[{"url":"ombCategory","valueCoding":{"system":"urn:oid:2.16.840.1.113883.6.238","code":"1002-5","display":"American Indian or Alaska Native","userSelected":true}},{"url":"text","valueString":"American Indian or Alaska Native"}]},{"url":"http://hl7.org/fhir/us/core/StructureDefinition/us-core-ethnicity","extension":[{"url":"ombCategory","valueCoding":{"system":"urn:oid:2.16.840.1.113883.6.238","code":"2186-5","display":"Not Hispanic or Latino","userSelected":true}},{"url":"text","valueString":"Not Hispanic or Latino"}]}],"identifier":[{"type":{"coding":[{"system":"http://terminology.hl7.org/CodeSystem/v2-0203","code":"MR"}]},"system":"https://bonnie-fhir.healthit.gov/","value":"617ad6051e8170ac98fce637"}],"name":[{"family":"IPFail","given":["STEMIbeforeEnc"]}],"gender":"female","birthDate":"1984-12-02"},"request":{"method":"PUT","url":"Patient/e5611b09-d279-4c4d-ae0a-8cf72c0a6984"}},{"fullUrl":"https://madie.cms.gov/Encounter/emergency-department-visit-e632","resource":{"resourceType":"Encounter","id":"4894221b-835d-4de1-be3d-758c59673437","meta":{"profile":["http://hl7.org/fhir/us/qicore/StructureDefinition/qicore-encounter"]},"status":"finished","class":{"system":"http://terminology.hl7.org/CodeSystem/v3-ActCode","code":"EMER","display":"emergency","userSelected":true},"type":[{"coding":[{"system":"http://snomed.info/sct","version":"2020-09","code":"4525004","display":"Emergency department patient visit (procedure)","userSelected":true}]}],"subject":{"reference":"Patient/e5611b09-d279-4c4d-ae0a-8cf72c0a6980"},"period":{"start":"2023-10-09T08:05:00.000+00:00","end":"2023-10-10T07:15:00.000+00:00"},"diagnosis":[{"condition":{"reference":"Condition/stemi-e633"}}]},"request":{"method":"PUT","url":"Encounter/4894221b-835d-4de1-be3d-758c59673437"}},{"fullUrl":"https://madie.cms.gov/Condition/stemi-e633","resource":{"resourceType":"Condition","id":"09b0a986-897b-494f-b3dd-c2ec27b6fe01","meta":{"profile":["http://hl7.org/fhir/us/qicore/StructureDefinition/qicore-condition"]},"clinicalStatus":{"coding":[{"system":"http://terminology.hl7.org/CodeSystem/condition-clinical","code":"inactive","display":"inactive","userSelected":true}]},"category":[{"coding":[{"system":"http://terminology.hl7.org/CodeSystem/condition-category","code":"encounter-diagnosis","display":"Encounter Diagnosis","userSelected":true}]}],"code":{"coding":[{"system":"http://hl7.org/fhir/sid/icd-10-cm","code":"I21.19","userSelected":true}]},"subject":{"reference":"Patient/e5611b09-d279-4c4d-ae0a-8cf72c0a6980"},"onsetDateTime":"2025-01-10T08:00:00.000+00:00","abatementDateTime":"2025-03-20T09:15:00.000+00:00"},"request":{"method":"PUT","url":"Condition/09b0a986-897b-494f-b3dd-c2ec27b6fe01"}},{"fullUrl":"https://madie.cms.gov/MeasureReport/16ce2d7b-f08b-4881-933e-b2a980fd6b18","resource":{"resourceType":"MeasureReport","id":"16ce2d7b-f08b-4881-933e-b2a980fd6b18","meta":{"profile":["http://hl7.org/fhir/us/cqfmeasures/StructureDefinition/test-case-cqfm"]},"contained":[{"resourceType":"Parameters","id":"fc2d4d0c-6727-4e57-884d-216f6d9b5baf-parameters","parameter":[{"name":"subject","valueString":"e5611b09-d279-4c4d-ae0a-8cf72c0a6984"}]}],"extension":[{"url":"http://hl7.org/fhir/us/cqfmeasures/StructureDefinition/cqfm-inputParameters","valueReference":{"reference":"#fc2d4d0c-6727-4e57-884d-216f6d9b5baf-parameters"}},{"url":"http://hl7.org/fhir/us/cqfmeasures/StructureDefinition/cqfm-testCaseDescription","valueMarkdown":"Patient is over 18 years old and has an encounter during the MP and a STEMI before the Encounter"}],"modifierExtension":[{"url":"http://hl7.org/fhir/us/cqfmeasures/StructureDefinition/cqfm-isTestCase","valueBoolean":true}],"status":"complete","type":"individual","measure":"https://madie.cms.gov/Measure/AppropriateTreatmentforSTEMIFHIR","period":{"start":"2025-01-01","end":"2025-12-31"},"group":[{"population":[{"code":{"coding":[{"system":"http://terminology.hl7.org/CodeSystem/measure-population","code":"initial-population","display":"Initial Population"}]},"count":0},{"code":{"coding":[{"system":"http://terminology.hl7.org/CodeSystem/measure-population","code":"denominator","display":"Denominator"}]},"count":0},{"code":{"coding":[{"system":"http://terminology.hl7.org/CodeSystem/measure-population","code":"denominator-exclusion","display":"Denominator Exclusion"}]},"count":0},{"code":{"coding":[{"system":"http://terminology.hl7.org/CodeSystem/measure-population","code":"numerator","display":"Numerator"}]},"count":0},{"code":{"coding":[{"system":"http://terminology.hl7.org/CodeSystem/measure-population","code":"denominator-exception","display":"Denominator Exception"}]},"count":0}]}]},"request":{"method":"PUT","url":"MeasureReport/16ce2d7b-f08b-4881-933e-b2a980fd6b18"}}]}