{"resourceType":"Bundle","id":"tests-f6d175e8-c952-424a-9961-9cba93219131-bundle","type":"transaction","entry":[{"fullUrl":"https://madie.cms.gov/Patient/f6d175e8-c952-424a-9961-9cba93219131","resource":{"resourceType":"Patient","id":"f6d175e8-c952-424a-9961-9cba93219131","meta":{"profile":["http://hl7.org/fhir/us/qicore/StructureDefinition/qicore-patient"]},"extension":[{"url":"http://hl7.org/fhir/us/core/StructureDefinition/us-core-race","extension":[{"url":"ombCategory","valueCoding":{"system":"urn:oid:2.16.840.1.113883.6.238","code":"2076-8","display":"Native Hawaiian or Other Pacific Islander","userSelected":true}},{"url":"text","valueString":"Native Hawaiian or Other Pacific Islander"}]},{"url":"http://hl7.org/fhir/us/core/StructureDefinition/us-core-ethnicity","extension":[{"url":"ombCategory","valueCoding":{"system":"urn:oid:2.16.840.1.113883.6.238","code":"2186-5","display":"Not Hispanic or Latino","userSelected":true}},{"url":"text","valueString":"Not Hispanic or Latino"}]}],"identifier":[{"type":{"coding":[{"system":"http://terminology.hl7.org/CodeSystem/v2-0203","code":"MR"}]},"system":"https://bonnie-fhir.healthit.gov/","value":"617825214bf8e25b8f204e0f"}],"name":[{"family":"DenExcl1Fail","given":["DxExclStartsBeforeEDNoend"]}],"gender":"female","birthDate":"1984-12-02"},"request":{"method":"PUT","url":"Patient/f6d175e8-c952-424a-9961-9cba93219131"}},{"fullUrl":"https://madie.cms.gov/Encounter/emergency-department-visit-4e10","resource":{"resourceType":"Encounter","id":"be896ee6-7dd6-4044-8e46-5f20e74db792","meta":{"profile":["http://hl7.org/fhir/us/qicore/StructureDefinition/qicore-encounter"]},"status":"finished","class":{"system":"http://terminology.hl7.org/CodeSystem/v3-ActCode","code":"EMER","display":"emergency","userSelected":true},"type":[{"coding":[{"system":"http://snomed.info/sct","version":"2020-09","code":"4525004","display":"Emergency department patient visit (procedure)","userSelected":true}]}],"subject":{"reference":"Patient/f6d175e8-c952-424a-9961-9cba93219131"},"period":{"start":"2025-10-09T08:05:00.000+00:00","end":"2025-10-10T07:15:00.000+00:00"}},"request":{"method":"PUT","url":"Encounter/be896ee6-7dd6-4044-8e46-5f20e74db792"}},{"fullUrl":"https://madie.cms.gov/Condition/stemi-4e11","resource":{"resourceType":"Condition","id":"2368757f-5f08-41dc-a2fc-f743a7357bef","meta":{"profile":["http://hl7.org/fhir/us/qicore/StructureDefinition/qicore-condition"]},"clinicalStatus":{"coding":[{"system":"http://terminology.hl7.org/CodeSystem/condition-clinical","code":"active","display":"active","userSelected":true}]},"category":[{"coding":[{"system":"http://terminology.hl7.org/CodeSystem/condition-category","code":"encounter-diagnosis","display":"Encounter Diagnosis","userSelected":true}]}],"code":{"coding":[{"system":"http://snomed.info/sct","version":"2020-09","code":"401303003","display":"Acute ST segment elevation myocardial infarction (disorder)","userSelected":true}]},"subject":{"reference":"Patient/f6d175e8-c952-424a-9961-9cba93219131"},"onsetDateTime":"2025-10-09T08:30:00.000+00:00"},"request":{"method":"PUT","url":"Condition/2368757f-5f08-41dc-a2fc-f743a7357bef"}},{"fullUrl":"https://madie.cms.gov/Condition/aortic-dissection-4e12","resource":{"resourceType":"Condition","id":"275ef72c-8610-49c2-be50-bca04415cbfd","meta":{"profile":["http://hl7.org/fhir/us/qicore/StructureDefinition/qicore-condition"]},"clinicalStatus":{"coding":[{"system":"http://terminology.hl7.org/CodeSystem/condition-clinical","code":"active","display":"active","userSelected":true}]},"category":[{"coding":[{"system":"http://terminology.hl7.org/CodeSystem/condition-category","code":"encounter-diagnosis","display":"Encounter Diagnosis","userSelected":true}]}],"code":{"coding":[{"system":"http://snomed.info/sct","version":"2020-09","code":"14336007","display":"Ruptured abdominal aortic aneurysm (disorder)","userSelected":true}]},"subject":{"reference":"Patient/f6d175e8-c952-424a-9961-9cba93219131"},"onsetDateTime":"2025-01-09T13:00:00.000+00:00"},"request":{"method":"PUT","url":"Condition/275ef72c-8610-49c2-be50-bca04415cbfd"}},{"fullUrl":"https://madie.cms.gov/MeasureReport/b9234864-d0dd-4326-b976-f8b459f178bb","resource":{"resourceType":"MeasureReport","id":"b9234864-d0dd-4326-b976-f8b459f178bb","meta":{"profile":["http://hl7.org/fhir/us/cqfmeasures/StructureDefinition/test-case-cqfm"]},"contained":[{"resourceType":"Parameters","id":"848592eb-c45d-4032-9de3-857438f5a435-parameters","parameter":[{"name":"subject","valueString":"f6d175e8-c952-424a-9961-9cba93219131"}]}],"extension":[{"url":"http://hl7.org/fhir/us/cqfmeasures/StructureDefinition/cqfm-inputParameters","valueReference":{"reference":"#848592eb-c45d-4032-9de3-857438f5a435-parameters"}},{"url":"http://hl7.org/fhir/us/cqfmeasures/StructureDefinition/cqfm-testCaseDescription","valueMarkdown":"Patient has aortic dissection (exclusion diagnosis) that starts before ED encounter and does not end"}],"modifierExtension":[{"url":"http://hl7.org/fhir/us/cqfmeasures/StructureDefinition/cqfm-isTestCase","valueBoolean":true}],"status":"complete","type":"individual","measure":"https://madie.cms.gov/Measure/AppropriateTreatmentforSTEMIFHIR","period":{"start":"2025-01-01","end":"2025-12-31"},"group":[{"population":[{"code":{"coding":[{"system":"http://terminology.hl7.org/CodeSystem/measure-population","code":"initial-population","display":"Initial Population"}]},"count":1},{"code":{"coding":[{"system":"http://terminology.hl7.org/CodeSystem/measure-population","code":"denominator","display":"Denominator"}]},"count":1},{"code":{"coding":[{"system":"http://terminology.hl7.org/CodeSystem/measure-population","code":"denominator-exclusion","display":"Denominator Exclusion"}]},"count":0},{"code":{"coding":[{"system":"http://terminology.hl7.org/CodeSystem/measure-population","code":"numerator","display":"Numerator"}]},"count":0},{"code":{"coding":[{"system":"http://terminology.hl7.org/CodeSystem/measure-population","code":"denominator-exception","display":"Denominator Exception"}]},"count":0}]}]},"request":{"method":"PUT","url":"MeasureReport/b9234864-d0dd-4326-b976-f8b459f178bb"}}]}