{"resourceType":"Bundle","id":"tests-f6c7dbc1-9ca7-46cd-bcbe-29d8fae4e847-bundle","type":"transaction","entry":[{"fullUrl":"https://madie.cms.gov/Patient/f6c7dbc1-9ca7-46cd-bcbe-29d8fae4e847","resource":{"resourceType":"Patient","id":"f6c7dbc1-9ca7-46cd-bcbe-29d8fae4e847","meta":{"profile":["http://hl7.org/fhir/us/qicore/StructureDefinition/qicore-patient"]},"extension":[{"url":"http://hl7.org/fhir/us/core/StructureDefinition/us-core-race","extension":[{"url":"ombCategory","valueCoding":{"system":"urn:oid:2.16.840.1.113883.6.238","code":"2028-9","display":"Asian","userSelected":true}},{"url":"text","valueString":"Asian"}]},{"url":"http://hl7.org/fhir/us/core/StructureDefinition/us-core-ethnicity","extension":[{"url":"ombCategory","valueCoding":{"system":"urn:oid:2.16.840.1.113883.6.238","code":"2135-2","display":"Hispanic or Latino","userSelected":true}},{"url":"text","valueString":"Hispanic or Latino"}]}],"identifier":[{"type":{"coding":[{"system":"http://terminology.hl7.org/CodeSystem/v2-0203","code":"MR"}]},"system":"https://bonnie-fhir.healthit.gov/","value":"617bf36b1619a529957d62ca"}],"name":[{"family":"DenExcl8Fail","given":["AllergyStartsBeforeEndsBeforeED"]}],"gender":"male","birthDate":"1984-12-02"},"request":{"method":"PUT","url":"Patient/f6c7dbc1-9ca7-46cd-bcbe-29d8fae4e847"}},{"fullUrl":"https://madie.cms.gov/Encounter/emergency-department-visit-62c8","resource":{"resourceType":"Encounter","id":"7a6bab98-1460-4884-a513-d477ce77befa","meta":{"profile":["http://hl7.org/fhir/us/qicore/StructureDefinition/qicore-encounter"]},"status":"finished","class":{"system":"http://terminology.hl7.org/CodeSystem/v3-ActCode","code":"EMER","display":"emergency","userSelected":true},"type":[{"coding":[{"system":"http://snomed.info/sct","version":"2020-09","code":"4525004","display":"Emergency department patient visit (procedure)","userSelected":true}]}],"subject":{"reference":"Patient/f6c7dbc1-9ca7-46cd-bcbe-29d8fae4e847"},"period":{"start":"2025-10-09T08:05:00.000+00:00","end":"2025-10-10T07:15:00.000+00:00"},"reasonCode":[{"coding":[{"system":"http://snomed.info/sct","version":"2020-09","code":"703211006","display":"Subsequent ST segment elevation myocardial infarction (disorder)","userSelected":true}]}]},"request":{"method":"PUT","url":"Encounter/7a6bab98-1460-4884-a513-d477ce77befa"}},{"fullUrl":"https://madie.cms.gov/AllergyIntolerance/thrombolytic-medications-62c9","resource":{"resourceType":"AllergyIntolerance","id":"2b9cbc21-2065-41b6-a41f-550b1910a597","meta":{"profile":["http://hl7.org/fhir/us/qicore/StructureDefinition/qicore-allergyintolerance"]},"clinicalStatus":{"coding":[{"system":"http://terminology.hl7.org/CodeSystem/allergyintolerance-clinical","code":"active","display":"allergy-active","userSelected":true}]},"code":{"coding":[{"system":"http://www.nlm.nih.gov/research/umls/rxnorm","version":"2021-01","code":"10106","display":"streptokinase","userSelected":true}]},"patient":{"reference":"Patient/f6c7dbc1-9ca7-46cd-bcbe-29d8fae4e847"},"onsetPeriod":{"start":"2020-01-10T08:00:00.000+00:00","end":"2025-09-09T10:15:00.000+00:00"}},"request":{"method":"PUT","url":"AllergyIntolerance/2b9cbc21-2065-41b6-a41f-550b1910a597"}},{"fullUrl":"https://madie.cms.gov/MeasureReport/23fddff7-1bac-411f-95f0-3ea56c1c5480","resource":{"resourceType":"MeasureReport","id":"23fddff7-1bac-411f-95f0-3ea56c1c5480","meta":{"profile":["http://hl7.org/fhir/us/cqfmeasures/StructureDefinition/test-case-cqfm"]},"contained":[{"resourceType":"Parameters","id":"ac9a7c45-5c52-42b9-9e15-8f484848d309-parameters","parameter":[{"name":"subject","valueString":"f6c7dbc1-9ca7-46cd-bcbe-29d8fae4e847"}]}],"extension":[{"url":"http://hl7.org/fhir/us/cqfmeasures/StructureDefinition/cqfm-inputParameters","valueReference":{"reference":"#ac9a7c45-5c52-42b9-9e15-8f484848d309-parameters"}},{"url":"http://hl7.org/fhir/us/cqfmeasures/StructureDefinition/cqfm-testCaseDescription","valueMarkdown":"Patient has allergy to medication ingredient starts before and ends before ED"}],"modifierExtension":[{"url":"http://hl7.org/fhir/us/cqfmeasures/StructureDefinition/cqfm-isTestCase","valueBoolean":true}],"status":"complete","type":"individual","measure":"https://madie.cms.gov/Measure/AppropriateTreatmentforSTEMIFHIR","period":{"start":"2025-01-01","end":"2025-12-31"},"group":[{"population":[{"code":{"coding":[{"system":"http://terminology.hl7.org/CodeSystem/measure-population","code":"initial-population","display":"Initial Population"}]},"count":1},{"code":{"coding":[{"system":"http://terminology.hl7.org/CodeSystem/measure-population","code":"denominator","display":"Denominator"}]},"count":1},{"code":{"coding":[{"system":"http://terminology.hl7.org/CodeSystem/measure-population","code":"denominator-exclusion","display":"Denominator Exclusion"}]},"count":0},{"code":{"coding":[{"system":"http://terminology.hl7.org/CodeSystem/measure-population","code":"numerator","display":"Numerator"}]},"count":0},{"code":{"coding":[{"system":"http://terminology.hl7.org/CodeSystem/measure-population","code":"denominator-exception","display":"Denominator Exception"}]},"count":0}]}]},"request":{"method":"PUT","url":"MeasureReport/23fddff7-1bac-411f-95f0-3ea56c1c5480"}}]}