{"resourceType":"Bundle","id":"tests-ec9adac7-dfe7-4da4-874b-c75835d24f33-bundle","type":"transaction","entry":[{"fullUrl":"https://madie.cms.gov/Patient/ec9adac7-dfe7-4da4-874b-c75835d24f33","resource":{"resourceType":"Patient","id":"ec9adac7-dfe7-4da4-874b-c75835d24f33","meta":{"profile":["http://hl7.org/fhir/us/qicore/StructureDefinition/qicore-patient"]},"extension":[{"url":"http://hl7.org/fhir/us/core/StructureDefinition/us-core-race","extension":[{"url":"ombCategory","valueCoding":{"system":"urn:oid:2.16.840.1.113883.6.238","code":"2028-9","display":"Asian","userSelected":true}},{"url":"text","valueString":"Asian"}]},{"url":"http://hl7.org/fhir/us/core/StructureDefinition/us-core-ethnicity","extension":[{"url":"ombCategory","valueCoding":{"system":"urn:oid:2.16.840.1.113883.6.238","code":"2135-2","display":"Hispanic or Latino","userSelected":true}},{"url":"text","valueString":"Hispanic or Latino"}]}],"identifier":[{"type":{"coding":[{"system":"http://terminology.hl7.org/CodeSystem/v2-0203","code":"MR"}]},"system":"https://bonnie-fhir.healthit.gov/","value":"617bf9b81289f5673c8ceff7"}],"name":[{"family":"DenExcl8Pass","given":["AllergyStartsDuringEndsAfterED"]}],"gender":"male","birthDate":"1984-12-02"},"request":{"method":"PUT","url":"Patient/ec9adac7-dfe7-4da4-874b-c75835d24f33"}},{"fullUrl":"https://madie.cms.gov/Encounter/emergency-department-visit-62c8","resource":{"resourceType":"Encounter","id":"7049d17e-f9b9-48a1-bc33-935626e7399c","meta":{"profile":["http://hl7.org/fhir/us/qicore/StructureDefinition/qicore-encounter"]},"status":"finished","class":{"system":"http://terminology.hl7.org/CodeSystem/v3-ActCode","code":"EMER","display":"emergency","userSelected":true},"type":[{"coding":[{"system":"http://snomed.info/sct","version":"2020-09","code":"4525004","display":"Emergency department patient visit (procedure)","userSelected":true}]}],"subject":{"reference":"Patient/ec9adac7-dfe7-4da4-874b-c75835d24f33"},"period":{"start":"2025-10-09T08:05:00.000+00:00","end":"2025-10-10T07:15:00.000+00:00"},"reasonCode":[{"coding":[{"system":"http://snomed.info/sct","version":"2020-09","code":"703211006","display":"Subsequent ST segment elevation myocardial infarction (disorder)","userSelected":true}]}]},"request":{"method":"PUT","url":"Encounter/7049d17e-f9b9-48a1-bc33-935626e7399c"}},{"fullUrl":"https://madie.cms.gov/AllergyIntolerance/thrombolytic-medications-62c9","resource":{"resourceType":"AllergyIntolerance","id":"874c11d9-289a-4ba9-afbf-6082d1f17be0","meta":{"profile":["http://hl7.org/fhir/us/qicore/StructureDefinition/qicore-allergyintolerance"]},"clinicalStatus":{"coding":[{"system":"http://terminology.hl7.org/CodeSystem/allergyintolerance-clinical","code":"active","display":"allergy-active","userSelected":true}]},"code":{"coding":[{"system":"http://www.nlm.nih.gov/research/umls/rxnorm","version":"2021-01","code":"10106","display":"streptokinase","userSelected":true}]},"patient":{"reference":"Patient/ec9adac7-dfe7-4da4-874b-c75835d24f33"},"onsetPeriod":{"start":"2020-10-09T13:00:00.000+00:00","end":"2025-12-02T08:15:00.000+00:00"}},"request":{"method":"PUT","url":"AllergyIntolerance/874c11d9-289a-4ba9-afbf-6082d1f17be0"}},{"fullUrl":"https://madie.cms.gov/MeasureReport/3977266d-d2fe-453c-8a08-325096c3d538","resource":{"resourceType":"MeasureReport","id":"3977266d-d2fe-453c-8a08-325096c3d538","meta":{"profile":["http://hl7.org/fhir/us/cqfmeasures/StructureDefinition/test-case-cqfm"]},"contained":[{"resourceType":"Parameters","id":"fba8c81d-2b3f-42ba-a7ec-64b853c72088-parameters","parameter":[{"name":"subject","valueString":"ec9adac7-dfe7-4da4-874b-c75835d24f33"}]}],"extension":[{"url":"http://hl7.org/fhir/us/cqfmeasures/StructureDefinition/cqfm-inputParameters","valueReference":{"reference":"#fba8c81d-2b3f-42ba-a7ec-64b853c72088-parameters"}},{"url":"http://hl7.org/fhir/us/cqfmeasures/StructureDefinition/cqfm-testCaseDescription","valueMarkdown":"Patient has allergy to medication ingredient starts during and ends after ED"}],"modifierExtension":[{"url":"http://hl7.org/fhir/us/cqfmeasures/StructureDefinition/cqfm-isTestCase","valueBoolean":true}],"status":"complete","type":"individual","measure":"https://madie.cms.gov/Measure/AppropriateTreatmentforSTEMIFHIR","period":{"start":"2025-01-01","end":"2025-12-31"},"group":[{"population":[{"code":{"coding":[{"system":"http://terminology.hl7.org/CodeSystem/measure-population","code":"initial-population","display":"Initial Population"}]},"count":1},{"code":{"coding":[{"system":"http://terminology.hl7.org/CodeSystem/measure-population","code":"denominator","display":"Denominator"}]},"count":1},{"code":{"coding":[{"system":"http://terminology.hl7.org/CodeSystem/measure-population","code":"denominator-exclusion","display":"Denominator Exclusion"}]},"count":1},{"code":{"coding":[{"system":"http://terminology.hl7.org/CodeSystem/measure-population","code":"numerator","display":"Numerator"}]},"count":0},{"code":{"coding":[{"system":"http://terminology.hl7.org/CodeSystem/measure-population","code":"denominator-exception","display":"Denominator Exception"}]},"count":0}]}]},"request":{"method":"PUT","url":"MeasureReport/3977266d-d2fe-453c-8a08-325096c3d538"}}]}