{"resourceType":"Bundle","id":"tests-b4219e21-be97-4f81-8a31-fee0035179c8-bundle","type":"transaction","entry":[{"fullUrl":"https://madie.cms.gov/Patient/b4219e21-be97-4f81-8a31-fee0035179c8","resource":{"resourceType":"Patient","id":"b4219e21-be97-4f81-8a31-fee0035179c8","meta":{"profile":["http://hl7.org/fhir/us/qicore/StructureDefinition/qicore-patient"]},"extension":[{"url":"http://hl7.org/fhir/us/core/StructureDefinition/us-core-race","extension":[{"url":"ombCategory","valueCoding":{"system":"urn:oid:2.16.840.1.113883.6.238","code":"2054-5","display":"Black or African American","userSelected":true}},{"url":"text","valueString":"Black or African American"}]},{"url":"http://hl7.org/fhir/us/core/StructureDefinition/us-core-ethnicity","extension":[{"url":"ombCategory","valueCoding":{"system":"urn:oid:2.16.840.1.113883.6.238","code":"2186-5","display":"Not Hispanic or Latino","userSelected":true}},{"url":"text","valueString":"Not Hispanic or Latino"}]}],"identifier":[{"type":{"coding":[{"system":"http://terminology.hl7.org/CodeSystem/v2-0203","code":"MR"}]},"system":"https://bonnie-fhir.healthit.gov/","value":"NUMERPass-Fibrinolytic30minofEDstart"}],"name":[{"use":"usual","family":"NUMERPass","given":["Fibrinolytic30minofEDstart"]}],"gender":"female","birthDate":"1984-12-02"},"request":{"method":"PUT","url":"Patient/b4219e21-be97-4f81-8a31-fee0035179c8"}},{"fullUrl":"https://madie.cms.gov/Location/Location-4e15","resource":{"resourceType":"Location","id":"cf07e29a-8955-4e36-bfb5-5e19b125637b","meta":{"profile":["http://hl7.org/fhir/us/qicore/StructureDefinition/qicore-location"]},"identifier":[{"use":"usual","system":"http://exampleoflocation.com","value":"ED-1.R3"}],"name":"Emergency Department, first floor","type":[{"coding":[{"system":"http://snomed.info/sct","version":"20210611","code":"4525004","display":"Emergency department patient visit (procedure)","userSelected":true}]},{"coding":[{"system":"http://terminology.hl7.org/CodeSystem/v3-RoleCode","version":"2019","code":"ER","display":"Emergency room","userSelected":true}]},{"coding":[{"system":"https://www.cdc.gov/nhsn/cdaportal/terminology/codesystem/hsloc.html","version":"2022","code":"1108-0","display":"Emergency Department","userSelected":true}]}]},"request":{"method":"PUT","url":"Location/cf07e29a-8955-4e36-bfb5-5e19b125637b"}},{"fullUrl":"https://madie.cms.gov/Encounter/b4219e21-be97-4f81-8a31-fee0035179c9","resource":{"resourceType":"Encounter","id":"b4219e21-be97-4f81-8a31-fee0035179c9","meta":{"profile":["http://hl7.org/fhir/us/qicore/StructureDefinition/qicore-encounter"]},"status":"finished","class":{"system":"http://terminology.hl7.org/CodeSystem/v3-ActCode","code":"EMER","display":"emergency"},"type":[{"coding":[{"system":"http://snomed.info/sct","code":"4525004","display":"Emergency department patient visit (procedure)"}]}],"subject":{"reference":"Patient/b4219e21-be97-4f81-8a31-fee0035179c8"},"period":{"start":"2025-10-09T08:05:00.000+00:00","end":"2025-10-10T07:15:00.000+00:00"},"reasonReference":[{"reference":"Condition/b4219e21-be97-4f81-8a31-fee0035179c6-1"}],"diagnosis":[{"condition":{"reference":"Condition/b4219e21-be97-4f81-8a31-fee0035179c8-2"}}],"location":[{"location":{"reference":"Location/Location-4e15"},"period":{"start":"2025-10-09T08:05:00.000+00:00","end":"2025-10-10T07:15:00.000+00:00"}}]},"request":{"method":"PUT","url":"Encounter/b4219e21-be97-4f81-8a31-fee0035179c9"}},{"fullUrl":"https://madie.cms.gov/Condition/b4219e21-be97-4f81-8a31-fee0035179c6-1","resource":{"resourceType":"Condition","id":"3bc9955f-f660-486a-8eb1-64cf32ffdde6","meta":{"profile":["http://hl7.org/fhir/us/qicore/StructureDefinition/qicore-condition"]},"clinicalStatus":{"coding":[{"system":"http://terminology.hl7.org/CodeSystem/condition-clinical","code":"active","display":"Active","userSelected":true}]},"verificationStatus":{"coding":[{"system":"http://terminology.hl7.org/CodeSystem/condition-ver-status","code":"confirmed","display":"Confirmed","userSelected":true}]},"category":[{"coding":[{"system":"http://terminology.hl7.org/CodeSystem/condition-category","code":"problem-list-item","display":"Problem List Item","userSelected":true}]}],"code":{"coding":[{"system":"http://snomed.info/sct","code":"401303003","display":"Acute ST segment elevation myocardial infarction (disorder)","userSelected":true}]},"subject":{"reference":"Patient/b4219e21-be97-4f81-8a31-fee0035179c8"},"onsetPeriod":{"start":"2025-10-09T08:10:00.000+00:00"}},"request":{"method":"PUT","url":"Condition/3bc9955f-f660-486a-8eb1-64cf32ffdde6"}},{"fullUrl":"https://madie.cms.gov/Condition/b4219e21-be97-4f81-8a31-fee0035179c8-2","resource":{"resourceType":"Condition","id":"b7e5307c-275b-4a4c-ba02-a0d278758fc9","meta":{"profile":["http://hl7.org/fhir/us/qicore/StructureDefinition/qicore-condition"]},"clinicalStatus":{"coding":[{"system":"http://terminology.hl7.org/CodeSystem/condition-clinical","code":"active","display":"Active","userSelected":true}]},"verificationStatus":{"coding":[{"system":"http://terminology.hl7.org/CodeSystem/condition-ver-status","code":"confirmed","display":"Confirmed","userSelected":true}]},"category":[{"coding":[{"system":"http://terminology.hl7.org/CodeSystem/condition-category","code":"encounter-diagnosis","display":"Encounter Diagnosis","userSelected":true}]}],"code":{"coding":[{"system":"http://hl7.org/fhir/sid/icd-10-cm","code":"I21.09","display":"ST elevation (STEMI) myocardial infarction involving other coronary artery of anterior wall","userSelected":true}]},"subject":{"reference":"Patient/b4219e21-be97-4f81-8a31-fee0035179c8"},"onsetPeriod":{"start":"2025-10-09T08:10:00.000+00:00"}},"request":{"method":"PUT","url":"Condition/b7e5307c-275b-4a4c-ba02-a0d278758fc9"}},{"fullUrl":"https://madie.cms.gov/MedicationAdministration/b4219e21-be97-4f81-8a31-fee0035179c4","resource":{"resourceType":"MedicationAdministration","id":"b4219e21-be97-4f81-8a31-fee0035179c4","meta":{"profile":["http://hl7.org/fhir/us/qicore/StructureDefinition/qicore-medicationadministration"]},"status":"completed","medicationCodeableConcept":{"coding":[{"system":"http://www.nlm.nih.gov/research/umls/rxnorm","version":"2023-07","code":"1804804","display":"alteplase 50 MG Injection","userSelected":true}]},"subject":{"reference":"Patient/b4219e21-be97-4f81-8a31-fee0035179c8"},"effectiveDateTime":"2025-10-09T08:35:00.000+00:00"},"request":{"method":"PUT","url":"MedicationAdministration/b4219e21-be97-4f81-8a31-fee0035179c4"}},{"fullUrl":"https://madie.cms.gov/Coverage/b4219e21-be97-4f81-8a31-fee0035179c3","resource":{"resourceType":"Coverage","id":"b4219e21-be97-4f81-8a31-fee0035179c3","meta":{"profile":["http://hl7.org/fhir/us/qicore/StructureDefinition/qicore-coverage"]},"status":"active","type":{"coding":[{"system":"https://nahdo.org/sopt","code":"1","display":"MEDICARE"}]},"beneficiary":{"reference":"Patient/b4219e21-be97-4f81-8a31-fee0035179c8"},"payor":[{"reference":"Organization/4b5a882f-1f43-485c-85c6-f5ad2337d5b1"}]},"request":{"method":"PUT","url":"Coverage/b4219e21-be97-4f81-8a31-fee0035179c3"}},{"fullUrl":"https://madie.cms.gov/Organization/b4219e21-be97-4f81-8a31-fee0035179c2","resource":{"resourceType":"Organization","id":"4b5a882f-1f43-485c-85c6-f5ad2337d5b1","meta":{"profile":["http://hl7.org/fhir/us/qicore/StructureDefinition/qicore-organization"]},"identifier":[{"use":"temp","system":"urn:oid:2.16.840.1.113883.4.4","value":"21-3259825"}],"active":true,"type":[{"coding":[{"system":"http://terminology.hl7.org/CodeSystem/organization-type","code":"pay","display":"Payer"}]}],"name":"Blue Cross Blue Shield of Texas","telecom":[{"system":"phone","value":"(+1) 972-766-6900"}],"address":[{"use":"billing","type":"postal","line":["P.O. Box 660044"],"city":"Dallas","state":"TX","postalCode":"75266-0044","country":"USA"}]},"request":{"method":"PUT","url":"Organization/4b5a882f-1f43-485c-85c6-f5ad2337d5b1"}},{"fullUrl":"https://madie.cms.gov/Practitioner/b4219e21-be97-4f81-8a31-fee0035179c1","resource":{"resourceType":"Practitioner","id":"b4219e21-be97-4f81-8a31-fee0035179c1","meta":{"profile":["http://hl7.org/fhir/us/qicore/StructureDefinition/qicore-practitioner"]},"identifier":[{"system":"http://hl7.org/fhir/sid/us-npi","value":"123456"}],"name":[{"family":"Evil","prefix":["Dr"]}]},"request":{"method":"PUT","url":"Practitioner/b4219e21-be97-4f81-8a31-fee0035179c1"}},{"fullUrl":"https://madie.cms.gov/MeasureReport/f09a91e0-297d-49cf-99bc-9a62e3a0560f","resource":{"resourceType":"MeasureReport","id":"f09a91e0-297d-49cf-99bc-9a62e3a0560f","meta":{"profile":["http://hl7.org/fhir/us/cqfmeasures/StructureDefinition/test-case-cqfm"]},"contained":[{"resourceType":"Parameters","id":"e93c8023-efed-4d80-bccb-a27e05dacce0-parameters","parameter":[{"name":"subject","valueString":"b4219e21-be97-4f81-8a31-fee0035179c8"}]}],"extension":[{"url":"http://hl7.org/fhir/us/cqfmeasures/StructureDefinition/cqfm-inputParameters","valueReference":{"reference":"#e93c8023-efed-4d80-bccb-a27e05dacce0-parameters"}},{"url":"http://hl7.org/fhir/us/cqfmeasures/StructureDefinition/cqfm-testCaseDescription","valueMarkdown":"Fibrinolytic Therapy 30 minutes of ED start"}],"modifierExtension":[{"url":"http://hl7.org/fhir/us/cqfmeasures/StructureDefinition/cqfm-isTestCase","valueBoolean":true}],"status":"complete","type":"individual","measure":"https://madie.cms.gov/Measure/AppropriateTreatmentforSTEMIFHIR","period":{"start":"2025-01-01","end":"2025-12-31"},"group":[{"population":[{"code":{"coding":[{"system":"http://terminology.hl7.org/CodeSystem/measure-population","code":"initial-population","display":"Initial Population"}]},"count":1},{"code":{"coding":[{"system":"http://terminology.hl7.org/CodeSystem/measure-population","code":"denominator","display":"Denominator"}]},"count":1},{"code":{"coding":[{"system":"http://terminology.hl7.org/CodeSystem/measure-population","code":"denominator-exclusion","display":"Denominator Exclusion"}]},"count":0},{"code":{"coding":[{"system":"http://terminology.hl7.org/CodeSystem/measure-population","code":"numerator","display":"Numerator"}]},"count":1},{"code":{"coding":[{"system":"http://terminology.hl7.org/CodeSystem/measure-population","code":"denominator-exception","display":"Denominator Exception"}]},"count":0}]}]},"request":{"method":"PUT","url":"MeasureReport/f09a91e0-297d-49cf-99bc-9a62e3a0560f"}}]}