{"resourceType":"Bundle","id":"tests-b05b93b0-e1a1-4b6e-b905-171d4bca2775-bundle","type":"transaction","entry":[{"fullUrl":"https://madie.cms.gov/Patient/b05b93b0-e1a1-4b6e-b905-171d4bca2775","resource":{"resourceType":"Patient","id":"b05b93b0-e1a1-4b6e-b905-171d4bca2775","meta":{"profile":["http://hl7.org/fhir/us/qicore/StructureDefinition/qicore-patient"]},"extension":[{"url":"http://hl7.org/fhir/us/core/StructureDefinition/us-core-race","extension":[{"url":"ombCategory","valueCoding":{"system":"urn:oid:2.16.840.1.113883.6.238","code":"2054-5","display":"Black or African American","userSelected":true}},{"url":"text","valueString":"Black or African American"}]},{"url":"http://hl7.org/fhir/us/core/StructureDefinition/us-core-ethnicity","extension":[{"url":"ombCategory","valueCoding":{"system":"urn:oid:2.16.840.1.113883.6.238","code":"2186-5","display":"Not Hispanic or Latino","userSelected":true}},{"url":"text","valueString":"Not Hispanic or Latino"}]}],"identifier":[{"type":{"coding":[{"system":"http://terminology.hl7.org/CodeSystem/v2-0203","code":"MR"}]},"system":"https://bonnie-fhir.healthit.gov/","value":"617bf0b11619a529957d62c3"}],"name":[{"family":"DenExcl7Pass","given":["DxStartsDuring90dayPeriodNoEnd"]}],"gender":"female","birthDate":"1984-12-02"},"request":{"method":"PUT","url":"Patient/b05b93b0-e1a1-4b6e-b905-171d4bca2775"}},{"fullUrl":"https://madie.cms.gov/Encounter/emergency-department-visit-330a","resource":{"resourceType":"Encounter","id":"4574d0fb-6f01-4855-93c4-f3b3279dc4fb","meta":{"profile":["http://hl7.org/fhir/us/qicore/StructureDefinition/qicore-encounter"]},"status":"finished","class":{"system":"http://terminology.hl7.org/CodeSystem/v3-ActCode","code":"EMER","display":"emergency","userSelected":true},"type":[{"coding":[{"system":"http://snomed.info/sct","version":"2020-09","code":"4525004","display":"Emergency department patient visit (procedure)","userSelected":true}]}],"subject":{"reference":"Patient/b05b93b0-e1a1-4b6e-b905-171d4bca2775"},"period":{"start":"2025-10-09T08:05:00.000+00:00","end":"2025-10-10T07:15:00.000+00:00"}},"request":{"method":"PUT","url":"Encounter/4574d0fb-6f01-4855-93c4-f3b3279dc4fb"}},{"fullUrl":"https://madie.cms.gov/Condition/stemi-330b","resource":{"resourceType":"Condition","id":"cfa8fd4b-c2ad-45d2-9d78-4279abe19c03","meta":{"profile":["http://hl7.org/fhir/us/qicore/StructureDefinition/qicore-condition"]},"clinicalStatus":{"coding":[{"system":"http://terminology.hl7.org/CodeSystem/condition-clinical","code":"active","display":"active","userSelected":true}]},"category":[{"coding":[{"system":"http://terminology.hl7.org/CodeSystem/condition-category","code":"encounter-diagnosis","display":"Encounter Diagnosis","userSelected":true}]}],"code":{"coding":[{"system":"http://snomed.info/sct","version":"2020-09","code":"401303003","display":"Acute ST segment elevation myocardial infarction (disorder)","userSelected":true}]},"subject":{"reference":"Patient/b05b93b0-e1a1-4b6e-b905-171d4bca2775"},"onsetDateTime":"2025-10-09T08:30:00.000+00:00"},"request":{"method":"PUT","url":"Condition/cfa8fd4b-c2ad-45d2-9d78-4279abe19c03"}},{"fullUrl":"https://madie.cms.gov/Condition/active-peptic-ulcer-62c4","resource":{"resourceType":"Condition","id":"f848d300-d72e-4a60-b71e-80bcfd5cfe57","meta":{"profile":["http://hl7.org/fhir/us/qicore/StructureDefinition/qicore-condition"]},"clinicalStatus":{"coding":[{"system":"http://terminology.hl7.org/CodeSystem/condition-clinical","code":"active","display":"active","userSelected":true}]},"category":[{"coding":[{"system":"http://terminology.hl7.org/CodeSystem/condition-category","code":"problem-list-item","display":"Problem List Item","userSelected":true}]}],"code":{"coding":[{"system":"http://snomed.info/sct","version":"2020-09","code":"111353003","display":"Acute peptic ulcer with hemorrhage and perforation (disorder)","userSelected":true}]},"subject":{"reference":"Patient/b05b93b0-e1a1-4b6e-b905-171d4bca2775"},"onsetDateTime":"2025-08-20T08:00:00.000+00:00"},"request":{"method":"PUT","url":"Condition/f848d300-d72e-4a60-b71e-80bcfd5cfe57"}},{"fullUrl":"https://madie.cms.gov/MeasureReport/68e896a2-4608-45db-8582-01019a07f973","resource":{"resourceType":"MeasureReport","id":"68e896a2-4608-45db-8582-01019a07f973","meta":{"profile":["http://hl7.org/fhir/us/cqfmeasures/StructureDefinition/test-case-cqfm"]},"contained":[{"resourceType":"Parameters","id":"0b94ff1c-5b96-4a1c-b32c-f32cecb6dd9a-parameters","parameter":[{"name":"subject","valueString":"b05b93b0-e1a1-4b6e-b905-171d4bca2775"}]}],"extension":[{"url":"http://hl7.org/fhir/us/cqfmeasures/StructureDefinition/cqfm-inputParameters","valueReference":{"reference":"#0b94ff1c-5b96-4a1c-b32c-f32cecb6dd9a-parameters"}},{"url":"http://hl7.org/fhir/us/cqfmeasures/StructureDefinition/cqfm-testCaseDescription","valueMarkdown":"Patient has active peptic ulcer (exclusion diagnosis) starts during 90 day period and no end"}],"modifierExtension":[{"url":"http://hl7.org/fhir/us/cqfmeasures/StructureDefinition/cqfm-isTestCase","valueBoolean":true}],"status":"complete","type":"individual","measure":"https://madie.cms.gov/Measure/AppropriateTreatmentforSTEMIFHIR","period":{"start":"2025-01-01","end":"2025-12-31"},"group":[{"population":[{"code":{"coding":[{"system":"http://terminology.hl7.org/CodeSystem/measure-population","code":"initial-population","display":"Initial Population"}]},"count":1},{"code":{"coding":[{"system":"http://terminology.hl7.org/CodeSystem/measure-population","code":"denominator","display":"Denominator"}]},"count":1},{"code":{"coding":[{"system":"http://terminology.hl7.org/CodeSystem/measure-population","code":"denominator-exclusion","display":"Denominator Exclusion"}]},"count":1},{"code":{"coding":[{"system":"http://terminology.hl7.org/CodeSystem/measure-population","code":"numerator","display":"Numerator"}]},"count":0},{"code":{"coding":[{"system":"http://terminology.hl7.org/CodeSystem/measure-population","code":"denominator-exception","display":"Denominator Exception"}]},"count":0}]}]},"request":{"method":"PUT","url":"MeasureReport/68e896a2-4608-45db-8582-01019a07f973"}}]}