{"resourceType":"Bundle","id":"tests-a1b8c5f2-f17a-411e-bf2f-7da72f4a5f12-bundle","type":"transaction","entry":[{"fullUrl":"https://madie.cms.gov/Patient/a1b8c5f2-f17a-411e-bf2f-7da72f4a5f12","resource":{"resourceType":"Patient","id":"a1b8c5f2-f17a-411e-bf2f-7da72f4a5f12","meta":{"profile":["http://hl7.org/fhir/us/qicore/StructureDefinition/qicore-patient"]},"extension":[{"url":"http://hl7.org/fhir/us/core/StructureDefinition/us-core-race","extension":[{"url":"ombCategory","valueCoding":{"system":"urn:oid:2.16.840.1.113883.6.238","code":"2028-9","display":"Asian","userSelected":true}},{"url":"text","valueString":"Asian"}]},{"url":"http://hl7.org/fhir/us/core/StructureDefinition/us-core-ethnicity","extension":[{"url":"ombCategory","valueCoding":{"system":"urn:oid:2.16.840.1.113883.6.238","code":"2135-2","display":"Hispanic or Latino","userSelected":true}},{"url":"text","valueString":"Hispanic or Latino"}]}],"identifier":[{"type":{"coding":[{"system":"http://terminology.hl7.org/CodeSystem/v2-0203","code":"MR"}]},"system":"https://bonnie-fhir.healthit.gov/","value":"617bf3ae1619a529957d62cb"}],"name":[{"family":"DenExcl8Fail","given":["AllergyStartsBeforeEndsDuringED"]}],"gender":"male","birthDate":"1984-12-02"},"request":{"method":"PUT","url":"Patient/a1b8c5f2-f17a-411e-bf2f-7da72f4a5f12"}},{"fullUrl":"https://madie.cms.gov/Encounter/emergency-department-visit-62c8","resource":{"resourceType":"Encounter","id":"d292db0a-9e22-4582-9635-a7def2e50e3f","meta":{"profile":["http://hl7.org/fhir/us/qicore/StructureDefinition/qicore-encounter"]},"status":"finished","class":{"system":"http://terminology.hl7.org/CodeSystem/v3-ActCode","code":"EMER","display":"emergency","userSelected":true},"type":[{"coding":[{"system":"http://snomed.info/sct","version":"2020-09","code":"4525004","display":"Emergency department patient visit (procedure)","userSelected":true}]}],"subject":{"reference":"Patient/a1b8c5f2-f17a-411e-bf2f-7da72f4a5f12"},"period":{"start":"2025-10-09T08:05:00.000+00:00","end":"2025-10-10T07:15:00.000+00:00"},"reasonCode":[{"coding":[{"system":"http://snomed.info/sct","version":"2020-09","code":"703211006","display":"Subsequent ST segment elevation myocardial infarction (disorder)","userSelected":true}]}]},"request":{"method":"PUT","url":"Encounter/d292db0a-9e22-4582-9635-a7def2e50e3f"}},{"fullUrl":"https://madie.cms.gov/AllergyIntolerance/thrombolytic-medications-62c9","resource":{"resourceType":"AllergyIntolerance","id":"2834f1b8-2583-463b-b786-502394c7c104","meta":{"profile":["http://hl7.org/fhir/us/qicore/StructureDefinition/qicore-allergyintolerance"]},"clinicalStatus":{"coding":[{"system":"http://terminology.hl7.org/CodeSystem/allergyintolerance-clinical","code":"active","display":"allergy-active","userSelected":true}]},"code":{"coding":[{"system":"http://www.nlm.nih.gov/research/umls/rxnorm","version":"2021-01","code":"10106","display":"streptokinase","userSelected":true}]},"patient":{"reference":"Patient/a1b8c5f2-f17a-411e-bf2f-7da72f4a5f12"},"onsetPeriod":{"start":"2020-01-10T08:00:00.000+00:00","end":"2025-10-09T10:15:00.000+00:00"}},"request":{"method":"PUT","url":"AllergyIntolerance/2834f1b8-2583-463b-b786-502394c7c104"}},{"fullUrl":"https://madie.cms.gov/MeasureReport/c946824f-b2e2-41da-a1b5-1509dc5b77e4","resource":{"resourceType":"MeasureReport","id":"c946824f-b2e2-41da-a1b5-1509dc5b77e4","meta":{"profile":["http://hl7.org/fhir/us/cqfmeasures/StructureDefinition/test-case-cqfm"]},"contained":[{"resourceType":"Parameters","id":"c5833524-3918-4eb6-9743-f3d348342fda-parameters","parameter":[{"name":"subject","valueString":"a1b8c5f2-f17a-411e-bf2f-7da72f4a5f12"}]}],"extension":[{"url":"http://hl7.org/fhir/us/cqfmeasures/StructureDefinition/cqfm-inputParameters","valueReference":{"reference":"#c5833524-3918-4eb6-9743-f3d348342fda-parameters"}},{"url":"http://hl7.org/fhir/us/cqfmeasures/StructureDefinition/cqfm-testCaseDescription","valueMarkdown":"Patient has allergy to medication ingredient starts before and ends during ED"}],"modifierExtension":[{"url":"http://hl7.org/fhir/us/cqfmeasures/StructureDefinition/cqfm-isTestCase","valueBoolean":true}],"status":"complete","type":"individual","measure":"https://madie.cms.gov/Measure/AppropriateTreatmentforSTEMIFHIR","period":{"start":"2025-01-01","end":"2025-12-31"},"group":[{"population":[{"code":{"coding":[{"system":"http://terminology.hl7.org/CodeSystem/measure-population","code":"initial-population","display":"Initial Population"}]},"count":1},{"code":{"coding":[{"system":"http://terminology.hl7.org/CodeSystem/measure-population","code":"denominator","display":"Denominator"}]},"count":1},{"code":{"coding":[{"system":"http://terminology.hl7.org/CodeSystem/measure-population","code":"denominator-exclusion","display":"Denominator Exclusion"}]},"count":1},{"code":{"coding":[{"system":"http://terminology.hl7.org/CodeSystem/measure-population","code":"numerator","display":"Numerator"}]},"count":0},{"code":{"coding":[{"system":"http://terminology.hl7.org/CodeSystem/measure-population","code":"denominator-exception","display":"Denominator Exception"}]},"count":0}]}]},"request":{"method":"PUT","url":"MeasureReport/c946824f-b2e2-41da-a1b5-1509dc5b77e4"}}]}