{"resourceType":"Bundle","id":"tests-6484a0f5-3f9c-4df9-94b3-2f5c9b95638a-bundle","type":"transaction","entry":[{"fullUrl":"https://madie.cms.gov/Patient/6484a0f5-3f9c-4df9-94b3-2f5c9b95638a","resource":{"resourceType":"Patient","id":"6484a0f5-3f9c-4df9-94b3-2f5c9b95638a","meta":{"profile":["http://hl7.org/fhir/us/qicore/StructureDefinition/qicore-patient"]},"extension":[{"url":"http://hl7.org/fhir/us/core/StructureDefinition/us-core-race","extension":[{"url":"ombCategory","valueCoding":{"system":"urn:oid:2.16.840.1.113883.6.238","code":"2076-8","display":"Native Hawaiian or Other Pacific Islander","userSelected":true}},{"url":"text","valueString":"Native Hawaiian or Other Pacific Islander"}]},{"url":"http://hl7.org/fhir/us/core/StructureDefinition/us-core-ethnicity","extension":[{"url":"ombCategory","valueCoding":{"system":"urn:oid:2.16.840.1.113883.6.238","code":"2186-5","display":"Not Hispanic or Latino","userSelected":true}},{"url":"text","valueString":"Not Hispanic or Latino"}]}],"identifier":[{"type":{"coding":[{"system":"http://terminology.hl7.org/CodeSystem/v2-0203","code":"MR"}]},"system":"https://bonnie-fhir.healthit.gov/","value":"6179ea13ad1a790b7af75251"}],"name":[{"family":"DenExcl2Fail","given":["PxExclStartsBeforeEndsBeforeED"]}],"gender":"female","birthDate":"1984-12-02"},"request":{"method":"PUT","url":"Patient/6484a0f5-3f9c-4df9-94b3-2f5c9b95638a"}},{"fullUrl":"https://madie.cms.gov/Encounter/emergency-department-visit-330a","resource":{"resourceType":"Encounter","id":"41d1de08-32bd-4e14-b6ba-5402dbadadb8","meta":{"profile":["http://hl7.org/fhir/us/qicore/StructureDefinition/qicore-encounter"]},"status":"finished","class":{"system":"http://terminology.hl7.org/CodeSystem/v3-ActCode","code":"EMER","display":"emergency","userSelected":true},"type":[{"coding":[{"system":"http://snomed.info/sct","version":"2020-09","code":"4525004","display":"Emergency department patient visit (procedure)","userSelected":true}]}],"subject":{"reference":"Patient/6484a0f5-3f9c-4df9-94b3-2f5c9b95638a"},"period":{"start":"2025-10-09T08:05:00.000+00:00","end":"2025-10-10T07:15:00.000+00:00"}},"request":{"method":"PUT","url":"Encounter/41d1de08-32bd-4e14-b6ba-5402dbadadb8"}},{"fullUrl":"https://madie.cms.gov/Condition/stemi-330b","resource":{"resourceType":"Condition","id":"57e3680e-ad81-4ade-99b3-f23a6b96f963","meta":{"profile":["http://hl7.org/fhir/us/qicore/StructureDefinition/qicore-condition"]},"clinicalStatus":{"coding":[{"system":"http://terminology.hl7.org/CodeSystem/condition-clinical","code":"active","display":"active","userSelected":true}]},"category":[{"coding":[{"system":"http://terminology.hl7.org/CodeSystem/condition-category","code":"encounter-diagnosis","display":"Encounter Diagnosis","userSelected":true}]}],"code":{"coding":[{"system":"http://snomed.info/sct","version":"2020-09","code":"401303003","display":"Acute ST segment elevation myocardial infarction (disorder)","userSelected":true}]},"subject":{"reference":"Patient/6484a0f5-3f9c-4df9-94b3-2f5c9b95638a"},"onsetDateTime":"2025-10-09T08:30:00.000+00:00"},"request":{"method":"PUT","url":"Condition/57e3680e-ad81-4ade-99b3-f23a6b96f963"}},{"fullUrl":"https://madie.cms.gov/Procedure/endotracheal-intubation-524f","resource":{"resourceType":"Procedure","id":"c3fcbd53-12ee-4168-bbec-a24d4c06aef1","meta":{"profile":["http://hl7.org/fhir/us/qicore/StructureDefinition/qicore-procedure"]},"extension":[{"url":"http://hl7.org/fhir/us/qicore/StructureDefinition/qicore-recorded","valueDateTime":"2025-10-02T09:15:00.000+00:00"}],"status":"completed","category":{"coding":[{"system":"http://snomed.info/sct","code":"387713003","display":"Surgical procedure","userSelected":true}]},"code":{"coding":[{"system":"http://www.icd10data.com/icd10pcs","code":"5A1955Z","userSelected":true}]},"subject":{"reference":"Patient/6484a0f5-3f9c-4df9-94b3-2f5c9b95638a"},"performedPeriod":{"start":"2025-10-01T13:15:00.000+00:00","end":"2025-10-02T09:15:00.000+00:00"}},"request":{"method":"PUT","url":"Procedure/c3fcbd53-12ee-4168-bbec-a24d4c06aef1"}},{"fullUrl":"https://madie.cms.gov/MeasureReport/1e70f027-485f-46f4-9203-ab62b82b2018","resource":{"resourceType":"MeasureReport","id":"1e70f027-485f-46f4-9203-ab62b82b2018","meta":{"profile":["http://hl7.org/fhir/us/cqfmeasures/StructureDefinition/test-case-cqfm"]},"contained":[{"resourceType":"Parameters","id":"afd64456-4725-4652-8115-edeeadc8d9af-parameters","parameter":[{"name":"subject","valueString":"6484a0f5-3f9c-4df9-94b3-2f5c9b95638a"}]}],"extension":[{"url":"http://hl7.org/fhir/us/cqfmeasures/StructureDefinition/cqfm-inputParameters","valueReference":{"reference":"#afd64456-4725-4652-8115-edeeadc8d9af-parameters"}},{"url":"http://hl7.org/fhir/us/cqfmeasures/StructureDefinition/cqfm-testCaseDescription","valueMarkdown":"Patient has endotracheal intubation (exclusion procedure) that starts before and ends before the ED encounter"}],"modifierExtension":[{"url":"http://hl7.org/fhir/us/cqfmeasures/StructureDefinition/cqfm-isTestCase","valueBoolean":true}],"status":"complete","type":"individual","measure":"https://madie.cms.gov/Measure/AppropriateTreatmentforSTEMIFHIR","period":{"start":"2025-01-01","end":"2025-12-31"},"group":[{"population":[{"code":{"coding":[{"system":"http://terminology.hl7.org/CodeSystem/measure-population","code":"initial-population","display":"Initial Population"}]},"count":1},{"code":{"coding":[{"system":"http://terminology.hl7.org/CodeSystem/measure-population","code":"denominator","display":"Denominator"}]},"count":1},{"code":{"coding":[{"system":"http://terminology.hl7.org/CodeSystem/measure-population","code":"denominator-exclusion","display":"Denominator Exclusion"}]},"count":0},{"code":{"coding":[{"system":"http://terminology.hl7.org/CodeSystem/measure-population","code":"numerator","display":"Numerator"}]},"count":0},{"code":{"coding":[{"system":"http://terminology.hl7.org/CodeSystem/measure-population","code":"denominator-exception","display":"Denominator Exception"}]},"count":0}]}]},"request":{"method":"PUT","url":"MeasureReport/1e70f027-485f-46f4-9203-ab62b82b2018"}}]}