{"resourceType":"Bundle","id":"tests-f201c67a-4099-4075-9634-c762fa2bfaa2-bundle","type":"transaction","entry":[{"fullUrl":"https://madie.cms.gov/Patient/f201c67a-4099-4075-9634-c762fa2bfaa2","resource":{"resourceType":"Patient","id":"f201c67a-4099-4075-9634-c762fa2bfaa2","meta":{"profile":["http://hl7.org/fhir/us/qicore/StructureDefinition/qicore-patient"]},"extension":[{"url":"http://hl7.org/fhir/us/core/StructureDefinition/us-core-race","extension":[{"url":"ombCategory","valueCoding":{"system":"urn:oid:2.16.840.1.113883.6.238","code":"2028-9","display":"Asian","userSelected":true}},{"url":"text","valueString":"Asian"}]},{"url":"http://hl7.org/fhir/us/core/StructureDefinition/us-core-ethnicity","extension":[{"url":"ombCategory","valueCoding":{"system":"urn:oid:2.16.840.1.113883.6.238","code":"2186-5","display":"Not Hispanic or Latino","userSelected":true}},{"url":"text","valueString":"Not Hispanic or Latino"}]}],"identifier":[{"type":{"coding":[{"system":"http://terminology.hl7.org/CodeSystem/v2-0203","code":"MR"}]},"system":"https://bonnie-fhir.healthit.gov/","value":"617be5e81619a529957d62b2"}],"name":[{"family":"DenExcl6Pass","given":["MedStarts7DBeforeED"]}],"gender":"female","birthDate":"1984-12-02"},"request":{"method":"PUT","url":"Patient/f201c67a-4099-4075-9634-c762fa2bfaa2"}},{"fullUrl":"https://madie.cms.gov/Encounter/emergency-department-visit-62b0","resource":{"resourceType":"Encounter","id":"f3d7f499-5a9c-4c00-98b8-7b95024bd0f2","meta":{"profile":["http://hl7.org/fhir/us/qicore/StructureDefinition/qicore-encounter"]},"status":"finished","class":{"system":"http://terminology.hl7.org/CodeSystem/v3-ActCode","code":"EMER","display":"emergency","userSelected":true},"type":[{"coding":[{"system":"http://snomed.info/sct","version":"2020-09","code":"4525004","display":"Emergency department patient visit (procedure)","userSelected":true}]}],"subject":{"reference":"Patient/f201c67a-4099-4075-9634-c762fa2bfaa2"},"period":{"start":"2025-10-09T08:05:00.000+00:00","end":"2025-10-10T07:15:00.000+00:00"},"reasonCode":[{"coding":[{"system":"http://hl7.org/fhir/sid/icd-10-cm","version":"2021","code":"I21.02","display":"ST elevation (STEMI) myocardial infarction involving left anterior descending coronary artery","userSelected":true}]}]},"request":{"method":"PUT","url":"Encounter/f3d7f499-5a9c-4c00-98b8-7b95024bd0f2"}},{"fullUrl":"https://madie.cms.gov/MedicationRequest/anticoagulant-medications-oral-62b1","resource":{"resourceType":"MedicationRequest","id":"ad8986b9-9cd6-46f4-ac8f-91d397531c47","meta":{"profile":["http://hl7.org/fhir/us/qicore/StructureDefinition/qicore-medicationrequest"]},"status":"active","intent":"order","category":[{"coding":[{"system":"http://terminology.hl7.org/CodeSystem/medicationrequest-category","code":"inpatient","display":"Inpatient","userSelected":true}]}],"medicationCodeableConcept":{"coding":[{"system":"http://www.nlm.nih.gov/research/umls/rxnorm","version":"2021-01","code":"2059015","display":"rivaroxaban 2.5 MG Oral Tablet","userSelected":true}]},"subject":{"reference":"Patient/f201c67a-4099-4075-9634-c762fa2bfaa2"},"authoredOn":"2025-10-02T08:00:00.000+00:00","requester":{"reference":"Practitioner/practitioner-123456"}},"request":{"method":"PUT","url":"MedicationRequest/ad8986b9-9cd6-46f4-ac8f-91d397531c47"}},{"fullUrl":"https://madie.cms.gov/Practitioner/practitioner-123456","resource":{"resourceType":"Practitioner","id":"4ce89153-b00f-4367-8279-e5fb81f3aa4a","meta":{"profile":["http://hl7.org/fhir/us/qicore/StructureDefinition/qicore-practitioner"]},"identifier":[{"system":"http://hl7.org/fhir/sid/us-npi","value":"123456"}],"name":[{"family":"Evil","prefix":["Dr"]}]},"request":{"method":"PUT","url":"Practitioner/4ce89153-b00f-4367-8279-e5fb81f3aa4a"}},{"fullUrl":"https://madie.cms.gov/MeasureReport/157b902b-fbdf-49f1-a537-a280d7c143b8","resource":{"resourceType":"MeasureReport","id":"157b902b-fbdf-49f1-a537-a280d7c143b8","meta":{"profile":["http://hl7.org/fhir/us/cqfmeasures/StructureDefinition/test-case-cqfm"]},"contained":[{"resourceType":"Parameters","id":"96e72f42-58bd-4750-bdca-8702f77afa93-parameters","parameter":[{"name":"subject","valueString":"f201c67a-4099-4075-9634-c762fa2bfaa2"}]}],"extension":[{"url":"http://hl7.org/fhir/us/cqfmeasures/StructureDefinition/cqfm-inputParameters","valueReference":{"reference":"#96e72f42-58bd-4750-bdca-8702f77afa93-parameters"}},{"url":"http://hl7.org/fhir/us/cqfmeasures/StructureDefinition/cqfm-testCaseDescription","valueMarkdown":"Patient has anticoagulant medication starts 7D before ED"}],"modifierExtension":[{"url":"http://hl7.org/fhir/us/cqfmeasures/StructureDefinition/cqfm-isTestCase","valueBoolean":true}],"status":"complete","type":"individual","measure":"https://madie.cms.gov/Measure/AppropriateTreatmentforSTEMIFHIR","period":{"start":"2025-01-01","end":"2025-12-31"},"group":[{"population":[{"code":{"coding":[{"system":"http://terminology.hl7.org/CodeSystem/measure-population","code":"initial-population","display":"Initial Population"}]},"count":1},{"code":{"coding":[{"system":"http://terminology.hl7.org/CodeSystem/measure-population","code":"denominator","display":"Denominator"}]},"count":1},{"code":{"coding":[{"system":"http://terminology.hl7.org/CodeSystem/measure-population","code":"denominator-exclusion","display":"Denominator Exclusion"}]},"count":1},{"code":{"coding":[{"system":"http://terminology.hl7.org/CodeSystem/measure-population","code":"numerator","display":"Numerator"}]},"count":0},{"code":{"coding":[{"system":"http://terminology.hl7.org/CodeSystem/measure-population","code":"denominator-exception","display":"Denominator Exception"}]},"count":0}]}]},"request":{"method":"PUT","url":"MeasureReport/157b902b-fbdf-49f1-a537-a280d7c143b8"}}]}