{"resourceType":"Bundle","id":"tests-983dd667-8c61-4797-9b71-1fa56b2c0a0f-bundle","type":"transaction","entry":[{"fullUrl":"https://madie.cms.gov/Patient/983dd667-8c61-4797-9b71-1fa56b2c0a0f","resource":{"resourceType":"Patient","id":"983dd667-8c61-4797-9b71-1fa56b2c0a0f","meta":{"profile":["http://hl7.org/fhir/us/qicore/StructureDefinition/qicore-patient"]},"extension":[{"url":"http://hl7.org/fhir/us/core/StructureDefinition/us-core-race","extension":[{"url":"ombCategory","valueCoding":{"system":"urn:oid:2.16.840.1.113883.6.238","code":"2076-8","display":"Native Hawaiian or Other Pacific Islander","userSelected":true}},{"url":"text","valueString":"Native Hawaiian or Other Pacific Islander"}]},{"url":"http://hl7.org/fhir/us/core/StructureDefinition/us-core-ethnicity","extension":[{"url":"ombCategory","valueCoding":{"system":"urn:oid:2.16.840.1.113883.6.238","code":"2135-2","display":"Hispanic or Latino","userSelected":true}},{"url":"text","valueString":"Hispanic or Latino"}]}],"identifier":[{"type":{"coding":[{"system":"http://terminology.hl7.org/CodeSystem/v2-0203","code":"MR"}]},"system":"https://bonnie-fhir.healthit.gov/","value":"617bfeac1289f5673c8ceffc"}],"name":[{"family":"DenExcl9Pass","given":["AdverseEventStartsDuringED"]}],"gender":"female","birthDate":"1984-12-02"},"request":{"method":"PUT","url":"Patient/983dd667-8c61-4797-9b71-1fa56b2c0a0f"}},{"fullUrl":"https://madie.cms.gov/Encounter/emergency-department-visit-eff9","resource":{"resourceType":"Encounter","id":"9f0eb843-a6b1-4765-b6bb-e4226463f332","meta":{"profile":["http://hl7.org/fhir/us/qicore/StructureDefinition/qicore-encounter"]},"status":"finished","class":{"system":"http://terminology.hl7.org/CodeSystem/v3-ActCode","code":"EMER","display":"emergency","userSelected":true},"type":[{"coding":[{"system":"http://snomed.info/sct","version":"2020-09","code":"4525004","display":"Emergency department patient visit (procedure)","userSelected":true}]}],"subject":{"reference":"Patient/983dd667-8c61-4797-9b71-1fa56b2c0a0f"},"period":{"start":"2025-10-09T08:05:00.000+00:00","end":"2025-10-10T07:15:00.000+00:00"},"reasonCode":[{"coding":[{"system":"http://hl7.org/fhir/sid/icd-10-cm","version":"2021","code":"I21.21","display":"ST elevation (STEMI) myocardial infarction involving left circumflex coronary artery","userSelected":true}]}]},"request":{"method":"PUT","url":"Encounter/9f0eb843-a6b1-4765-b6bb-e4226463f332"}},{"fullUrl":"https://madie.cms.gov/AdverseEvent/thrombolytic-medications-effa","resource":{"resourceType":"AdverseEvent","id":"dfc1fcb7-20d2-4694-a958-c95d8688474c","meta":{"profile":["http://hl7.org/fhir/us/qicore/StructureDefinition/qicore-adverseevent"]},"actuality":"actual","event":{"coding":[{"system":"http://snomed.info/sct","code":"293572000","display":"Urokinase adverse reaction (disorder)","userSelected":true}]},"subject":{"reference":"Patient/983dd667-8c61-4797-9b71-1fa56b2c0a0f"},"recordedDate":"2025-10-09T11:05:00.000+00:00"},"request":{"method":"PUT","url":"AdverseEvent/dfc1fcb7-20d2-4694-a958-c95d8688474c"}},{"fullUrl":"https://madie.cms.gov/MeasureReport/91125c6a-7013-4874-b9d2-e15dbcdd83e9","resource":{"resourceType":"MeasureReport","id":"91125c6a-7013-4874-b9d2-e15dbcdd83e9","meta":{"profile":["http://hl7.org/fhir/us/cqfmeasures/StructureDefinition/test-case-cqfm"]},"contained":[{"resourceType":"Parameters","id":"d8b3916b-399c-4a50-9d82-da8d450bed58-parameters","parameter":[{"name":"subject","valueString":"983dd667-8c61-4797-9b71-1fa56b2c0a0f"}]}],"extension":[{"url":"http://hl7.org/fhir/us/cqfmeasures/StructureDefinition/cqfm-inputParameters","valueReference":{"reference":"#d8b3916b-399c-4a50-9d82-da8d450bed58-parameters"}},{"url":"http://hl7.org/fhir/us/cqfmeasures/StructureDefinition/cqfm-testCaseDescription","valueMarkdown":"Patient has adverse event starts during ED"}],"modifierExtension":[{"url":"http://hl7.org/fhir/us/cqfmeasures/StructureDefinition/cqfm-isTestCase","valueBoolean":true}],"status":"complete","type":"individual","measure":"https://madie.cms.gov/Measure/AppropriateTreatmentforSTEMIFHIR","period":{"start":"2025-01-01","end":"2025-12-31"},"group":[{"population":[{"code":{"coding":[{"system":"http://terminology.hl7.org/CodeSystem/measure-population","code":"initial-population","display":"Initial Population"}]},"count":1},{"code":{"coding":[{"system":"http://terminology.hl7.org/CodeSystem/measure-population","code":"denominator","display":"Denominator"}]},"count":1},{"code":{"coding":[{"system":"http://terminology.hl7.org/CodeSystem/measure-population","code":"denominator-exclusion","display":"Denominator Exclusion"}]},"count":1},{"code":{"coding":[{"system":"http://terminology.hl7.org/CodeSystem/measure-population","code":"numerator","display":"Numerator"}]},"count":0},{"code":{"coding":[{"system":"http://terminology.hl7.org/CodeSystem/measure-population","code":"denominator-exception","display":"Denominator Exception"}]},"count":0}]}]},"request":{"method":"PUT","url":"MeasureReport/91125c6a-7013-4874-b9d2-e15dbcdd83e9"}}]}