{"resourceType":"Bundle","id":"tests-baa3f56c-d4df-4922-96a1-603c234b6db4-bundle","type":"transaction","entry":[{"fullUrl":"https://madie.cms.gov/Patient/baa3f56c-d4df-4922-96a1-603c234b6db4","resource":{"resourceType":"Patient","id":"baa3f56c-d4df-4922-96a1-603c234b6db4","meta":{"profile":["http://hl7.org/fhir/us/qicore/StructureDefinition/qicore-patient"]},"extension":[{"url":"http://hl7.org/fhir/us/core/StructureDefinition/us-core-race","extension":[{"url":"ombCategory","valueCoding":{"system":"urn:oid:2.16.840.1.113883.6.238","code":"2076-8","display":"Native Hawaiian or Other Pacific Islander","userSelected":true}},{"url":"text","valueString":"Native Hawaiian or Other Pacific Islander"}]},{"url":"http://hl7.org/fhir/us/core/StructureDefinition/us-core-ethnicity","extension":[{"url":"ombCategory","valueCoding":{"system":"urn:oid:2.16.840.1.113883.6.238","code":"2186-5","display":"Not Hispanic or Latino","userSelected":true}},{"url":"text","valueString":"Not Hispanic or Latino"}]}],"identifier":[{"type":{"coding":[{"system":"http://terminology.hl7.org/CodeSystem/v2-0203","code":"MR"}]},"system":"https://bonnie-fhir.healthit.gov/","value":"6179e951ad1a790b7af7524e"}],"name":[{"family":"DenExcl2Fail","given":["PxExclStartsBeforeEDNoEnd"]}],"gender":"female","birthDate":"1984-12-02"},"request":{"method":"PUT","url":"Patient/baa3f56c-d4df-4922-96a1-603c234b6db4"}},{"fullUrl":"https://madie.cms.gov/Encounter/emergency-department-visit-330a","resource":{"resourceType":"Encounter","id":"b29081aa-a0c6-470d-bb90-32452fdada79","meta":{"profile":["http://hl7.org/fhir/us/qicore/StructureDefinition/qicore-encounter"]},"status":"finished","class":{"system":"http://terminology.hl7.org/CodeSystem/v3-ActCode","code":"EMER","display":"emergency","userSelected":true},"type":[{"coding":[{"system":"http://snomed.info/sct","version":"2020-09","code":"4525004","display":"Emergency department patient visit (procedure)","userSelected":true}]}],"subject":{"reference":"Patient/baa3f56c-d4df-4922-96a1-603c234b6db4"},"period":{"start":"2025-10-09T08:05:00.000+00:00","end":"2025-10-10T07:15:00.000+00:00"}},"request":{"method":"PUT","url":"Encounter/b29081aa-a0c6-470d-bb90-32452fdada79"}},{"fullUrl":"https://madie.cms.gov/Condition/stemi-330b","resource":{"resourceType":"Condition","id":"7b57c94f-ed91-462a-aef2-6e876920ccf9","meta":{"profile":["http://hl7.org/fhir/us/qicore/StructureDefinition/qicore-condition"]},"clinicalStatus":{"coding":[{"system":"http://terminology.hl7.org/CodeSystem/condition-clinical","code":"active","display":"active","userSelected":true}]},"category":[{"coding":[{"system":"http://terminology.hl7.org/CodeSystem/condition-category","code":"encounter-diagnosis","display":"Encounter Diagnosis","userSelected":true}]}],"code":{"coding":[{"system":"http://snomed.info/sct","version":"2020-09","code":"401303003","display":"Acute ST segment elevation myocardial infarction (disorder)","userSelected":true}]},"subject":{"reference":"Patient/baa3f56c-d4df-4922-96a1-603c234b6db4"},"onsetDateTime":"2025-10-09T08:30:00.000+00:00"},"request":{"method":"PUT","url":"Condition/7b57c94f-ed91-462a-aef2-6e876920ccf9"}},{"fullUrl":"https://madie.cms.gov/Procedure/endotracheal-intubation-524f","resource":{"resourceType":"Procedure","id":"b0b7132d-1d3d-455d-9b6d-4d9dcd5402c3","meta":{"profile":["http://hl7.org/fhir/us/qicore/StructureDefinition/qicore-procedure"]},"extension":[{"url":"http://hl7.org/fhir/us/qicore/StructureDefinition/qicore-recorded","valueDateTime":"2025-10-01T13:15:00.000+00:00"}],"status":"completed","category":{"coding":[{"system":"http://snomed.info/sct","code":"387713003","display":"Surgical procedure","userSelected":true}]},"code":{"coding":[{"system":"http://www.icd10data.com/icd10pcs","version":"2021","code":"0B110F4","display":"Bypass Trachea to Cutaneous with Tracheostomy Device, Open Approach","userSelected":true}]},"subject":{"reference":"Patient/baa3f56c-d4df-4922-96a1-603c234b6db4"},"performedDateTime":"2025-10-01T13:15:00.000+00:00"},"request":{"method":"PUT","url":"Procedure/b0b7132d-1d3d-455d-9b6d-4d9dcd5402c3"}},{"fullUrl":"https://madie.cms.gov/MeasureReport/cc498339-d1e3-4d2f-ad4d-50cc6bcfbdb0","resource":{"resourceType":"MeasureReport","id":"cc498339-d1e3-4d2f-ad4d-50cc6bcfbdb0","meta":{"profile":["http://hl7.org/fhir/us/cqfmeasures/StructureDefinition/test-case-cqfm"]},"contained":[{"resourceType":"Parameters","id":"c149dc0a-e257-4a30-9ce2-2af1a62e4c58-parameters","parameter":[{"name":"subject","valueString":"baa3f56c-d4df-4922-96a1-603c234b6db4"}]}],"extension":[{"url":"http://hl7.org/fhir/us/cqfmeasures/StructureDefinition/cqfm-inputParameters","valueReference":{"reference":"#c149dc0a-e257-4a30-9ce2-2af1a62e4c58-parameters"}},{"url":"http://hl7.org/fhir/us/cqfmeasures/StructureDefinition/cqfm-testCaseDescription","valueMarkdown":"Patient has endotracheal intubation (exclusion procedure) that starts before the ED encounter and no end"}],"modifierExtension":[{"url":"http://hl7.org/fhir/us/cqfmeasures/StructureDefinition/cqfm-isTestCase","valueBoolean":true}],"status":"complete","type":"individual","measure":"https://madie.cms.gov/Measure/AppropriateTreatmentforSTEMIFHIR","period":{"start":"2025-01-01","end":"2025-12-31"},"group":[{"population":[{"code":{"coding":[{"system":"http://terminology.hl7.org/CodeSystem/measure-population","code":"initial-population","display":"Initial Population"}]},"count":1},{"code":{"coding":[{"system":"http://terminology.hl7.org/CodeSystem/measure-population","code":"denominator","display":"Denominator"}]},"count":1},{"code":{"coding":[{"system":"http://terminology.hl7.org/CodeSystem/measure-population","code":"denominator-exclusion","display":"Denominator Exclusion"}]},"count":0},{"code":{"coding":[{"system":"http://terminology.hl7.org/CodeSystem/measure-population","code":"numerator","display":"Numerator"}]},"count":0},{"code":{"coding":[{"system":"http://terminology.hl7.org/CodeSystem/measure-population","code":"denominator-exception","display":"Denominator Exception"}]},"count":0}]}]},"request":{"method":"PUT","url":"MeasureReport/cc498339-d1e3-4d2f-ad4d-50cc6bcfbdb0"}}]}