{"resourceType":"Bundle","id":"tests-ddee386b-8a0d-4bfb-a5c8-7235e1b17fa8-bundle","type":"transaction","entry":[{"fullUrl":"https://madie.cms.gov/Patient/ddee386b-8a0d-4bfb-a5c8-7235e1b17fa8","resource":{"resourceType":"Patient","id":"ddee386b-8a0d-4bfb-a5c8-7235e1b17fa8","meta":{"profile":["http://hl7.org/fhir/us/qicore/StructureDefinition/qicore-patient"]},"extension":[{"url":"http://hl7.org/fhir/us/core/StructureDefinition/us-core-race","extension":[{"url":"ombCategory","valueCoding":{"system":"urn:oid:2.16.840.1.113883.6.238","code":"2076-8","display":"Native Hawaiian or Other Pacific Islander","userSelected":true}},{"url":"text","valueString":"Native Hawaiian or Other Pacific Islander"}]},{"url":"http://hl7.org/fhir/us/core/StructureDefinition/us-core-ethnicity","extension":[{"url":"ombCategory","valueCoding":{"system":"urn:oid:2.16.840.1.113883.6.238","code":"2186-5","display":"Not Hispanic or Latino","userSelected":true}},{"url":"text","valueString":"Not Hispanic or Latino"}]}],"identifier":[{"type":{"coding":[{"system":"http://terminology.hl7.org/CodeSystem/v2-0203","code":"MR"}]},"system":"https://bonnie-fhir.healthit.gov/","value":"6179ef2ead1a790b7af7525b"}],"name":[{"family":"DenExcl3Pass","given":["PxStarts8DBeforeEDNoEndrelevantDatetime"]}],"gender":"female","birthDate":"1984-12-02"},"request":{"method":"PUT","url":"Patient/ddee386b-8a0d-4bfb-a5c8-7235e1b17fa8"}},{"fullUrl":"https://madie.cms.gov/Encounter/emergency-department-visit-330a","resource":{"resourceType":"Encounter","id":"bb2792c9-ad01-4628-a2c1-a62f8bdf8cc7","meta":{"profile":["http://hl7.org/fhir/us/qicore/StructureDefinition/qicore-encounter"]},"status":"finished","class":{"system":"http://terminology.hl7.org/CodeSystem/v3-ActCode","code":"EMER","display":"emergency","userSelected":true},"type":[{"coding":[{"system":"http://snomed.info/sct","version":"2020-09","code":"4525004","display":"Emergency department patient visit (procedure)","userSelected":true}]}],"subject":{"reference":"Patient/ddee386b-8a0d-4bfb-a5c8-7235e1b17fa8"},"period":{"start":"2025-10-09T08:05:00.000+00:00","end":"2025-10-10T07:15:00.000+00:00"}},"request":{"method":"PUT","url":"Encounter/bb2792c9-ad01-4628-a2c1-a62f8bdf8cc7"}},{"fullUrl":"https://madie.cms.gov/Condition/stemi-330b","resource":{"resourceType":"Condition","id":"a37a53a1-9d78-405c-aada-0409c0d6b9e8","meta":{"profile":["http://hl7.org/fhir/us/qicore/StructureDefinition/qicore-condition"]},"clinicalStatus":{"coding":[{"system":"http://terminology.hl7.org/CodeSystem/condition-clinical","code":"active","display":"active","userSelected":true}]},"category":[{"coding":[{"system":"http://terminology.hl7.org/CodeSystem/condition-category","code":"encounter-diagnosis","display":"Encounter Diagnosis","userSelected":true}]}],"code":{"coding":[{"system":"http://snomed.info/sct","version":"2020-09","code":"401303003","display":"Acute ST segment elevation myocardial infarction (disorder)","userSelected":true}]},"subject":{"reference":"Patient/ddee386b-8a0d-4bfb-a5c8-7235e1b17fa8"},"onsetDateTime":"2025-10-09T08:30:00.000+00:00"},"request":{"method":"PUT","url":"Condition/a37a53a1-9d78-405c-aada-0409c0d6b9e8"}},{"fullUrl":"https://madie.cms.gov/Procedure/major-surgical-procedure-5258","resource":{"resourceType":"Procedure","id":"2b53a3c6-6666-456d-9f8b-073ebbbfe750","meta":{"profile":["http://hl7.org/fhir/us/qicore/StructureDefinition/qicore-procedure"]},"extension":[{"url":"http://hl7.org/fhir/us/qicore/StructureDefinition/qicore-recorded","valueDateTime":"2025-10-01T08:00:00.000+00:00"}],"status":"completed","category":{"coding":[{"system":"http://snomed.info/sct","code":"387713003","display":"Surgical procedure","userSelected":true}]},"code":{"coding":[{"system":"http://www.cms.gov/Medicare/Coding/ICD10","code":"02100J3","userSelected":true}]},"subject":{"reference":"Patient/ddee386b-8a0d-4bfb-a5c8-7235e1b17fa8"},"performedDateTime":"2025-10-01T08:00:00.000+00:00"},"request":{"method":"PUT","url":"Procedure/2b53a3c6-6666-456d-9f8b-073ebbbfe750"}},{"fullUrl":"https://madie.cms.gov/MeasureReport/f2d0dc37-4dd9-4dab-80e0-23ddf141fb5a","resource":{"resourceType":"MeasureReport","id":"f2d0dc37-4dd9-4dab-80e0-23ddf141fb5a","meta":{"profile":["http://hl7.org/fhir/us/cqfmeasures/StructureDefinition/test-case-cqfm"]},"contained":[{"resourceType":"Parameters","id":"87bd2460-9f5c-45ce-be8f-fac029b00572-parameters","parameter":[{"name":"subject","valueString":"ddee386b-8a0d-4bfb-a5c8-7235e1b17fa8"}]}],"extension":[{"url":"http://hl7.org/fhir/us/cqfmeasures/StructureDefinition/cqfm-inputParameters","valueReference":{"reference":"#87bd2460-9f5c-45ce-be8f-fac029b00572-parameters"}},{"url":"http://hl7.org/fhir/us/cqfmeasures/StructureDefinition/cqfm-testCaseDescription","valueMarkdown":"Patient has Major Surgical Procedure (exclusion Px) 8 days before ED visit and does not end - using relevantDatetime"}],"modifierExtension":[{"url":"http://hl7.org/fhir/us/cqfmeasures/StructureDefinition/cqfm-isTestCase","valueBoolean":true}],"status":"complete","type":"individual","measure":"https://madie.cms.gov/Measure/AppropriateTreatmentforSTEMIFHIR","period":{"start":"2025-01-01","end":"2025-12-31"},"group":[{"population":[{"code":{"coding":[{"system":"http://terminology.hl7.org/CodeSystem/measure-population","code":"initial-population","display":"Initial Population"}]},"count":1},{"code":{"coding":[{"system":"http://terminology.hl7.org/CodeSystem/measure-population","code":"denominator","display":"Denominator"}]},"count":1},{"code":{"coding":[{"system":"http://terminology.hl7.org/CodeSystem/measure-population","code":"denominator-exclusion","display":"Denominator Exclusion"}]},"count":1},{"code":{"coding":[{"system":"http://terminology.hl7.org/CodeSystem/measure-population","code":"numerator","display":"Numerator"}]},"count":0},{"code":{"coding":[{"system":"http://terminology.hl7.org/CodeSystem/measure-population","code":"denominator-exception","display":"Denominator Exception"}]},"count":0}]}]},"request":{"method":"PUT","url":"MeasureReport/f2d0dc37-4dd9-4dab-80e0-23ddf141fb5a"}}]}