{"resourceType":"Bundle","id":"tests-125a85ca-49fc-401a-8abd-3f7f6491b42d-bundle","type":"transaction","entry":[{"fullUrl":"https://madie.cms.gov/Patient/125a85ca-49fc-401a-8abd-3f7f6491b42d","resource":{"resourceType":"Patient","id":"125a85ca-49fc-401a-8abd-3f7f6491b42d","meta":{"profile":["http://hl7.org/fhir/us/qicore/StructureDefinition/qicore-patient"]},"extension":[{"url":"http://hl7.org/fhir/us/core/StructureDefinition/us-core-race","extension":[{"url":"ombCategory","valueCoding":{"system":"urn:oid:2.16.840.1.113883.6.238","code":"2076-8","display":"Native Hawaiian or Other Pacific Islander","userSelected":true}},{"url":"text","valueString":"Native Hawaiian or Other Pacific Islander"}]},{"url":"http://hl7.org/fhir/us/core/StructureDefinition/us-core-ethnicity","extension":[{"url":"ombCategory","valueCoding":{"system":"urn:oid:2.16.840.1.113883.6.238","code":"2186-5","display":"Not Hispanic or Latino","userSelected":true}},{"url":"text","valueString":"Not Hispanic or Latino"}]}],"identifier":[{"type":{"coding":[{"system":"http://terminology.hl7.org/CodeSystem/v2-0203","code":"MR"}]},"system":"https://bonnie-fhir.healthit.gov/","value":"617b0fef513b5d1ee28b7577"}],"name":[{"family":"DenExcl4Fail","given":["DxStartsDuringEndsAfterED"]}],"gender":"female","birthDate":"1984-12-02"},"request":{"method":"PUT","url":"Patient/125a85ca-49fc-401a-8abd-3f7f6491b42d"}},{"fullUrl":"https://madie.cms.gov/Encounter/emergency-department-visit-330a","resource":{"resourceType":"Encounter","id":"4091f58c-835c-481b-a0d1-c34113832e3e","meta":{"profile":["http://hl7.org/fhir/us/qicore/StructureDefinition/qicore-encounter"]},"status":"finished","class":{"system":"http://terminology.hl7.org/CodeSystem/v3-ActCode","code":"EMER","display":"emergency","userSelected":true},"type":[{"coding":[{"system":"http://snomed.info/sct","version":"2020-09","code":"4525004","display":"Emergency department patient visit (procedure)","userSelected":true}]}],"subject":{"reference":"Patient/125a85ca-49fc-401a-8abd-3f7f6491b42d"},"period":{"start":"2025-10-09T08:05:00.000+00:00","end":"2025-10-10T07:15:00.000+00:00"}},"request":{"method":"PUT","url":"Encounter/4091f58c-835c-481b-a0d1-c34113832e3e"}},{"fullUrl":"https://madie.cms.gov/Condition/stemi-330b","resource":{"resourceType":"Condition","id":"bb7bda78-e1ac-4d59-aaec-d03648b9ece0","meta":{"profile":["http://hl7.org/fhir/us/qicore/StructureDefinition/qicore-condition"]},"clinicalStatus":{"coding":[{"system":"http://terminology.hl7.org/CodeSystem/condition-clinical","code":"active","display":"active","userSelected":true}]},"category":[{"coding":[{"system":"http://terminology.hl7.org/CodeSystem/condition-category","code":"encounter-diagnosis","display":"Encounter Diagnosis","userSelected":true}]}],"code":{"coding":[{"system":"http://snomed.info/sct","version":"2020-09","code":"401303003","display":"Acute ST segment elevation myocardial infarction (disorder)","userSelected":true}]},"subject":{"reference":"Patient/125a85ca-49fc-401a-8abd-3f7f6491b42d"},"onsetDateTime":"2025-10-09T08:30:00.000+00:00"},"request":{"method":"PUT","url":"Condition/bb7bda78-e1ac-4d59-aaec-d03648b9ece0"}},{"fullUrl":"https://madie.cms.gov/Condition/pregnancy-7578","resource":{"resourceType":"Condition","id":"6ebfd958-d3ef-42b5-a31b-510068a17224","meta":{"profile":["http://hl7.org/fhir/us/qicore/StructureDefinition/qicore-condition"]},"clinicalStatus":{"coding":[{"system":"http://terminology.hl7.org/CodeSystem/condition-clinical","version":"4.0.1","code":"inactive","display":"Inactive","userSelected":true}]},"category":[{"coding":[{"system":"http://terminology.hl7.org/CodeSystem/condition-category","code":"problem-list-item","display":"Problem List Item","userSelected":true}]}],"code":{"coding":[{"system":"http://snomed.info/sct","version":"2020-09","code":"102874004","display":"Possible pregnancy (finding)","userSelected":true}]},"subject":{"reference":"Patient/125a85ca-49fc-401a-8abd-3f7f6491b42d"},"onsetDateTime":"2025-10-09T09:00:00.000+00:00","abatementDateTime":"2025-08-08T08:15:00.000+00:00"},"request":{"method":"PUT","url":"Condition/6ebfd958-d3ef-42b5-a31b-510068a17224"}},{"fullUrl":"https://madie.cms.gov/MeasureReport/001f56b5-9508-40f6-b970-7b0a6f450751","resource":{"resourceType":"MeasureReport","id":"001f56b5-9508-40f6-b970-7b0a6f450751","meta":{"profile":["http://hl7.org/fhir/us/cqfmeasures/StructureDefinition/test-case-cqfm"]},"contained":[{"resourceType":"Parameters","id":"eff097d7-b661-4225-89d1-ac3e463bf0a5-parameters","parameter":[{"name":"subject","valueString":"125a85ca-49fc-401a-8abd-3f7f6491b42d"}]}],"extension":[{"url":"http://hl7.org/fhir/us/cqfmeasures/StructureDefinition/cqfm-inputParameters","valueReference":{"reference":"#eff097d7-b661-4225-89d1-ac3e463bf0a5-parameters"}},{"url":"http://hl7.org/fhir/us/cqfmeasures/StructureDefinition/cqfm-testCaseDescription","valueMarkdown":"Patient has pregnancy (exclusion dx) starts during ED and ends after ED"}],"modifierExtension":[{"url":"http://hl7.org/fhir/us/cqfmeasures/StructureDefinition/cqfm-isTestCase","valueBoolean":true}],"status":"complete","type":"individual","measure":"https://madie.cms.gov/Measure/AppropriateTreatmentforSTEMIFHIR","period":{"start":"2025-01-01","end":"2025-12-31"},"group":[{"population":[{"code":{"coding":[{"system":"http://terminology.hl7.org/CodeSystem/measure-population","code":"initial-population","display":"Initial Population"}]},"count":1},{"code":{"coding":[{"system":"http://terminology.hl7.org/CodeSystem/measure-population","code":"denominator","display":"Denominator"}]},"count":1},{"code":{"coding":[{"system":"http://terminology.hl7.org/CodeSystem/measure-population","code":"denominator-exclusion","display":"Denominator Exclusion"}]},"count":0},{"code":{"coding":[{"system":"http://terminology.hl7.org/CodeSystem/measure-population","code":"numerator","display":"Numerator"}]},"count":0},{"code":{"coding":[{"system":"http://terminology.hl7.org/CodeSystem/measure-population","code":"denominator-exception","display":"Denominator Exception"}]},"count":0}]}]},"request":{"method":"PUT","url":"MeasureReport/001f56b5-9508-40f6-b970-7b0a6f450751"}}]}