{"resourceType":"Bundle","id":"tests-1c7fd739-8997-4262-b790-f9d97dde370a-bundle","type":"transaction","entry":[{"fullUrl":"https://madie.cms.gov/Patient/1c7fd739-8997-4262-b790-f9d97dde370a","resource":{"resourceType":"Patient","id":"1c7fd739-8997-4262-b790-f9d97dde370a","meta":{"profile":["http://hl7.org/fhir/us/qicore/StructureDefinition/qicore-patient"]},"extension":[{"url":"http://hl7.org/fhir/us/core/StructureDefinition/us-core-race","extension":[{"url":"ombCategory","valueCoding":{"system":"urn:oid:2.16.840.1.113883.6.238","code":"2028-9","display":"Asian","userSelected":true}},{"url":"text","valueString":"Asian"}]},{"url":"http://hl7.org/fhir/us/core/StructureDefinition/us-core-ethnicity","extension":[{"url":"ombCategory","valueCoding":{"system":"urn:oid:2.16.840.1.113883.6.238","code":"2135-2","display":"Hispanic or Latino","userSelected":true}},{"url":"text","valueString":"Hispanic or Latino"}]}],"identifier":[{"type":{"coding":[{"system":"http://terminology.hl7.org/CodeSystem/v2-0203","code":"MR"}]},"system":"https://bonnie-fhir.healthit.gov/","value":"617bf8d41289f5673c8ceff5"}],"name":[{"family":"DenExcl8Pass","given":["AllergyStartsBeforeEndsAfterED"]}],"gender":"male","birthDate":"1984-12-02"},"request":{"method":"PUT","url":"Patient/1c7fd739-8997-4262-b790-f9d97dde370a"}},{"fullUrl":"https://madie.cms.gov/Encounter/emergency-department-visit-62c8","resource":{"resourceType":"Encounter","id":"d82c4052-504e-4509-9143-43f3d4da2bae","meta":{"profile":["http://hl7.org/fhir/us/qicore/StructureDefinition/qicore-encounter"]},"status":"finished","class":{"system":"http://terminology.hl7.org/CodeSystem/v3-ActCode","code":"EMER","display":"emergency","userSelected":true},"type":[{"coding":[{"system":"http://snomed.info/sct","version":"2020-09","code":"4525004","display":"Emergency department patient visit (procedure)","userSelected":true}]}],"subject":{"reference":"Patient/1c7fd739-8997-4262-b790-f9d97dde370a"},"period":{"start":"2025-10-09T08:05:00.000+00:00","end":"2025-10-10T07:15:00.000+00:00"},"reasonCode":[{"coding":[{"system":"http://snomed.info/sct","version":"2020-09","code":"703211006","display":"Subsequent ST segment elevation myocardial infarction (disorder)","userSelected":true}]}]},"request":{"method":"PUT","url":"Encounter/d82c4052-504e-4509-9143-43f3d4da2bae"}},{"fullUrl":"https://madie.cms.gov/AllergyIntolerance/thrombolytic-medications-62c9","resource":{"resourceType":"AllergyIntolerance","id":"436cbf34-f10c-4c12-9289-9c6f7c85e686","meta":{"profile":["http://hl7.org/fhir/us/qicore/StructureDefinition/qicore-allergyintolerance"]},"clinicalStatus":{"coding":[{"system":"http://terminology.hl7.org/CodeSystem/allergyintolerance-clinical","code":"active","display":"allergy-active","userSelected":true}]},"code":{"coding":[{"system":"http://www.nlm.nih.gov/research/umls/rxnorm","version":"2021-01","code":"10106","display":"streptokinase","userSelected":true}]},"patient":{"reference":"Patient/1c7fd739-8997-4262-b790-f9d97dde370a"},"onsetPeriod":{"start":"2020-01-10T08:00:00.000+00:00","end":"2025-12-02T08:15:00.000+00:00"}},"request":{"method":"PUT","url":"AllergyIntolerance/436cbf34-f10c-4c12-9289-9c6f7c85e686"}},{"fullUrl":"https://madie.cms.gov/MeasureReport/9a1a1490-0577-42a5-9a74-2e031139768c","resource":{"resourceType":"MeasureReport","id":"9a1a1490-0577-42a5-9a74-2e031139768c","meta":{"profile":["http://hl7.org/fhir/us/cqfmeasures/StructureDefinition/test-case-cqfm"]},"contained":[{"resourceType":"Parameters","id":"a8a1f2c0-4306-42f8-a378-a93b34e7fec2-parameters","parameter":[{"name":"subject","valueString":"1c7fd739-8997-4262-b790-f9d97dde370a"}]}],"extension":[{"url":"http://hl7.org/fhir/us/cqfmeasures/StructureDefinition/cqfm-inputParameters","valueReference":{"reference":"#a8a1f2c0-4306-42f8-a378-a93b34e7fec2-parameters"}},{"url":"http://hl7.org/fhir/us/cqfmeasures/StructureDefinition/cqfm-testCaseDescription","valueMarkdown":"Patient has allergy to medication ingredient starts before and ends after ED"}],"modifierExtension":[{"url":"http://hl7.org/fhir/us/cqfmeasures/StructureDefinition/cqfm-isTestCase","valueBoolean":true}],"status":"complete","type":"individual","measure":"https://madie.cms.gov/Measure/AppropriateTreatmentforSTEMIFHIR","period":{"start":"2025-01-01","end":"2025-12-31"},"group":[{"population":[{"code":{"coding":[{"system":"http://terminology.hl7.org/CodeSystem/measure-population","code":"initial-population","display":"Initial Population"}]},"count":1},{"code":{"coding":[{"system":"http://terminology.hl7.org/CodeSystem/measure-population","code":"denominator","display":"Denominator"}]},"count":1},{"code":{"coding":[{"system":"http://terminology.hl7.org/CodeSystem/measure-population","code":"denominator-exclusion","display":"Denominator Exclusion"}]},"count":1},{"code":{"coding":[{"system":"http://terminology.hl7.org/CodeSystem/measure-population","code":"numerator","display":"Numerator"}]},"count":0},{"code":{"coding":[{"system":"http://terminology.hl7.org/CodeSystem/measure-population","code":"denominator-exception","display":"Denominator Exception"}]},"count":0}]}]},"request":{"method":"PUT","url":"MeasureReport/9a1a1490-0577-42a5-9a74-2e031139768c"}}]}