{"resourceType":"Bundle","id":"tests-c514a1c3-5f7a-4db3-99ef-6ba27d465fbc-bundle","type":"transaction","entry":[{"fullUrl":"https://madie.cms.gov/Patient/c514a1c3-5f7a-4db3-99ef-6ba27d465fbc","resource":{"resourceType":"Patient","id":"c514a1c3-5f7a-4db3-99ef-6ba27d465fbc","meta":{"profile":["http://hl7.org/fhir/us/qicore/StructureDefinition/qicore-patient"]},"extension":[{"url":"http://hl7.org/fhir/us/core/StructureDefinition/us-core-race","extension":[{"url":"ombCategory","valueCoding":{"system":"urn:oid:2.16.840.1.113883.6.238","code":"2076-8","display":"Native Hawaiian or Other Pacific Islander","userSelected":true}},{"url":"text","valueString":"Native Hawaiian or Other Pacific Islander"}]},{"url":"http://hl7.org/fhir/us/core/StructureDefinition/us-core-ethnicity","extension":[{"url":"ombCategory","valueCoding":{"system":"urn:oid:2.16.840.1.113883.6.238","code":"2186-5","display":"Not Hispanic or Latino","userSelected":true}},{"url":"text","valueString":"Not Hispanic or Latino"}]}],"identifier":[{"type":{"coding":[{"system":"http://terminology.hl7.org/CodeSystem/v2-0203","code":"MR"}]},"system":"https://bonnie-fhir.healthit.gov/","value":"6179e2a3e2011aa9929f330f"}],"name":[{"family":"DenExcl1Pass","given":["DxExclStartsDuringEDNoEnd"]}],"gender":"female","birthDate":"1984-12-02"},"request":{"method":"PUT","url":"Patient/c514a1c3-5f7a-4db3-99ef-6ba27d465fbc"}},{"fullUrl":"https://madie.cms.gov/Encounter/emergency-department-visit-330a","resource":{"resourceType":"Encounter","id":"0fca30b8-d2d5-405a-b04d-1e286f3230ab","meta":{"profile":["http://hl7.org/fhir/us/qicore/StructureDefinition/qicore-encounter"]},"status":"finished","class":{"system":"http://terminology.hl7.org/CodeSystem/v3-ActCode","code":"EMER","display":"emergency","userSelected":true},"type":[{"coding":[{"system":"http://snomed.info/sct","version":"2020-09","code":"4525004","display":"Emergency department patient visit (procedure)","userSelected":true}]}],"subject":{"reference":"Patient/c514a1c3-5f7a-4db3-99ef-6ba27d465fbc"},"period":{"start":"2025-10-09T08:05:00.000+00:00","end":"2025-10-10T07:15:00.000+00:00"}},"request":{"method":"PUT","url":"Encounter/0fca30b8-d2d5-405a-b04d-1e286f3230ab"}},{"fullUrl":"https://madie.cms.gov/Condition/stemi-330b","resource":{"resourceType":"Condition","id":"6351266d-6288-4b35-b219-36865d72c58f","meta":{"profile":["http://hl7.org/fhir/us/qicore/StructureDefinition/qicore-condition"]},"clinicalStatus":{"coding":[{"system":"http://terminology.hl7.org/CodeSystem/condition-clinical","code":"active","display":"active","userSelected":true}]},"category":[{"coding":[{"system":"http://terminology.hl7.org/CodeSystem/condition-category","code":"encounter-diagnosis","display":"Encounter Diagnosis","userSelected":true}]}],"code":{"coding":[{"system":"http://snomed.info/sct","version":"2020-09","code":"401303003","display":"Acute ST segment elevation myocardial infarction (disorder)","userSelected":true}]},"subject":{"reference":"Patient/c514a1c3-5f7a-4db3-99ef-6ba27d465fbc"},"onsetDateTime":"2025-10-09T08:30:00.000+00:00"},"request":{"method":"PUT","url":"Condition/6351266d-6288-4b35-b219-36865d72c58f"}},{"fullUrl":"https://madie.cms.gov/Condition/aortic-dissection-3310","resource":{"resourceType":"Condition","id":"0c36ddfc-c355-4020-a6f2-ef66e7df9be5","meta":{"profile":["http://hl7.org/fhir/us/qicore/StructureDefinition/qicore-condition"]},"clinicalStatus":{"coding":[{"system":"http://terminology.hl7.org/CodeSystem/condition-clinical","code":"active","display":"Active","userSelected":true}]},"category":[{"coding":[{"system":"http://terminology.hl7.org/CodeSystem/condition-category","code":"encounter-diagnosis","display":"Encounter Diagnosis","userSelected":true}]}],"code":{"coding":[{"system":"http://snomed.info/sct","version":"2020-09","code":"14336007","display":"Ruptured abdominal aortic aneurysm (disorder)","userSelected":true}]},"subject":{"reference":"Patient/c514a1c3-5f7a-4db3-99ef-6ba27d465fbc"},"onsetDateTime":"2025-10-09T13:00:00.000+00:00"},"request":{"method":"PUT","url":"Condition/0c36ddfc-c355-4020-a6f2-ef66e7df9be5"}},{"fullUrl":"https://madie.cms.gov/MeasureReport/696f031c-9bf3-40f7-9b53-c7799c1099bc","resource":{"resourceType":"MeasureReport","id":"696f031c-9bf3-40f7-9b53-c7799c1099bc","meta":{"profile":["http://hl7.org/fhir/us/cqfmeasures/StructureDefinition/test-case-cqfm"]},"contained":[{"resourceType":"Parameters","id":"f5f699f1-0a3b-4264-b975-8e3d2c4bb237-parameters","parameter":[{"name":"subject","valueString":"c514a1c3-5f7a-4db3-99ef-6ba27d465fbc"}]}],"extension":[{"url":"http://hl7.org/fhir/us/cqfmeasures/StructureDefinition/cqfm-inputParameters","valueReference":{"reference":"#f5f699f1-0a3b-4264-b975-8e3d2c4bb237-parameters"}},{"url":"http://hl7.org/fhir/us/cqfmeasures/StructureDefinition/cqfm-testCaseDescription","valueMarkdown":"Patient has aortic dissection (exclusion diagnosis) that starts during ED encounter and does not end"}],"modifierExtension":[{"url":"http://hl7.org/fhir/us/cqfmeasures/StructureDefinition/cqfm-isTestCase","valueBoolean":true}],"status":"complete","type":"individual","measure":"https://madie.cms.gov/Measure/AppropriateTreatmentforSTEMIFHIR","period":{"start":"2025-01-01","end":"2025-12-31"},"group":[{"population":[{"code":{"coding":[{"system":"http://terminology.hl7.org/CodeSystem/measure-population","code":"initial-population","display":"Initial Population"}]},"count":1},{"code":{"coding":[{"system":"http://terminology.hl7.org/CodeSystem/measure-population","code":"denominator","display":"Denominator"}]},"count":1},{"code":{"coding":[{"system":"http://terminology.hl7.org/CodeSystem/measure-population","code":"denominator-exclusion","display":"Denominator Exclusion"}]},"count":1},{"code":{"coding":[{"system":"http://terminology.hl7.org/CodeSystem/measure-population","code":"numerator","display":"Numerator"}]},"count":0},{"code":{"coding":[{"system":"http://terminology.hl7.org/CodeSystem/measure-population","code":"denominator-exception","display":"Denominator Exception"}]},"count":0}]}]},"request":{"method":"PUT","url":"MeasureReport/696f031c-9bf3-40f7-9b53-c7799c1099bc"}}]}