{"resourceType":"Bundle","id":"tests-9f17f3e9-55eb-4c67-a4e0-1cc85961330d-bundle","type":"transaction","entry":[{"fullUrl":"https://madie.cms.gov/Patient/9f17f3e9-55eb-4c67-a4e0-1cc85961330d","resource":{"resourceType":"Patient","id":"9f17f3e9-55eb-4c67-a4e0-1cc85961330d","meta":{"profile":["http://hl7.org/fhir/us/qicore/StructureDefinition/qicore-patient"]},"extension":[{"url":"http://hl7.org/fhir/us/core/StructureDefinition/us-core-race","extension":[{"url":"ombCategory","valueCoding":{"system":"urn:oid:2.16.840.1.113883.6.238","code":"2076-8","display":"Native Hawaiian or Other Pacific Islander","userSelected":true}},{"url":"text","valueString":"Native Hawaiian or Other Pacific Islander"}]},{"url":"http://hl7.org/fhir/us/core/StructureDefinition/us-core-ethnicity","extension":[{"url":"ombCategory","valueCoding":{"system":"urn:oid:2.16.840.1.113883.6.238","code":"2186-5","display":"Not Hispanic or Latino","userSelected":true}},{"url":"text","valueString":"Not Hispanic or Latino"}]}],"identifier":[{"type":{"coding":[{"system":"http://terminology.hl7.org/CodeSystem/v2-0203","code":"MR"}]},"system":"https://bonnie-fhir.healthit.gov/","value":"617b0d8f513b5d1ee28b7572"}],"name":[{"family":"DenExcl4Fail","given":["DxStartsBeforeEndsBeforeED"]}],"gender":"female","birthDate":"1984-12-02"},"request":{"method":"PUT","url":"Patient/9f17f3e9-55eb-4c67-a4e0-1cc85961330d"}},{"fullUrl":"https://madie.cms.gov/Encounter/emergency-department-visit-330a","resource":{"resourceType":"Encounter","id":"be828cd0-9272-4d1d-a2c7-6690fdae408d","meta":{"profile":["http://hl7.org/fhir/us/qicore/StructureDefinition/qicore-encounter"]},"status":"finished","class":{"system":"http://terminology.hl7.org/CodeSystem/v3-ActCode","code":"EMER","display":"emergency","userSelected":true},"type":[{"coding":[{"system":"http://snomed.info/sct","version":"2020-09","code":"4525004","display":"Emergency department patient visit (procedure)","userSelected":true}]}],"subject":{"reference":"Patient/9f17f3e9-55eb-4c67-a4e0-1cc85961330d"},"period":{"start":"2025-10-09T08:05:00.000+00:00","end":"2025-10-10T07:15:00.000+00:00"}},"request":{"method":"PUT","url":"Encounter/be828cd0-9272-4d1d-a2c7-6690fdae408d"}},{"fullUrl":"https://madie.cms.gov/Condition/stemi-330b","resource":{"resourceType":"Condition","id":"9c8e3731-e0a2-4c2c-8be5-0dbd2f837689","meta":{"profile":["http://hl7.org/fhir/us/qicore/StructureDefinition/qicore-condition"]},"clinicalStatus":{"coding":[{"system":"http://terminology.hl7.org/CodeSystem/condition-clinical","code":"active","display":"active","userSelected":true}]},"category":[{"coding":[{"system":"http://terminology.hl7.org/CodeSystem/condition-category","code":"encounter-diagnosis","display":"Encounter Diagnosis","userSelected":true}]}],"code":{"coding":[{"system":"http://snomed.info/sct","version":"2020-09","code":"401303003","display":"Acute ST segment elevation myocardial infarction (disorder)","userSelected":true}]},"subject":{"reference":"Patient/9f17f3e9-55eb-4c67-a4e0-1cc85961330d"},"onsetDateTime":"2025-10-09T08:30:00.000+00:00"},"request":{"method":"PUT","url":"Condition/9c8e3731-e0a2-4c2c-8be5-0dbd2f837689"}},{"fullUrl":"https://madie.cms.gov/Condition/active-bleeding-or-bleeding-diathesis-excluding-menses-7573","resource":{"resourceType":"Condition","id":"d4925bff-0bd8-4074-b487-08fac738824c","meta":{"profile":["http://hl7.org/fhir/us/qicore/StructureDefinition/qicore-condition"]},"clinicalStatus":{"coding":[{"system":"http://terminology.hl7.org/CodeSystem/condition-clinical","version":"4.0.1","code":"inactive","display":"Inactive","userSelected":true}]},"category":[{"coding":[{"system":"http://terminology.hl7.org/CodeSystem/condition-category","code":"encounter-diagnosis","display":"Encounter Diagnosis","userSelected":true}]}],"code":{"coding":[{"system":"http://snomed.info/sct","version":"2020-09","code":"105604006","display":"Deficiency of naturally occurring coagulation factor inhibitor (disorder)","userSelected":true}]},"subject":{"reference":"Patient/9f17f3e9-55eb-4c67-a4e0-1cc85961330d"},"onsetDateTime":"2025-10-01T08:00:00.000+00:00","abatementDateTime":"2025-10-08T08:15:00.000+00:00"},"request":{"method":"PUT","url":"Condition/d4925bff-0bd8-4074-b487-08fac738824c"}},{"fullUrl":"https://madie.cms.gov/MeasureReport/644c179e-a7cd-4c0b-8f5b-fd429f6e0b4b","resource":{"resourceType":"MeasureReport","id":"644c179e-a7cd-4c0b-8f5b-fd429f6e0b4b","meta":{"profile":["http://hl7.org/fhir/us/cqfmeasures/StructureDefinition/test-case-cqfm"]},"contained":[{"resourceType":"Parameters","id":"00e9d5ca-fe13-4e07-b6be-350c63ef0984-parameters","parameter":[{"name":"subject","valueString":"9f17f3e9-55eb-4c67-a4e0-1cc85961330d"}]}],"extension":[{"url":"http://hl7.org/fhir/us/cqfmeasures/StructureDefinition/cqfm-inputParameters","valueReference":{"reference":"#00e9d5ca-fe13-4e07-b6be-350c63ef0984-parameters"}},{"url":"http://hl7.org/fhir/us/cqfmeasures/StructureDefinition/cqfm-testCaseDescription","valueMarkdown":"Patient has active bleeding (exclusion dx) starts before ED and ends before ED"}],"modifierExtension":[{"url":"http://hl7.org/fhir/us/cqfmeasures/StructureDefinition/cqfm-isTestCase","valueBoolean":true}],"status":"complete","type":"individual","measure":"https://madie.cms.gov/Measure/AppropriateTreatmentforSTEMIFHIR","period":{"start":"2025-01-01","end":"2025-12-31"},"group":[{"population":[{"code":{"coding":[{"system":"http://terminology.hl7.org/CodeSystem/measure-population","code":"initial-population","display":"Initial Population"}]},"count":1},{"code":{"coding":[{"system":"http://terminology.hl7.org/CodeSystem/measure-population","code":"denominator","display":"Denominator"}]},"count":1},{"code":{"coding":[{"system":"http://terminology.hl7.org/CodeSystem/measure-population","code":"denominator-exclusion","display":"Denominator Exclusion"}]},"count":0},{"code":{"coding":[{"system":"http://terminology.hl7.org/CodeSystem/measure-population","code":"numerator","display":"Numerator"}]},"count":0},{"code":{"coding":[{"system":"http://terminology.hl7.org/CodeSystem/measure-population","code":"denominator-exception","display":"Denominator Exception"}]},"count":0}]}]},"request":{"method":"PUT","url":"MeasureReport/644c179e-a7cd-4c0b-8f5b-fd429f6e0b4b"}}]}