{"resourceType":"Bundle","id":"tests-f1d921e8-bf78-488a-a30e-429e232ffaa9-bundle","type":"transaction","entry":[{"fullUrl":"https://madie.cms.gov/Patient/f1d921e8-bf78-488a-a30e-429e232ffaa9","resource":{"resourceType":"Patient","id":"f1d921e8-bf78-488a-a30e-429e232ffaa9","meta":{"profile":["http://hl7.org/fhir/us/qicore/StructureDefinition/qicore-patient"]},"extension":[{"url":"http://hl7.org/fhir/us/core/StructureDefinition/us-core-race","extension":[{"url":"ombCategory","valueCoding":{"system":"urn:oid:2.16.840.1.113883.6.238","code":"2076-8","display":"Native Hawaiian or Other Pacific Islander","userSelected":true}},{"url":"text","valueString":"Native Hawaiian or Other Pacific Islander"}]},{"url":"http://hl7.org/fhir/us/core/StructureDefinition/us-core-ethnicity","extension":[{"url":"ombCategory","valueCoding":{"system":"urn:oid:2.16.840.1.113883.6.238","code":"2186-5","display":"Not Hispanic or Latino","userSelected":true}},{"url":"text","valueString":"Not Hispanic or Latino"}]}],"identifier":[{"type":{"coding":[{"system":"http://terminology.hl7.org/CodeSystem/v2-0203","code":"MR"}]},"system":"https://bonnie-fhir.healthit.gov/","value":"6179e8d8ad1a790b7af7524c"}],"name":[{"family":"DenExcl2Fail","given":["PxExclStartsAfterEndsAfterED"]}],"gender":"female","birthDate":"1984-12-02"},"request":{"method":"PUT","url":"Patient/f1d921e8-bf78-488a-a30e-429e232ffaa9"}},{"fullUrl":"https://madie.cms.gov/Encounter/emergency-department-visit-330a","resource":{"resourceType":"Encounter","id":"7da4f944-2206-4c53-93d3-94c19b819273","meta":{"profile":["http://hl7.org/fhir/us/qicore/StructureDefinition/qicore-encounter"]},"status":"finished","class":{"system":"http://terminology.hl7.org/CodeSystem/v3-ActCode","code":"EMER","display":"emergency","userSelected":true},"type":[{"coding":[{"system":"http://snomed.info/sct","version":"2020-09","code":"4525004","display":"Emergency department patient visit (procedure)","userSelected":true}]}],"subject":{"reference":"Patient/f1d921e8-bf78-488a-a30e-429e232ffaa9"},"period":{"start":"2025-10-09T08:05:00.000+00:00","end":"2025-10-10T07:15:00.000+00:00"}},"request":{"method":"PUT","url":"Encounter/7da4f944-2206-4c53-93d3-94c19b819273"}},{"fullUrl":"https://madie.cms.gov/Condition/stemi-330b","resource":{"resourceType":"Condition","id":"06f2b665-bee9-4ae0-bafc-c0cadd94e942","meta":{"profile":["http://hl7.org/fhir/us/qicore/StructureDefinition/qicore-condition"]},"clinicalStatus":{"coding":[{"system":"http://terminology.hl7.org/CodeSystem/condition-clinical","code":"active","display":"active","userSelected":true}]},"category":[{"coding":[{"system":"http://terminology.hl7.org/CodeSystem/condition-category","code":"encounter-diagnosis","display":"Encounter Diagnosis","userSelected":true}]}],"code":{"coding":[{"system":"http://snomed.info/sct","version":"2020-09","code":"401303003","display":"Acute ST segment elevation myocardial infarction (disorder)","userSelected":true}]},"subject":{"reference":"Patient/f1d921e8-bf78-488a-a30e-429e232ffaa9"},"onsetDateTime":"2025-10-09T08:30:00.000+00:00"},"request":{"method":"PUT","url":"Condition/06f2b665-bee9-4ae0-bafc-c0cadd94e942"}},{"fullUrl":"https://madie.cms.gov/Procedure/mechanical-circulatory-assist-device-524d","resource":{"resourceType":"Procedure","id":"fbb5d20e-54a6-462c-a2d3-c4f057d38ffa","meta":{"profile":["http://hl7.org/fhir/us/qicore/StructureDefinition/qicore-procedure"]},"extension":[{"url":"http://hl7.org/fhir/us/qicore/StructureDefinition/qicore-recorded","valueDateTime":"2025-10-18T08:15:00.000+00:00"}],"status":"completed","category":{"coding":[{"system":"http://snomed.info/sct","code":"387713003","display":"Surgical procedure","userSelected":true}]},"code":{"coding":[{"system":"http://www.ama-assn.org/go/cpt","code":"33975","userSelected":true}]},"subject":{"reference":"Patient/f1d921e8-bf78-488a-a30e-429e232ffaa9"},"performedPeriod":{"start":"2025-10-09T06:00:00.000+00:00","end":"2025-10-18T08:15:00.000+00:00"}},"request":{"method":"PUT","url":"Procedure/fbb5d20e-54a6-462c-a2d3-c4f057d38ffa"}},{"fullUrl":"https://madie.cms.gov/MeasureReport/ac7b51bb-ae2d-47e0-b1c7-f9edd55be7cb","resource":{"resourceType":"MeasureReport","id":"ac7b51bb-ae2d-47e0-b1c7-f9edd55be7cb","meta":{"profile":["http://hl7.org/fhir/us/cqfmeasures/StructureDefinition/test-case-cqfm"]},"contained":[{"resourceType":"Parameters","id":"b24da013-31ea-41ad-84c3-e50249442d80-parameters","parameter":[{"name":"subject","valueString":"f1d921e8-bf78-488a-a30e-429e232ffaa9"}]}],"extension":[{"url":"http://hl7.org/fhir/us/cqfmeasures/StructureDefinition/cqfm-inputParameters","valueReference":{"reference":"#b24da013-31ea-41ad-84c3-e50249442d80-parameters"}},{"url":"http://hl7.org/fhir/us/cqfmeasures/StructureDefinition/cqfm-testCaseDescription","valueMarkdown":"Patient has Mechanical Circulatory Assist Device (exclusion procedure) that starts 24 hours before and ends after the ED encounter"}],"modifierExtension":[{"url":"http://hl7.org/fhir/us/cqfmeasures/StructureDefinition/cqfm-isTestCase","valueBoolean":true}],"status":"complete","type":"individual","measure":"https://madie.cms.gov/Measure/AppropriateTreatmentforSTEMIFHIR","period":{"start":"2025-01-01","end":"2025-12-31"},"group":[{"population":[{"code":{"coding":[{"system":"http://terminology.hl7.org/CodeSystem/measure-population","code":"initial-population","display":"Initial Population"}]},"count":1},{"code":{"coding":[{"system":"http://terminology.hl7.org/CodeSystem/measure-population","code":"denominator","display":"Denominator"}]},"count":1},{"code":{"coding":[{"system":"http://terminology.hl7.org/CodeSystem/measure-population","code":"denominator-exclusion","display":"Denominator Exclusion"}]},"count":1},{"code":{"coding":[{"system":"http://terminology.hl7.org/CodeSystem/measure-population","code":"numerator","display":"Numerator"}]},"count":0},{"code":{"coding":[{"system":"http://terminology.hl7.org/CodeSystem/measure-population","code":"denominator-exception","display":"Denominator Exception"}]},"count":0}]}]},"request":{"method":"PUT","url":"MeasureReport/ac7b51bb-ae2d-47e0-b1c7-f9edd55be7cb"}}]}