{"resourceType":"Bundle","id":"tests-c6e9e711-56c5-4c13-9377-a97c702900c9-bundle","type":"transaction","entry":[{"fullUrl":"https://madie.cms.gov/Patient/c6e9e711-56c5-4c13-9377-a97c702900c9","resource":{"resourceType":"Patient","id":"c6e9e711-56c5-4c13-9377-a97c702900c9","meta":{"profile":["http://hl7.org/fhir/us/qicore/StructureDefinition/qicore-patient"]},"extension":[{"url":"http://hl7.org/fhir/us/core/StructureDefinition/us-core-race","extension":[{"url":"ombCategory","valueCoding":{"system":"urn:oid:2.16.840.1.113883.6.238","code":"2054-5","display":"Black or African American","userSelected":true}},{"url":"text","valueString":"Black or African American"}]},{"url":"http://hl7.org/fhir/us/core/StructureDefinition/us-core-ethnicity","extension":[{"url":"ombCategory","valueCoding":{"system":"urn:oid:2.16.840.1.113883.6.238","code":"2186-5","display":"Not Hispanic or Latino","userSelected":true}},{"url":"text","valueString":"Not Hispanic or Latino"}]}],"identifier":[{"type":{"coding":[{"system":"http://terminology.hl7.org/CodeSystem/v2-0203","code":"MR"}]},"system":"https://bonnie-fhir.healthit.gov/","value":"61782a0e4bf8e25b8f204e1c"}],"name":[{"family":"NumPass","given":["PCI89minarrival"]}],"gender":"female","birthDate":"1984-12-02"},"request":{"method":"PUT","url":"Patient/c6e9e711-56c5-4c13-9377-a97c702900c9"}},{"fullUrl":"https://madie.cms.gov/Encounter/emergency-department-visit-4e1d","resource":{"resourceType":"Encounter","id":"1370eee1-1b0b-402b-9855-2caeb7fe707a","meta":{"profile":["http://hl7.org/fhir/us/qicore/StructureDefinition/qicore-encounter"]},"status":"finished","class":{"system":"http://terminology.hl7.org/CodeSystem/v3-ActCode","code":"EMER","display":"emergency","userSelected":true},"type":[{"coding":[{"system":"http://snomed.info/sct","version":"2020-09","code":"4525004","display":"Emergency department patient visit (procedure)","userSelected":true}]}],"subject":{"reference":"Patient/c6e9e711-56c5-4c13-9377-a97c702900c9"},"period":{"start":"2025-10-09T08:05:00.000+00:00","end":"2025-10-10T07:15:00.000+00:00"},"reasonCode":[{"coding":[{"system":"http://hl7.org/fhir/sid/icd-10-cm","code":"I21.0","display":"ST elevation (STEMI) myocardial infarction of anterior wall","userSelected":true}]}],"diagnosis":[{"condition":{"reference":"Condition/stemi-ccb7"}}],"location":[{"location":{"reference":"Location/Location-4e15"},"period":{"start":"2025-10-09T08:05:00.000+00:00","end":"2025-10-10T07:15:00.000+00:00"}}]},"request":{"method":"PUT","url":"Encounter/1370eee1-1b0b-402b-9855-2caeb7fe707a"}},{"fullUrl":"https://madie.cms.gov/Location/Location-4e15","resource":{"resourceType":"Location","id":"9837519f-d668-4849-9524-908fbec7e26c","meta":{"profile":["http://hl7.org/fhir/us/qicore/StructureDefinition/qicore-location"]},"identifier":[{"use":"usual","system":"http://exampleoflocation.com","value":"ED-1.R3"}],"name":"Emergency Department, first floor","type":[{"coding":[{"system":"http://snomed.info/sct","version":"20210611","code":"4525004","display":"Emergency department patient visit (procedure)","userSelected":true}]},{"coding":[{"system":"http://terminology.hl7.org/CodeSystem/v3-RoleCode","version":"2019","code":"ER","display":"Emergency room","userSelected":true}]},{"coding":[{"system":"http://cts.nlm.nih.gov/fhir/CodeSystem/hsloc","version":"2022","code":"1108-0","display":"Emergency Department","userSelected":true}]}]},"request":{"method":"PUT","url":"Location/9837519f-d668-4849-9524-908fbec7e26c"}},{"fullUrl":"https://madie.cms.gov/Procedure/percutaneous-coronary-intervention-4e1e","resource":{"resourceType":"Procedure","id":"cf88aef5-c508-409c-84b4-998bbe2520b9","meta":{"profile":["http://hl7.org/fhir/us/qicore/StructureDefinition/qicore-procedure"]},"extension":[{"url":"http://hl7.org/fhir/us/qicore/StructureDefinition/qicore-recorded","valueDateTime":"2025-10-09T12:15:00.000+00:00"}],"status":"completed","category":{"coding":[{"system":"http://snomed.info/sct","code":"103693007","display":"Diagnostic procedure","userSelected":true}]},"code":{"coding":[{"system":"http://www.cms.gov/Medicare/Coding/ICD10","version":"2021","code":"0270346","display":"Dilation of Coronary Artery, One Artery, Bifurcation, with Drug-eluting Intraluminal Device, Percutaneous Approach","userSelected":true}]},"subject":{"reference":"Patient/c6e9e711-56c5-4c13-9377-a97c702900c9"},"performedPeriod":{"start":"2025-10-09T09:34:00.000+00:00","end":"2025-10-09T12:15:00.000+00:00"}},"request":{"method":"PUT","url":"Procedure/cf88aef5-c508-409c-84b4-998bbe2520b9"}},{"fullUrl":"https://madie.cms.gov/Condition/stemi-ccb7","resource":{"resourceType":"Condition","id":"02eddb94-b49c-4160-8e7a-25eb586e07d2","meta":{"profile":["http://hl7.org/fhir/us/qicore/StructureDefinition/qicore-condition"]},"clinicalStatus":{"coding":[{"system":"http://terminology.hl7.org/CodeSystem/condition-clinical","code":"active","display":"Active","userSelected":true}]},"category":[{"coding":[{"system":"http://terminology.hl7.org/CodeSystem/condition-category","code":"encounter-diagnosis","display":"Encounter Diagnosis","userSelected":true}]}],"code":{"coding":[{"system":"http://snomed.info/sct","version":"2020-09","code":"401303003","display":"Acute ST segment elevation myocardial infarction (disorder)","userSelected":true}]},"subject":{"reference":"Patient/c6e9e711-56c5-4c13-9377-a97c702900c9"},"onsetDateTime":"2025-10-09T08:10:00.000+00:00"},"request":{"method":"PUT","url":"Condition/02eddb94-b49c-4160-8e7a-25eb586e07d2"}},{"fullUrl":"https://madie.cms.gov/MeasureReport/1d3d27ea-a109-41c6-b0a9-105ebfb7c6ee","resource":{"resourceType":"MeasureReport","id":"1d3d27ea-a109-41c6-b0a9-105ebfb7c6ee","meta":{"profile":["http://hl7.org/fhir/us/cqfmeasures/StructureDefinition/test-case-cqfm"]},"contained":[{"resourceType":"Parameters","id":"52bf8440-1d13-4c1b-881b-5fd47abcebf8-parameters","parameter":[{"name":"subject","valueString":"c6e9e711-56c5-4c13-9377-a97c702900c9"}]}],"extension":[{"url":"http://hl7.org/fhir/us/cqfmeasures/StructureDefinition/cqfm-inputParameters","valueReference":{"reference":"#52bf8440-1d13-4c1b-881b-5fd47abcebf8-parameters"}},{"url":"http://hl7.org/fhir/us/cqfmeasures/StructureDefinition/cqfm-testCaseDescription","valueMarkdown":"PCI 89 minutes of ED start"}],"modifierExtension":[{"url":"http://hl7.org/fhir/us/cqfmeasures/StructureDefinition/cqfm-isTestCase","valueBoolean":true}],"status":"complete","type":"individual","measure":"https://madie.cms.gov/Measure/AppropriateTreatmentforSTEMIFHIR","period":{"start":"2025-01-01","end":"2025-12-31"},"group":[{"population":[{"code":{"coding":[{"system":"http://terminology.hl7.org/CodeSystem/measure-population","code":"initial-population","display":"Initial Population"}]},"count":1},{"code":{"coding":[{"system":"http://terminology.hl7.org/CodeSystem/measure-population","code":"denominator","display":"Denominator"}]},"count":1},{"code":{"coding":[{"system":"http://terminology.hl7.org/CodeSystem/measure-population","code":"denominator-exclusion","display":"Denominator Exclusion"}]},"count":0},{"code":{"coding":[{"system":"http://terminology.hl7.org/CodeSystem/measure-population","code":"numerator","display":"Numerator"}]},"count":1},{"code":{"coding":[{"system":"http://terminology.hl7.org/CodeSystem/measure-population","code":"denominator-exception","display":"Denominator Exception"}]},"count":0}]}]},"request":{"method":"PUT","url":"MeasureReport/1d3d27ea-a109-41c6-b0a9-105ebfb7c6ee"}}]}