{"resourceType":"Bundle","id":"tests-64b49dbf-ca61-4e12-a99c-b2bfb95c53fb-bundle","type":"transaction","entry":[{"fullUrl":"https://madie.cms.gov/Patient/64b49dbf-ca61-4e12-a99c-b2bfb95c53fb","resource":{"resourceType":"Patient","id":"64b49dbf-ca61-4e12-a99c-b2bfb95c53fb","meta":{"profile":["http://hl7.org/fhir/us/qicore/StructureDefinition/qicore-patient"]},"extension":[{"url":"http://hl7.org/fhir/us/core/StructureDefinition/us-core-race","extension":[{"url":"ombCategory","valueCoding":{"system":"urn:oid:2.16.840.1.113883.6.238","code":"2076-8","display":"Native Hawaiian or Other Pacific Islander","userSelected":true}},{"url":"text","valueString":"Native Hawaiian or Other Pacific Islander"}]},{"url":"http://hl7.org/fhir/us/core/StructureDefinition/us-core-ethnicity","extension":[{"url":"ombCategory","valueCoding":{"system":"urn:oid:2.16.840.1.113883.6.238","code":"2186-5","display":"Not Hispanic or Latino","userSelected":true}},{"url":"text","valueString":"Not Hispanic or Latino"}]}],"identifier":[{"type":{"coding":[{"system":"http://terminology.hl7.org/CodeSystem/v2-0203","code":"MR"}]},"system":"https://bonnie-fhir.healthit.gov/","value":"617c00401289f5673c8cefff"}],"name":[{"family":"DenExcl5Pass","given":["PxStarts8DBeforeEDEndsDuringED"]}],"gender":"female","birthDate":"1984-12-02"},"request":{"method":"PUT","url":"Patient/64b49dbf-ca61-4e12-a99c-b2bfb95c53fb"}},{"fullUrl":"https://madie.cms.gov/Encounter/emergency-department-visit-330a","resource":{"resourceType":"Encounter","id":"6f147f19-3b7e-46d0-9085-375d9cc812cd","meta":{"profile":["http://hl7.org/fhir/us/qicore/StructureDefinition/qicore-encounter"]},"status":"finished","class":{"system":"http://terminology.hl7.org/CodeSystem/v3-ActCode","code":"EMER","display":"emergency","userSelected":true},"type":[{"coding":[{"system":"http://snomed.info/sct","version":"2020-09","code":"4525004","display":"Emergency department patient visit (procedure)","userSelected":true}]}],"subject":{"reference":"Patient/64b49dbf-ca61-4e12-a99c-b2bfb95c53fb"},"period":{"start":"2025-10-09T08:05:00.000+00:00","end":"2025-10-10T07:15:00.000+00:00"}},"request":{"method":"PUT","url":"Encounter/6f147f19-3b7e-46d0-9085-375d9cc812cd"}},{"fullUrl":"https://madie.cms.gov/Condition/stemi-330b","resource":{"resourceType":"Condition","id":"bb93e66a-64b5-4f7a-a981-b5d6c4636a92","meta":{"profile":["http://hl7.org/fhir/us/qicore/StructureDefinition/qicore-condition"]},"clinicalStatus":{"coding":[{"system":"http://terminology.hl7.org/CodeSystem/condition-clinical","code":"active","display":"active","userSelected":true}]},"category":[{"coding":[{"system":"http://terminology.hl7.org/CodeSystem/condition-category","code":"encounter-diagnosis","display":"Encounter Diagnosis","userSelected":true}]}],"code":{"coding":[{"system":"http://snomed.info/sct","version":"2020-09","code":"401303003","display":"Acute ST segment elevation myocardial infarction (disorder)","userSelected":true}]},"subject":{"reference":"Patient/64b49dbf-ca61-4e12-a99c-b2bfb95c53fb"},"onsetDateTime":"2025-10-09T08:30:00.000+00:00"},"request":{"method":"PUT","url":"Condition/bb93e66a-64b5-4f7a-a981-b5d6c4636a92"}},{"fullUrl":"https://madie.cms.gov/Procedure/intracranial-or-intraspinal-surgery-f000","resource":{"resourceType":"Procedure","id":"cbf339e4-b0f8-418a-b478-24006c0d0402","meta":{"profile":["http://hl7.org/fhir/us/qicore/StructureDefinition/qicore-procedure"]},"extension":[{"url":"http://hl7.org/fhir/us/qicore/StructureDefinition/qicore-recorded","valueDateTime":"2025-10-09T10:15:00.000+00:00"}],"status":"completed","category":{"coding":[{"system":"http://snomed.info/sct","code":"387713003","display":"Surgical procedure","userSelected":true}]},"code":{"coding":[{"system":"http://www.cms.gov/Medicare/Coding/ICD10","version":"2021","code":"00500ZZ","display":"Destruction of Brain, Open Approach","userSelected":true}]},"subject":{"reference":"Patient/64b49dbf-ca61-4e12-a99c-b2bfb95c53fb"},"performedPeriod":{"start":"2025-10-01T08:00:00.000+00:00","end":"2025-10-09T10:15:00.000+00:00"}},"request":{"method":"PUT","url":"Procedure/cbf339e4-b0f8-418a-b478-24006c0d0402"}},{"fullUrl":"https://madie.cms.gov/MeasureReport/a36607bd-48d4-452d-96c4-cb131dcb8c08","resource":{"resourceType":"MeasureReport","id":"a36607bd-48d4-452d-96c4-cb131dcb8c08","meta":{"profile":["http://hl7.org/fhir/us/cqfmeasures/StructureDefinition/test-case-cqfm"]},"contained":[{"resourceType":"Parameters","id":"838fffe8-5ed7-49d7-8edd-5fda91b0c85c-parameters","parameter":[{"name":"subject","valueString":"64b49dbf-ca61-4e12-a99c-b2bfb95c53fb"}]}],"extension":[{"url":"http://hl7.org/fhir/us/cqfmeasures/StructureDefinition/cqfm-inputParameters","valueReference":{"reference":"#838fffe8-5ed7-49d7-8edd-5fda91b0c85c-parameters"}},{"url":"http://hl7.org/fhir/us/cqfmeasures/StructureDefinition/cqfm-testCaseDescription","valueMarkdown":"Patient has Intracranial or Intraspinal Surgery (exclusion Px) starts 8 days before ED visit and ends during ED\n**need to select codes to test this logic as value set overlaps with major surgical procedure**"}],"modifierExtension":[{"url":"http://hl7.org/fhir/us/cqfmeasures/StructureDefinition/cqfm-isTestCase","valueBoolean":true}],"status":"complete","type":"individual","measure":"https://madie.cms.gov/Measure/AppropriateTreatmentforSTEMIFHIR","period":{"start":"2025-01-01","end":"2025-12-31"},"group":[{"population":[{"code":{"coding":[{"system":"http://terminology.hl7.org/CodeSystem/measure-population","code":"initial-population","display":"Initial Population"}]},"count":1},{"code":{"coding":[{"system":"http://terminology.hl7.org/CodeSystem/measure-population","code":"denominator","display":"Denominator"}]},"count":1},{"code":{"coding":[{"system":"http://terminology.hl7.org/CodeSystem/measure-population","code":"denominator-exclusion","display":"Denominator Exclusion"}]},"count":1},{"code":{"coding":[{"system":"http://terminology.hl7.org/CodeSystem/measure-population","code":"numerator","display":"Numerator"}]},"count":0},{"code":{"coding":[{"system":"http://terminology.hl7.org/CodeSystem/measure-population","code":"denominator-exception","display":"Denominator Exception"}]},"count":0}]}]},"request":{"method":"PUT","url":"MeasureReport/a36607bd-48d4-452d-96c4-cb131dcb8c08"}}]}