{
  "resourceType": "Bundle",
  "id": "610965b898086b538055c154",
  "type": "transaction",
  "entry": [ {
    "fullUrl": "https://madie.cms.gov/Patient/72632db4-5184-4a7f-8ab7-879a7503ac49",
    "resource": {
      "resourceType": "Patient",
      "id": "72632db4-5184-4a7f-8ab7-879a7503ac49",
      "meta": {
        "profile": [ "http://hl7.org/fhir/us/qicore/StructureDefinition/qicore-patient" ]
      },
      "text": {
        "status": "generated",
        "div": "<div xmlns=\"http://www.w3.org/1999/xhtml\"><div class=\"hapiHeaderText\">LabTestHIVDxBeforeMP <b>NUMERFAIL </b></div><table class=\"hapiPropertyTable\"><tbody><tr><td>Date of birth</td><td><span>31 July 1992</span></td></tr></tbody></table></div>"
      },
      "extension": [ {
        "url": "http://hl7.org/fhir/us/core/StructureDefinition/us-core-race",
        "extension": [ {
          "url": "ombCategory",
          "valueCoding": {
            "system": "urn:oid:2.16.840.1.113883.6.238",
            "code": "2054-5",
            "display": "Black or African American",
            "userSelected": true
          }
        }, {
          "url": "text",
          "valueString": "Black or African American"
        } ]
      }, {
        "url": "http://hl7.org/fhir/us/core/StructureDefinition/us-core-ethnicity",
        "extension": [ {
          "url": "ombCategory",
          "valueCoding": {
            "system": "urn:oid:2.16.840.1.113883.6.238",
            "code": "2186-5",
            "display": "Not Hispanic or Latino",
            "userSelected": true
          }
        }, {
          "url": "text",
          "valueString": "Not Hispanic or Latino"
        } ]
      } ],
      "identifier": [ {
        "type": {
          "coding": [ {
            "system": "http://terminology.hl7.org/CodeSystem/v2-0203",
            "code": "MR"
          } ]
        },
        "system": "https://bonnie-fhir.healthit.gov/",
        "value": "610965b898086b538055c154"
      } ],
      "active": true,
      "name": [ {
        "use": "usual",
        "family": "NUMERFail",
        "given": [ "LabTestHIVDxBeforeMP" ]
      } ],
      "gender": "female",
      "birthDate": "2003-07-31"
    },
    "request": {
      "method": "POST",
      "url": "Patient/72632db4-5184-4a7f-8ab7-879a7503ac49"
    }
  }, {
    "fullUrl": "https://madie.cms.gov/Condition/5e5966f59ec84a00005dbc9a",
    "resource": {
      "resourceType": "Condition",
      "id": "5e5966f59ec84a00005dbc9a",
      "meta": {
        "profile": [ "http://hl7.org/fhir/us/qicore/StructureDefinition/qicore-condition" ]
      },
      "clinicalStatus": {
        "coding": [ {
          "system": "http://terminology.hl7.org/CodeSystem/condition-clinical",
          "version": "4.0.1",
          "code": "inactive",
          "display": "Inactive",
          "userSelected": true
        } ]
      },
      "category": [ {
        "coding": [ {
          "system": "http://terminology.hl7.org/CodeSystem/condition-category",
          "code": "encounter-diagnosis",
          "display": "Encounter Diagnosis",
          "userSelected": true
        } ]
      } ],
      "code": {
        "coding": [ {
          "system": "http://hl7.org/fhir/sid/icd-9-cm",
          "code": "042"
        } ]
      },
      "subject": {
        "reference": "Patient/72632db4-5184-4a7f-8ab7-879a7503ac49"
      },
      "onsetDateTime": "2012-10-24T08:00:00+00:00",
      "abatementDateTime": "2025-04-06T08:00:00.000+00:00"
    },
    "request": {
      "method": "POST",
      "url": "Condition/5e5966f59ec84a00005dbc9a"
    }
  }, {
    "fullUrl": "https://madie.cms.gov/Encounter/5dd6b917eeabfe0000a7c490",
    "resource": {
      "resourceType": "Encounter",
      "id": "5dd6b917eeabfe0000a7c490",
      "meta": {
        "profile": [ "http://hl7.org/fhir/us/qicore/StructureDefinition/qicore-encounter" ]
      },
      "status": "finished",
      "class": {
        "system": "http://terminology.hl7.org/CodeSystem/v3-ActCode",
        "code": "AMB",
        "display": "ambulatory",
        "userSelected": true
      },
      "type": [ {
        "coding": [ {
          "system": "http://snomed.info/sct",
          "code": "185463005"
        }, {
          "system": "http://www.ama-assn.org/go/cpt",
          "code": "99204"
        } ]
      } ],
      "subject": {
        "reference": "Patient/72632db4-5184-4a7f-8ab7-879a7503ac49"
      },
      "period": {
        "start": "2025-10-24T08:00:00.000+00:00",
        "end": "2025-10-24T08:15:00.000+00:00"
      }
    },
    "request": {
      "method": "POST",
      "url": "Encounter/5dd6b917eeabfe0000a7c490"
    }
  }, {
    "fullUrl": "https://madie.cms.gov/Observation/hiv-1-and-2-tests-meaningful-use-set-d9ca",
    "resource": {
      "resourceType": "Observation",
      "id": "hiv-1-and-2-tests-meaningful-use-set-d9ca",
      "meta": {
        "profile": [ "http://hl7.org/fhir/us/qicore/StructureDefinition/qicore-observation" ]
      },
      "status": "amended",
      "category": [ {
        "coding": [ {
          "system": "http://terminology.hl7.org/CodeSystem/observation-category",
          "code": "laboratory",
          "display": "Laboratory",
          "userSelected": true
        } ]
      } ],
      "code": {
        "coding": [ {
          "system": "http://loinc.org",
          "code": "75622-1",
          "display": "HIV 1 and 2 tests - Meaningful Use set",
          "userSelected": true
        } ]
      },
      "subject": {
        "reference": "Patient/72632db4-5184-4a7f-8ab7-879a7503ac49"
      },
      "effectiveDateTime": "2025-04-06T08:00:00.000+00:00",
      "valueBoolean": true
    },
    "request": {
      "method": "POST",
      "url": "Observation/hiv-1-and-2-tests-meaningful-use-set-d9ca"
    }
  }, {
    "fullUrl": "https://madie.cms.gov/MeasureReport/694dc765-eb82-430c-a4cf-ce86c8a75ecf",
    "resource": {
      "resourceType": "MeasureReport",
      "id": "694dc765-eb82-430c-a4cf-ce86c8a75ecf",
      "meta": {
        "profile": [ "http://hl7.org/fhir/us/cqfmeasures/StructureDefinition/test-case-cqfm" ]
      },
      "contained": [ {
        "resourceType": "Parameters",
        "id": "7d3299fa-a016-415e-9168-2acec595805e-parameters",
        "parameter": [ {
          "name": "subject",
          "valueString": "72632db4-5184-4a7f-8ab7-879a7503ac49"
        } ]
      } ],
      "extension": [ {
        "url": "http://hl7.org/fhir/us/cqfmeasures/StructureDefinition/cqfm-inputParameters",
        "valueReference": {
          "reference": "#7d3299fa-a016-415e-9168-2acec595805e-parameters"
        }
      }, {
        "url": "http://hl7.org/fhir/us/cqfmeasures/StructureDefinition/cqfm-testCaseDescription",
        "valueMarkdown": "Patient 20 at start of MP, qual encounter during MP, HIV diagnosis starts before MP and ends during MP, lab test at 20 during MP.\n*Kim: this fails num in Bonnie but passes here. In Bonnie the lab has to be before MP, but here it can be during"
      } ],
      "modifierExtension": [ {
        "url": "http://hl7.org/fhir/us/cqfmeasures/StructureDefinition/cqfm-isTestCase",
        "valueBoolean": true
      } ],
      "status": "complete",
      "type": "individual",
      "measure": "https://madie.cms.gov/Measure/HIVScreeningFHIR",
      "period": {
        "start": "2025-01-01",
        "end": "2025-12-31"
      },
      "group": [ {
        "population": [ {
          "code": {
            "coding": [ {
              "system": "http://terminology.hl7.org/CodeSystem/measure-population",
              "code": "initial-population",
              "display": "Initial Population"
            } ]
          },
          "count": 1
        }, {
          "code": {
            "coding": [ {
              "system": "http://terminology.hl7.org/CodeSystem/measure-population",
              "code": "denominator",
              "display": "Denominator"
            } ]
          },
          "count": 1
        }, {
          "code": {
            "coding": [ {
              "system": "http://terminology.hl7.org/CodeSystem/measure-population",
              "code": "denominator-exclusion",
              "display": "Denominator Exclusion"
            } ]
          },
          "count": 0
        }, {
          "code": {
            "coding": [ {
              "system": "http://terminology.hl7.org/CodeSystem/measure-population",
              "code": "numerator",
              "display": "Numerator"
            } ]
          },
          "count": 1
        } ]
      } ],
      "evaluatedResource": [ {
        "reference": "Patient/72632db4-5184-4a7f-8ab7-879a7503ac49"
      }, {
        "reference": "Condition/5e5966f59ec84a00005dbc9a"
      }, {
        "reference": "Encounter/5dd6b917eeabfe0000a7c490"
      }, {
        "reference": "Observation/hiv-1-and-2-tests-meaningful-use-set-d9ca"
      } ]
    },
    "request": {
      "method": "POST",
      "url": "MeasureReport/694dc765-eb82-430c-a4cf-ce86c8a75ecf"
    }
  } ]
}