{"resourceType":"Bundle","id":"tests-9177b3ca-1cd7-404c-93f9-5bc782b9963a-bundle","type":"transaction","entry":[{"fullUrl":"https://madie.cms.gov/Patient/9177b3ca-1cd7-404c-93f9-5bc782b9963a","resource":{"resourceType":"Patient","id":"9177b3ca-1cd7-404c-93f9-5bc782b9963a","meta":{"profile":["http://hl7.org/fhir/us/qicore/StructureDefinition/qicore-patient"]},"extension":[{"url":"http://hl7.org/fhir/us/core/StructureDefinition/us-core-race","extension":[{"url":"ombCategory","valueCoding":{"system":"urn:oid:2.16.840.1.113883.6.238","code":"2028-9","display":"Asian"}},{"url":"text","valueString":"Asian"}]},{"url":"http://hl7.org/fhir/us/core/StructureDefinition/us-core-ethnicity","extension":[{"url":"ombCategory","valueCoding":{"system":"urn:oid:2.16.840.1.113883.6.238","code":"2135-2","display":"Hispanic or Latino"}},{"url":"text","valueString":"Hispanic or Latino"}]}],"identifier":[{"system":"http://hospital.smarthealthit.org","value":"999999995"}],"name":[{"family":"Bertha","given":["Betty"]}],"gender":"female","birthDate":"1959-12-31"},"request":{"method":"PUT","url":"Patient/9177b3ca-1cd7-404c-93f9-5bc782b9963a"}},{"fullUrl":"https://madie.cms.gov/Encounter/Encounter-22","resource":{"resourceType":"Encounter","id":"b435aed9-1c8e-4b89-bede-cef6af8a7463","meta":{"profile":["http://hl7.org/fhir/us/qicore/StructureDefinition/qicore-encounter"]},"status":"finished","class":{"system":"http://terminology.hl7.org/CodeSystem/v3-ActCode","code":"AMB","display":"ambulatory"},"type":[{"coding":[{"system":"http://snomed.info/sct","code":"185463005","display":"Visit out of hours (procedure)"}]}],"subject":{"reference":"Patient/9177b3ca-1cd7-404c-93f9-5bc782b9963a"},"period":{"start":"2025-01-01T00:00:00.000Z","end":"2025-01-01T00:00:00.000Z"}},"request":{"method":"PUT","url":"Encounter/b435aed9-1c8e-4b89-bede-cef6af8a7463"}},{"fullUrl":"https://madie.cms.gov/Condition/Condition-22","resource":{"resourceType":"Condition","id":"a7285874-8712-41d4-9bba-cabb32afc9b6","meta":{"profile":["http://hl7.org/fhir/us/qicore/StructureDefinition/qicore-condition"]},"clinicalStatus":{"coding":[{"system":"http://terminology.hl7.org/CodeSystem/condition-clinical","code":"active"}]},"category":[{"coding":[{"system":"http://terminology.hl7.org/CodeSystem/condition-category","code":"problem-list-item","display":"Problem List Item"}]}],"code":{"coding":[{"system":"http://snomed.info/sct","code":"102781000119107","display":"Sensory neuropathy due to type 1 diabetes mellitus (disorder)"}]},"subject":{"reference":"Patient/9177b3ca-1cd7-404c-93f9-5bc782b9963a"},"onsetDateTime":"2025-01-01T00:00:00.000Z"},"request":{"method":"PUT","url":"Condition/a7285874-8712-41d4-9bba-cabb32afc9b6"}},{"fullUrl":"https://madie.cms.gov/Observation/Observation-22","resource":{"resourceType":"Observation","id":"30ef5830-a4f3-4b96-9132-e8b67b6aa1e5","meta":{"profile":["http://hl7.org/fhir/us/qicore/StructureDefinition/qicore-observation"]},"status":"cancelled","category":[{"coding":[{"system":"http://terminology.hl7.org/CodeSystem/observation-category","code":"survey"}]}],"code":{"coding":[{"system":"http://loinc.org","code":"71802-3","display":"Housing status"}]},"subject":{"reference":"Patient/9177b3ca-1cd7-404c-93f9-5bc782b9963a"},"effectivePeriod":{"start":"2025-12-31T23:59:59.000Z","end":"2025-12-31T23:59:59.000Z"},"valueCodeableConcept":{"coding":[{"system":"http://snomed.info/sct","code":"160734000","display":"Lives in a nursing home (finding)"}]}},"request":{"method":"PUT","url":"Observation/30ef5830-a4f3-4b96-9132-e8b67b6aa1e5"}},{"fullUrl":"https://madie.cms.gov/MeasureReport/caf74d99-3e90-44fd-a905-65cb0b7c4bca","resource":{"resourceType":"MeasureReport","id":"caf74d99-3e90-44fd-a905-65cb0b7c4bca","meta":{"profile":["http://hl7.org/fhir/us/cqfmeasures/StructureDefinition/test-case-cqfm"]},"contained":[{"resourceType":"Parameters","id":"52dd9d8d-98f2-448b-b95e-72842bb813a1-parameters","parameter":[{"name":"subject","valueString":"9177b3ca-1cd7-404c-93f9-5bc782b9963a"}]}],"extension":[{"url":"http://hl7.org/fhir/us/cqfmeasures/StructureDefinition/cqfm-inputParameters","valueReference":{"reference":"#52dd9d8d-98f2-448b-b95e-72842bb813a1-parameters"}},{"url":"http://hl7.org/fhir/us/cqfmeasures/StructureDefinition/cqfm-testCaseDescription","valueMarkdown":"Patient 66yo w/ an Office Visit Encounter 1/1 of the MP, & Diabetes Condition ending 1/1 during the MP, & an Observation AIFrailty Living In Nursing Home that starts on 12/31 of the MP, with a status of cancelled."}],"modifierExtension":[{"url":"http://hl7.org/fhir/us/cqfmeasures/StructureDefinition/cqfm-isTestCase","valueBoolean":true}],"status":"complete","type":"individual","measure":"https://madie.cms.gov/Measure/DiabetesEyeExamFHIR","period":{"start":"2025-01-01","end":"2025-12-31"},"group":[{"population":[{"code":{"coding":[{"system":"http://terminology.hl7.org/CodeSystem/measure-population","code":"initial-population","display":"Initial Population"}]},"count":1},{"code":{"coding":[{"system":"http://terminology.hl7.org/CodeSystem/measure-population","code":"denominator","display":"Denominator"}]},"count":1},{"code":{"coding":[{"system":"http://terminology.hl7.org/CodeSystem/measure-population","code":"denominator-exclusion","display":"Denominator Exclusion"}]},"count":0},{"code":{"coding":[{"system":"http://terminology.hl7.org/CodeSystem/measure-population","code":"numerator","display":"Numerator"}]},"count":0}]}]},"request":{"method":"PUT","url":"MeasureReport/caf74d99-3e90-44fd-a905-65cb0b7c4bca"}}]}