{"resourceType":"Bundle","id":"tests-61dfb0bd-8fe0-4e30-a911-fa07c782afd9-bundle","type":"transaction","entry":[{"fullUrl":"https://madie.cms.gov/Patient/61dfb0bd-8fe0-4e30-a911-fa07c782afd9","resource":{"resourceType":"Patient","id":"61dfb0bd-8fe0-4e30-a911-fa07c782afd9","meta":{"profile":["http://hl7.org/fhir/us/qicore/StructureDefinition/qicore-patient"]},"extension":[{"url":"http://hl7.org/fhir/us/core/StructureDefinition/us-core-race","extension":[{"url":"ombCategory","valueCoding":{"system":"urn:oid:2.16.840.1.113883.6.238","code":"2028-9","display":"Asian","userSelected":true}},{"url":"text","valueString":"Asian"}]},{"url":"http://hl7.org/fhir/us/core/StructureDefinition/us-core-ethnicity","extension":[{"url":"ombCategory","valueCoding":{"system":"urn:oid:2.16.840.1.113883.6.238","code":"2135-2","display":"Hispanic or Latino","userSelected":true}},{"url":"text","valueString":"Hispanic or Latino"}]}],"identifier":[{"type":{"coding":[{"system":"http://terminology.hl7.org/CodeSystem/v2-0203","code":"MR"}]},"system":"http://hospital.smarthealthit.org","value":"999999995"}],"name":[{"family":"Bertha","given":["Betty"]}],"gender":"female","birthDate":"1954-12-31"},"request":{"method":"PUT","url":"Patient/61dfb0bd-8fe0-4e30-a911-fa07c782afd9"}},{"fullUrl":"https://madie.cms.gov/Encounter/Encounter-1","resource":{"resourceType":"Encounter","id":"5da74eac-b777-4895-a4b6-b99271718011","meta":{"profile":["http://hl7.org/fhir/us/qicore/StructureDefinition/qicore-encounter"]},"status":"finished","class":{"system":"http://terminology.hl7.org/CodeSystem/v3-ActCode","code":"AMB","display":"ambulatory"},"type":[{"coding":[{"system":"http://snomed.info/sct","code":"456201000124103","display":"Medicare annual wellness visit (procedure)"}]}],"subject":{"reference":"Patient/61dfb0bd-8fe0-4e30-a911-fa07c782afd9"},"period":{"start":"2025-01-01T00:00:00.000Z","end":"2025-01-01T00:00:00.000Z"}},"request":{"method":"PUT","url":"Encounter/5da74eac-b777-4895-a4b6-b99271718011"}},{"fullUrl":"https://madie.cms.gov/Condition/Condition-1","resource":{"resourceType":"Condition","id":"b5bc4037-515c-46a5-9d8f-bb738af7aa0e","meta":{"profile":["http://hl7.org/fhir/us/qicore/StructureDefinition/qicore-condition"]},"clinicalStatus":{"coding":[{"system":"http://terminology.hl7.org/CodeSystem/condition-clinical","code":"active"}]},"category":[{"coding":[{"system":"http://terminology.hl7.org/CodeSystem/condition-category","code":"problem-list-item","display":"Problem List Item"}]}],"code":{"coding":[{"system":"http://snomed.info/sct","code":"102781000119107","display":"Sensory neuropathy due to type 1 diabetes mellitus (disorder)"}]},"subject":{"reference":"Patient/61dfb0bd-8fe0-4e30-a911-fa07c782afd9"},"onsetDateTime":"2025-01-01T00:00:00.000Z"},"request":{"method":"PUT","url":"Condition/b5bc4037-515c-46a5-9d8f-bb738af7aa0e"}},{"fullUrl":"https://madie.cms.gov/MedicationRequest/MedicationRequest-1","resource":{"resourceType":"MedicationRequest","id":"deb1d238-cf7f-4c10-8bd8-b3572580b700","meta":{"profile":["http://hl7.org/fhir/us/qicore/StructureDefinition/qicore-medicationrequest"]},"status":"active","intent":"order","doNotPerform":false,"medicationCodeableConcept":{"coding":[{"system":"http://www.nlm.nih.gov/research/umls/rxnorm","code":"312836","display":"rivastigmine 6 MG Oral Capsule"}]},"subject":{"reference":"Patient/61dfb0bd-8fe0-4e30-a911-fa07c782afd9"},"authoredOn":"2025-12-30T00:00:00.000Z","requester":{"reference":"Practitioner/example"},"dispenseRequest":{"expectedSupplyDuration":{"value":90,"system":"http://unitsofmeasure.org","code":"days"}}},"request":{"method":"PUT","url":"MedicationRequest/deb1d238-cf7f-4c10-8bd8-b3572580b700"}},{"fullUrl":"https://madie.cms.gov/Observation/Observation-1","resource":{"resourceType":"Observation","id":"21959834-d806-4f51-97e9-21456b8115f1","meta":{"profile":["http://hl7.org/fhir/us/qicore/StructureDefinition/qicore-observation"]},"status":"final","category":[{"coding":[{"system":"http://terminology.hl7.org/CodeSystem/observation-category","code":"survey"}]}],"code":{"coding":[{"system":"http://loinc.org","code":"98181-1","display":"Medical equipment used"}]},"subject":{"reference":"Patient/61dfb0bd-8fe0-4e30-a911-fa07c782afd9"},"effectivePeriod":{"start":"2025-01-01T00:00:00.000Z","end":"2025-01-01T01:00:00.000Z"},"valueCodeableConcept":{"coding":[{"system":"http://snomed.info/sct","code":"262177002","display":"Static oxygen cylinder (physical object)"}]}},"request":{"method":"PUT","url":"Observation/21959834-d806-4f51-97e9-21456b8115f1"}},{"fullUrl":"https://madie.cms.gov/MeasureReport/0af435dc-13c9-47a1-8745-1265564ee7b7","resource":{"resourceType":"MeasureReport","id":"0af435dc-13c9-47a1-8745-1265564ee7b7","meta":{"profile":["http://hl7.org/fhir/us/cqfmeasures/StructureDefinition/test-case-cqfm"]},"contained":[{"resourceType":"Parameters","id":"aae8ca2b-641a-46f2-8e0e-dde21a3fd812-parameters","parameter":[{"name":"subject","valueString":"61dfb0bd-8fe0-4e30-a911-fa07c782afd9"}]}],"extension":[{"url":"http://hl7.org/fhir/us/cqfmeasures/StructureDefinition/cqfm-inputParameters","valueReference":{"reference":"#aae8ca2b-641a-46f2-8e0e-dde21a3fd812-parameters"}},{"url":"http://hl7.org/fhir/us/cqfmeasures/StructureDefinition/cqfm-testCaseDescription","valueMarkdown":"Frailty observation during the MP"}],"modifierExtension":[{"url":"http://hl7.org/fhir/us/cqfmeasures/StructureDefinition/cqfm-isTestCase","valueBoolean":true}],"status":"complete","type":"individual","measure":"https://madie.cms.gov/Measure/DiabetesEyeExamFHIR","period":{"start":"2025-01-01","end":"2025-12-31"},"group":[{"population":[{"code":{"coding":[{"system":"http://terminology.hl7.org/CodeSystem/measure-population","code":"initial-population","display":"Initial Population"}]},"count":1},{"code":{"coding":[{"system":"http://terminology.hl7.org/CodeSystem/measure-population","code":"denominator","display":"Denominator"}]},"count":1},{"code":{"coding":[{"system":"http://terminology.hl7.org/CodeSystem/measure-population","code":"denominator-exclusion","display":"Denominator Exclusion"}]},"count":1},{"code":{"coding":[{"system":"http://terminology.hl7.org/CodeSystem/measure-population","code":"numerator","display":"Numerator"}]},"count":0}]}]},"request":{"method":"PUT","url":"MeasureReport/0af435dc-13c9-47a1-8745-1265564ee7b7"}}]}