{"resourceType":"Bundle","id":"tests-d3b4f0ab-d8d1-4c4c-8763-7a8276e0c3ca-bundle","type":"transaction","entry":[{"fullUrl":"https://madie.cms.gov/Patient/d3b4f0ab-d8d1-4c4c-8763-7a8276e0c3ca","resource":{"resourceType":"Patient","id":"d3b4f0ab-d8d1-4c4c-8763-7a8276e0c3ca","meta":{"profile":["http://hl7.org/fhir/us/qicore/StructureDefinition/qicore-patient"]},"extension":[{"url":"http://hl7.org/fhir/us/core/StructureDefinition/us-core-race","extension":[{"url":"ombCategory","valueCoding":{"system":"urn:oid:2.16.840.1.113883.6.238","code":"2028-9","display":"Asian"}},{"url":"text","valueString":"Asian"}]},{"url":"http://hl7.org/fhir/us/core/StructureDefinition/us-core-ethnicity","extension":[{"url":"ombCategory","valueCoding":{"system":"urn:oid:2.16.840.1.113883.6.238","code":"2135-2","display":"Hispanic or Latino"}},{"url":"text","valueString":"Hispanic or Latino"}]}],"identifier":[{"system":"http://hospital.smarthealthit.org","value":"999999995"}],"name":[{"family":"Bertha","given":["Betty"]}],"gender":"female","birthDate":"2007-12-31"},"request":{"method":"PUT","url":"Patient/d3b4f0ab-d8d1-4c4c-8763-7a8276e0c3ca"}},{"fullUrl":"https://madie.cms.gov/Encounter/Encounter-23","resource":{"resourceType":"Encounter","id":"d32cdd18-eac3-4d82-aa90-cf44ee7203a5","meta":{"profile":["http://hl7.org/fhir/us/qicore/StructureDefinition/qicore-encounter"]},"status":"finished","class":{"system":"http://terminology.hl7.org/CodeSystem/v3-ActCode","code":"AMB","display":"ambulatory"},"type":[{"coding":[{"system":"http://snomed.info/sct","code":"185463005","display":"Visit out of hours (procedure)"}]}],"subject":{"reference":"Patient/d3b4f0ab-d8d1-4c4c-8763-7a8276e0c3ca"},"period":{"start":"2025-01-01T00:00:00.000Z","end":"2025-01-01T00:00:00.000Z"}},"request":{"method":"PUT","url":"Encounter/d32cdd18-eac3-4d82-aa90-cf44ee7203a5"}},{"fullUrl":"https://madie.cms.gov/Condition/Condition-23","resource":{"resourceType":"Condition","id":"ec5afc6c-9e6b-46d5-8a14-c7436914f433","meta":{"profile":["http://hl7.org/fhir/us/qicore/StructureDefinition/qicore-condition"]},"clinicalStatus":{"coding":[{"system":"http://terminology.hl7.org/CodeSystem/condition-clinical","code":"active"}]},"category":[{"coding":[{"system":"http://terminology.hl7.org/CodeSystem/condition-category","code":"problem-list-item","display":"Problem List Item"}]}],"code":{"coding":[{"system":"http://snomed.info/sct","code":"102781000119107","display":"Sensory neuropathy due to type 1 diabetes mellitus (disorder)"}]},"subject":{"reference":"Patient/d3b4f0ab-d8d1-4c4c-8763-7a8276e0c3ca"},"onsetDateTime":"2025-01-01T00:00:00.000Z"},"request":{"method":"PUT","url":"Condition/ec5afc6c-9e6b-46d5-8a14-c7436914f433"}},{"fullUrl":"https://madie.cms.gov/Observation/Observation-23","resource":{"resourceType":"Observation","id":"acdad9c3-0d2b-4758-92cd-49b941e86351","meta":{"profile":["http://hl7.org/fhir/us/qicore/StructureDefinition/qicore-observation"]},"status":"final","category":[{"coding":[{"system":"http://terminology.hl7.org/CodeSystem/observation-category","code":"survey"}]}],"code":{"coding":[{"system":"http://loinc.org","code":"71007-9","display":"Functional Assessment of Chronic Illness Therapy - Palliative Care Questionnaire (FACIT-Pal)"}]},"subject":{"reference":"Patient/d3b4f0ab-d8d1-4c4c-8763-7a8276e0c3ca"},"effectivePeriod":{"start":"2023-12-31T23:59:59.000Z","end":"2023-12-31T23:59:59.000Z"}},"request":{"method":"PUT","url":"Observation/acdad9c3-0d2b-4758-92cd-49b941e86351"}},{"fullUrl":"https://madie.cms.gov/MeasureReport/5eb1f232-3a36-4db1-baa9-842d9b623fa2","resource":{"resourceType":"MeasureReport","id":"5eb1f232-3a36-4db1-baa9-842d9b623fa2","meta":{"profile":["http://hl7.org/fhir/us/cqfmeasures/StructureDefinition/test-case-cqfm"]},"contained":[{"resourceType":"Parameters","id":"d00d621d-2a2c-4130-b56a-0b07da0b6593-parameters","parameter":[{"name":"subject","valueString":"d3b4f0ab-d8d1-4c4c-8763-7a8276e0c3ca"}]}],"extension":[{"url":"http://hl7.org/fhir/us/cqfmeasures/StructureDefinition/cqfm-inputParameters","valueReference":{"reference":"#d00d621d-2a2c-4130-b56a-0b07da0b6593-parameters"}},{"url":"http://hl7.org/fhir/us/cqfmeasures/StructureDefinition/cqfm-testCaseDescription","valueMarkdown":"Patient 18yo w/ an Office Visit Encounter 1/1 of the MP, & Diabetes Condition ending 1/1 during the MP, & a Palliative Care Observation that starts on 12/31 before the observation interval."}],"modifierExtension":[{"url":"http://hl7.org/fhir/us/cqfmeasures/StructureDefinition/cqfm-isTestCase","valueBoolean":true}],"status":"complete","type":"individual","measure":"https://madie.cms.gov/Measure/DiabetesEyeExamFHIR","period":{"start":"2025-01-01","end":"2025-12-31"},"group":[{"population":[{"code":{"coding":[{"system":"http://terminology.hl7.org/CodeSystem/measure-population","code":"initial-population","display":"Initial Population"}]},"count":1},{"code":{"coding":[{"system":"http://terminology.hl7.org/CodeSystem/measure-population","code":"denominator","display":"Denominator"}]},"count":1},{"code":{"coding":[{"system":"http://terminology.hl7.org/CodeSystem/measure-population","code":"denominator-exclusion","display":"Denominator Exclusion"}]},"count":0},{"code":{"coding":[{"system":"http://terminology.hl7.org/CodeSystem/measure-population","code":"numerator","display":"Numerator"}]},"count":0}]}]},"request":{"method":"PUT","url":"MeasureReport/5eb1f232-3a36-4db1-baa9-842d9b623fa2"}}]}