{"resourceType":"Bundle","id":"tests-8fdd8b35-ce68-452d-a38a-93843c64411e-bundle","type":"transaction","entry":[{"fullUrl":"https://madie.cms.gov/Patient/8fdd8b35-ce68-452d-a38a-93843c64411e","resource":{"resourceType":"Patient","id":"8fdd8b35-ce68-452d-a38a-93843c64411e","meta":{"profile":["http://hl7.org/fhir/us/qicore/StructureDefinition/qicore-patient"]},"extension":[{"url":"http://hl7.org/fhir/us/core/StructureDefinition/us-core-race","extension":[{"url":"ombCategory","valueCoding":{"system":"urn:oid:2.16.840.1.113883.6.238","code":"2028-9","display":"Asian"}},{"url":"text","valueString":"Asian"}]},{"url":"http://hl7.org/fhir/us/core/StructureDefinition/us-core-ethnicity","extension":[{"url":"ombCategory","valueCoding":{"system":"urn:oid:2.16.840.1.113883.6.238","code":"2135-2","display":"Hispanic or Latino"}},{"url":"text","valueString":"Hispanic or Latino"}]}],"identifier":[{"system":"http://hospital.smarthealthit.org","value":"999999995"}],"name":[{"family":"Bertha","given":["Betty"]}],"gender":"female","birthDate":"2007-12-31"},"request":{"method":"PUT","url":"Patient/8fdd8b35-ce68-452d-a38a-93843c64411e"}},{"fullUrl":"https://madie.cms.gov/Encounter/Encounter-24","resource":{"resourceType":"Encounter","id":"a8d8a5ce-1f03-4ccb-96cb-a9f76727a4f7","meta":{"profile":["http://hl7.org/fhir/us/qicore/StructureDefinition/qicore-encounter"]},"status":"finished","class":{"system":"http://terminology.hl7.org/CodeSystem/v3-ActCode","code":"AMB","display":"ambulatory"},"type":[{"coding":[{"system":"http://snomed.info/sct","code":"185463005","display":"Visit out of hours (procedure)"}]}],"subject":{"reference":"Patient/8fdd8b35-ce68-452d-a38a-93843c64411e"},"period":{"start":"2025-01-01T00:00:00.000Z","end":"2025-01-01T00:00:00.000Z"}},"request":{"method":"PUT","url":"Encounter/a8d8a5ce-1f03-4ccb-96cb-a9f76727a4f7"}},{"fullUrl":"https://madie.cms.gov/Condition/Condition-24","resource":{"resourceType":"Condition","id":"8531fc7b-9442-4997-bdb7-63c29db08cde","meta":{"profile":["http://hl7.org/fhir/us/qicore/StructureDefinition/qicore-condition"]},"clinicalStatus":{"coding":[{"system":"http://terminology.hl7.org/CodeSystem/condition-clinical","code":"active"}]},"category":[{"coding":[{"system":"http://terminology.hl7.org/CodeSystem/condition-category","code":"problem-list-item","display":"Problem List Item"}]}],"code":{"coding":[{"system":"http://snomed.info/sct","code":"102781000119107","display":"Sensory neuropathy due to type 1 diabetes mellitus (disorder)"}]},"subject":{"reference":"Patient/8fdd8b35-ce68-452d-a38a-93843c64411e"},"onsetDateTime":"2025-01-01T00:00:00.000Z"},"request":{"method":"PUT","url":"Condition/8531fc7b-9442-4997-bdb7-63c29db08cde"}},{"fullUrl":"https://madie.cms.gov/Observation/Observation-24","resource":{"resourceType":"Observation","id":"bf5b76b1-7cfa-4559-b3f6-66dd8bbdc2cd","meta":{"profile":["http://hl7.org/fhir/us/qicore/StructureDefinition/qicore-observation"]},"status":"final","category":[{"coding":[{"system":"http://terminology.hl7.org/CodeSystem/observation-category","code":"survey"}]}],"code":{"coding":[{"system":"http://loinc.org","code":"71007-9","display":"Functional Assessment of Chronic Illness Therapy - Palliative Care Questionnaire (FACIT-Pal)"}]},"subject":{"reference":"Patient/8fdd8b35-ce68-452d-a38a-93843c64411e"},"effectivePeriod":{"start":"2026-01-01T00:00:00.000Z","end":"2026-01-01T00:00:00.000Z"}},"request":{"method":"PUT","url":"Observation/bf5b76b1-7cfa-4559-b3f6-66dd8bbdc2cd"}},{"fullUrl":"https://madie.cms.gov/MeasureReport/31168c3f-c348-40e0-84c0-1995ef052f01","resource":{"resourceType":"MeasureReport","id":"31168c3f-c348-40e0-84c0-1995ef052f01","meta":{"profile":["http://hl7.org/fhir/us/cqfmeasures/StructureDefinition/test-case-cqfm"]},"contained":[{"resourceType":"Parameters","id":"d91a34ed-4132-43b6-ab2b-b59380ebea93-parameters","parameter":[{"name":"subject","valueString":"8fdd8b35-ce68-452d-a38a-93843c64411e"}]}],"extension":[{"url":"http://hl7.org/fhir/us/cqfmeasures/StructureDefinition/cqfm-inputParameters","valueReference":{"reference":"#d91a34ed-4132-43b6-ab2b-b59380ebea93-parameters"}},{"url":"http://hl7.org/fhir/us/cqfmeasures/StructureDefinition/cqfm-testCaseDescription","valueMarkdown":"Patient 18yo w/ an Office Visit Encounter 1/1 of the MP, & Diabetes Condition ending 1/1 during the MP, & a Palliative Care Observation that starts on 1/1 after the Observation Interval."}],"modifierExtension":[{"url":"http://hl7.org/fhir/us/cqfmeasures/StructureDefinition/cqfm-isTestCase","valueBoolean":true}],"status":"complete","type":"individual","measure":"https://madie.cms.gov/Measure/DiabetesEyeExamFHIR","period":{"start":"2025-01-01","end":"2025-12-31"},"group":[{"population":[{"code":{"coding":[{"system":"http://terminology.hl7.org/CodeSystem/measure-population","code":"initial-population","display":"Initial Population"}]},"count":1},{"code":{"coding":[{"system":"http://terminology.hl7.org/CodeSystem/measure-population","code":"denominator","display":"Denominator"}]},"count":1},{"code":{"coding":[{"system":"http://terminology.hl7.org/CodeSystem/measure-population","code":"denominator-exclusion","display":"Denominator Exclusion"}]},"count":0},{"code":{"coding":[{"system":"http://terminology.hl7.org/CodeSystem/measure-population","code":"numerator","display":"Numerator"}]},"count":0}]}]},"request":{"method":"PUT","url":"MeasureReport/31168c3f-c348-40e0-84c0-1995ef052f01"}}]}