{"resourceType":"Bundle","id":"tests-ecc34b3c-1241-4541-a8dd-66183c3d70de-bundle","type":"transaction","entry":[{"fullUrl":"https://madie.cms.gov/Patient/ecc34b3c-1241-4541-a8dd-66183c3d70de","resource":{"resourceType":"Patient","id":"ecc34b3c-1241-4541-a8dd-66183c3d70de","meta":{"profile":["http://hl7.org/fhir/us/qicore/StructureDefinition/qicore-patient"]},"extension":[{"url":"http://hl7.org/fhir/us/core/StructureDefinition/us-core-race","extension":[{"url":"ombCategory","valueCoding":{"system":"urn:oid:2.16.840.1.113883.6.238","code":"2028-9","display":"Asian"}},{"url":"text","valueString":"Asian"}]},{"url":"http://hl7.org/fhir/us/core/StructureDefinition/us-core-ethnicity","extension":[{"url":"ombCategory","valueCoding":{"system":"urn:oid:2.16.840.1.113883.6.238","code":"2135-2","display":"Hispanic or Latino"}},{"url":"text","valueString":"Hispanic or Latino"}]}],"identifier":[{"system":"http://hospital.smarthealthit.org","value":"999999995"}],"name":[{"family":"Bertha","given":["Betty"]}],"gender":"female","birthDate":"2007-12-31"},"request":{"method":"PUT","url":"Patient/ecc34b3c-1241-4541-a8dd-66183c3d70de"}},{"fullUrl":"https://madie.cms.gov/Encounter/Encounter-17","resource":{"resourceType":"Encounter","id":"497cfee1-91d9-4fa9-b1c3-b595847793ad","meta":{"profile":["http://hl7.org/fhir/us/qicore/StructureDefinition/qicore-encounter"]},"status":"finished","class":{"system":"http://terminology.hl7.org/CodeSystem/v3-ActCode","code":"AMB","display":"ambulatory"},"type":[{"coding":[{"system":"http://snomed.info/sct","code":"185463005","display":"Visit out of hours (procedure)"}]}],"subject":{"reference":"Patient/ecc34b3c-1241-4541-a8dd-66183c3d70de"},"period":{"start":"2025-01-01T00:00:00.000Z","end":"2025-01-01T00:00:00.000Z"}},"request":{"method":"PUT","url":"Encounter/497cfee1-91d9-4fa9-b1c3-b595847793ad"}},{"fullUrl":"https://madie.cms.gov/Condition/Condition-17","resource":{"resourceType":"Condition","id":"2e08e537-9bf8-4777-8413-ef57537b28be","meta":{"profile":["http://hl7.org/fhir/us/qicore/StructureDefinition/qicore-condition"]},"clinicalStatus":{"coding":[{"system":"http://terminology.hl7.org/CodeSystem/condition-clinical","code":"active"}]},"category":[{"coding":[{"system":"http://terminology.hl7.org/CodeSystem/condition-category","code":"problem-list-item","display":"Problem List Item"}]}],"code":{"coding":[{"system":"http://snomed.info/sct","code":"102781000119107","display":"Sensory neuropathy due to type 1 diabetes mellitus (disorder)"}]},"subject":{"reference":"Patient/ecc34b3c-1241-4541-a8dd-66183c3d70de"},"onsetDateTime":"2025-01-01T00:00:00.000Z"},"request":{"method":"PUT","url":"Condition/2e08e537-9bf8-4777-8413-ef57537b28be"}},{"fullUrl":"https://madie.cms.gov/Encounter/Encounter-17.1","resource":{"resourceType":"Encounter","id":"2da4e1b4-c45e-4f88-8e99-a35f96e799d5","meta":{"profile":["http://hl7.org/fhir/us/qicore/StructureDefinition/qicore-encounter"]},"status":"finished","class":{"system":"http://terminology.hl7.org/CodeSystem/v3-ActCode","code":"AMB","display":"ambulatory"},"type":[{"coding":[{"system":"http://snomed.info/sct","code":"183452005","display":"Emergency hospital admission (procedure)"}]}],"subject":{"reference":"Patient/ecc34b3c-1241-4541-a8dd-66183c3d70de"},"period":{"start":"2026-01-01T00:00:00.000Z","end":"2026-01-01T00:00:00.000Z"},"hospitalization":{"dischargeDisposition":{"coding":[{"system":"http://snomed.info/sct","code":"428371000124100","display":"Discharge to healthcare facility for hospice care (procedure)"}]}}},"request":{"method":"PUT","url":"Encounter/2da4e1b4-c45e-4f88-8e99-a35f96e799d5"}},{"fullUrl":"https://madie.cms.gov/MeasureReport/2bb6b323-acbb-47b8-bd21-0bb075ce8308","resource":{"resourceType":"MeasureReport","id":"2bb6b323-acbb-47b8-bd21-0bb075ce8308","meta":{"profile":["http://hl7.org/fhir/us/cqfmeasures/StructureDefinition/test-case-cqfm"]},"contained":[{"resourceType":"Parameters","id":"e46dc7ce-4222-4b0e-aabd-744a1d76f58f-parameters","parameter":[{"name":"subject","valueString":"ecc34b3c-1241-4541-a8dd-66183c3d70de"}]}],"extension":[{"url":"http://hl7.org/fhir/us/cqfmeasures/StructureDefinition/cqfm-inputParameters","valueReference":{"reference":"#e46dc7ce-4222-4b0e-aabd-744a1d76f58f-parameters"}},{"url":"http://hl7.org/fhir/us/cqfmeasures/StructureDefinition/cqfm-testCaseDescription","valueMarkdown":"Patient 18yo w/ an Office Visit Encounter 1/1 of the MP, & Diabetes Condition ending 1/1 during the MP, & Hospice Encounter that ends on 1/1 after the MP."}],"modifierExtension":[{"url":"http://hl7.org/fhir/us/cqfmeasures/StructureDefinition/cqfm-isTestCase","valueBoolean":true}],"status":"complete","type":"individual","measure":"https://madie.cms.gov/Measure/DiabetesEyeExamFHIR","period":{"start":"2025-01-01","end":"2025-12-31"},"group":[{"population":[{"code":{"coding":[{"system":"http://terminology.hl7.org/CodeSystem/measure-population","code":"initial-population","display":"Initial Population"}]},"count":1},{"code":{"coding":[{"system":"http://terminology.hl7.org/CodeSystem/measure-population","code":"denominator","display":"Denominator"}]},"count":1},{"code":{"coding":[{"system":"http://terminology.hl7.org/CodeSystem/measure-population","code":"denominator-exclusion","display":"Denominator Exclusion"}]},"count":0},{"code":{"coding":[{"system":"http://terminology.hl7.org/CodeSystem/measure-population","code":"numerator","display":"Numerator"}]},"count":0}]}]},"request":{"method":"PUT","url":"MeasureReport/2bb6b323-acbb-47b8-bd21-0bb075ce8308"}}]}