{"resourceType":"Bundle","id":"tests-19a6d651-3dd7-45a9-9340-e40e41875a13-bundle","type":"transaction","entry":[{"fullUrl":"https://madie.cms.gov/Patient/19a6d651-3dd7-45a9-9340-e40e41875a13","resource":{"resourceType":"Patient","id":"19a6d651-3dd7-45a9-9340-e40e41875a13","meta":{"profile":["http://hl7.org/fhir/us/qicore/StructureDefinition/qicore-patient"]},"extension":[{"url":"http://hl7.org/fhir/us/core/StructureDefinition/us-core-race","extension":[{"url":"ombCategory","valueCoding":{"system":"urn:oid:2.16.840.1.113883.6.238","code":"2028-9","display":"Asian","userSelected":true}},{"url":"text","valueString":"Asian"}]},{"url":"http://hl7.org/fhir/us/core/StructureDefinition/us-core-ethnicity","extension":[{"url":"ombCategory","valueCoding":{"system":"urn:oid:2.16.840.1.113883.6.238","code":"2135-2","display":"Hispanic or Latino","userSelected":true}},{"url":"text","valueString":"Hispanic or Latino"}]}],"identifier":[{"type":{"coding":[{"system":"http://terminology.hl7.org/CodeSystem/v2-0203","code":"MR"}]},"system":"http://hospital.smarthealthit.org","value":"999999995"}],"name":[{"family":"Bertha","given":["Betty"]}],"gender":"female","birthDate":"2007-12-31"},"request":{"method":"PUT","url":"Patient/19a6d651-3dd7-45a9-9340-e40e41875a13"}},{"fullUrl":"https://madie.cms.gov/Encounter/Encounter-33","resource":{"resourceType":"Encounter","id":"03272a24-4cdd-4619-87fa-19df65f6c1dc","meta":{"profile":["http://hl7.org/fhir/us/qicore/StructureDefinition/qicore-encounter"]},"status":"finished","class":{"system":"http://terminology.hl7.org/CodeSystem/v3-ActCode","code":"AMB","display":"ambulatory"},"type":[{"coding":[{"system":"http://snomed.info/sct","code":"185463005","display":"Visit out of hours (procedure)"}]}],"subject":{"reference":"Patient/19a6d651-3dd7-45a9-9340-e40e41875a13"},"period":{"start":"2025-01-01T00:00:00.000Z","end":"2025-01-01T00:00:00.000Z"}},"request":{"method":"PUT","url":"Encounter/03272a24-4cdd-4619-87fa-19df65f6c1dc"}},{"fullUrl":"https://madie.cms.gov/Condition/Condition-33","resource":{"resourceType":"Condition","id":"1e2a0e1f-9e41-4908-95cb-0d5525398056","meta":{"profile":["http://hl7.org/fhir/us/qicore/StructureDefinition/qicore-condition"]},"clinicalStatus":{"coding":[{"system":"http://terminology.hl7.org/CodeSystem/condition-clinical","code":"active"}]},"category":[{"coding":[{"system":"http://terminology.hl7.org/CodeSystem/condition-category","code":"problem-list-item","display":"Problem List Item"}]}],"code":{"coding":[{"system":"http://snomed.info/sct","code":"102781000119107","display":"Sensory neuropathy due to type 1 diabetes mellitus (disorder)"}]},"subject":{"reference":"Patient/19a6d651-3dd7-45a9-9340-e40e41875a13"},"onsetDateTime":"2025-01-01T00:00:00.000Z"},"request":{"method":"PUT","url":"Condition/1e2a0e1f-9e41-4908-95cb-0d5525398056"}},{"fullUrl":"https://madie.cms.gov/Condition/Condition-33.1","resource":{"resourceType":"Condition","id":"3781d981-e636-4e1d-ad18-0bfd64f7d3b2","meta":{"profile":["http://hl7.org/fhir/us/qicore/StructureDefinition/qicore-condition"]},"clinicalStatus":{"coding":[{"system":"http://terminology.hl7.org/CodeSystem/condition-clinical","code":"active"}]},"category":[{"coding":[{"system":"http://terminology.hl7.org/CodeSystem/condition-category","code":"problem-list-item","display":"Problem List Item"}]}],"code":{"coding":[{"system":"http://snomed.info/sct","code":"193349004","display":"Preproliferative retinopathy due to diabetes mellitus (disorder)"}]},"subject":{"reference":"Patient/19a6d651-3dd7-45a9-9340-e40e41875a13"},"onsetDateTime":"2024-12-31T23:59:59.000Z"},"request":{"method":"PUT","url":"Condition/3781d981-e636-4e1d-ad18-0bfd64f7d3b2"}},{"fullUrl":"https://madie.cms.gov/Observation/Observation-33","resource":{"resourceType":"Observation","id":"7018ca76-6df3-4a32-830c-25f46641699f","meta":{"profile":["http://hl7.org/fhir/us/qicore/StructureDefinition/qicore-observation"]},"status":"final","category":[{"coding":[{"system":"http://terminology.hl7.org/CodeSystem/observation-category","code":"exam"}]}],"code":{"coding":[{"system":"http://snomed.info/sct","code":"252779009","display":"Single bright white flash electroretinography (procedure)"}]},"subject":{"reference":"Patient/19a6d651-3dd7-45a9-9340-e40e41875a13"},"effectivePeriod":{"start":"2026-01-01T00:00:00.000Z","end":"2026-01-01T00:00:00.000Z"}},"request":{"method":"PUT","url":"Observation/7018ca76-6df3-4a32-830c-25f46641699f"}},{"fullUrl":"https://madie.cms.gov/MeasureReport/12a3a34b-5029-4eb3-ad27-e7acc659232d","resource":{"resourceType":"MeasureReport","id":"12a3a34b-5029-4eb3-ad27-e7acc659232d","meta":{"profile":["http://hl7.org/fhir/us/cqfmeasures/StructureDefinition/test-case-cqfm"]},"contained":[{"resourceType":"Parameters","id":"86108be0-5f21-4f6a-945d-1f01f27be613-parameters","parameter":[{"name":"subject","valueString":"19a6d651-3dd7-45a9-9340-e40e41875a13"}]}],"extension":[{"url":"http://hl7.org/fhir/us/cqfmeasures/StructureDefinition/cqfm-inputParameters","valueReference":{"reference":"#86108be0-5f21-4f6a-945d-1f01f27be613-parameters"}},{"url":"http://hl7.org/fhir/us/cqfmeasures/StructureDefinition/cqfm-testCaseDescription","valueMarkdown":"Patient 18yo w/ an Office Visit Encounter, Diabetes Condition ending 1/1 during the MP, and Retinopathy Condition 12/31 of the year before the MP, with an Eye Exam Observation 1/1 of year after the MP."}],"modifierExtension":[{"url":"http://hl7.org/fhir/us/cqfmeasures/StructureDefinition/cqfm-isTestCase","valueBoolean":true}],"status":"complete","type":"individual","measure":"https://madie.cms.gov/Measure/DiabetesEyeExamFHIR","period":{"start":"2025-01-01","end":"2025-12-31"},"group":[{"population":[{"code":{"coding":[{"system":"http://terminology.hl7.org/CodeSystem/measure-population","code":"initial-population","display":"Initial Population"}]},"count":1},{"code":{"coding":[{"system":"http://terminology.hl7.org/CodeSystem/measure-population","code":"denominator","display":"Denominator"}]},"count":1},{"code":{"coding":[{"system":"http://terminology.hl7.org/CodeSystem/measure-population","code":"denominator-exclusion","display":"Denominator Exclusion"}]},"count":0},{"code":{"coding":[{"system":"http://terminology.hl7.org/CodeSystem/measure-population","code":"numerator","display":"Numerator"}]},"count":0}]}]},"request":{"method":"PUT","url":"MeasureReport/12a3a34b-5029-4eb3-ad27-e7acc659232d"}}]}