{
  "resourceType": "Bundle",
  "id": "641373514b11b147841ab8d8",
  "type": "transaction",
  "entry": [ {
    "fullUrl": "https://madie.cms.gov/Patient/4354fbec-b63a-46ce-8465-ec82710ea1c6",
    "resource": {
      "resourceType": "Patient",
      "id": "4354fbec-b63a-46ce-8465-ec82710ea1c6",
      "meta": {
        "profile": [ "http://hl7.org/fhir/us/qicore/StructureDefinition/qicore-patient" ]
      },
      "extension": [ {
        "url": "http://hl7.org/fhir/us/core/StructureDefinition/us-core-race",
        "extension": [ {
          "url": "ombCategory",
          "valueCoding": {
            "system": "urn:oid:2.16.840.1.113883.6.238",
            "code": "2054-5",
            "display": "Black or African American",
            "userSelected": true
          }
        }, {
          "url": "text",
          "valueString": "Black or African American"
        } ]
      }, {
        "url": "http://hl7.org/fhir/us/core/StructureDefinition/us-core-ethnicity",
        "extension": [ {
          "url": "ombCategory",
          "valueCoding": {
            "system": "urn:oid:2.16.840.1.113883.6.238",
            "code": "2135-2",
            "display": "Hispanic or Latino",
            "userSelected": true
          }
        }, {
          "url": "text",
          "valueString": "Hispanic or Latino"
        } ]
      } ],
      "identifier": [ {
        "type": {
          "coding": [ {
            "system": "http://terminology.hl7.org/CodeSystem/v2-0203",
            "code": "MR"
          } ]
        },
        "system": "https://bonnie-fhir.healthit.gov/",
        "value": "641373514b11b147841ab8d8"
      } ],
      "name": [ {
        "family": "DENEXPass",
        "given": [ "PerformPalliativeHospCare" ]
      } ],
      "gender": "male",
      "birthDate": "1989-05-08"
    },
    "request": {
      "method": "POST",
      "url": "Patient/4354fbec-b63a-46ce-8465-ec82710ea1c6"
    }
  }, {
    "fullUrl": "https://madie.cms.gov/Condition/diabetes-b8d9",
    "resource": {
      "resourceType": "Condition",
      "id": "diabetes-b8d9",
      "meta": {
        "profile": [ "http://hl7.org/fhir/us/qicore/StructureDefinition/qicore-condition" ]
      },
      "clinicalStatus": {
        "coding": [ {
          "system": "http://terminology.hl7.org/CodeSystem/condition-clinical",
          "code": "active",
          "display": "active",
          "userSelected": true
        } ]
      },
      "category": [ {
        "coding": [ {
          "system": "http://terminology.hl7.org/CodeSystem/condition-category",
          "code": "encounter-diagnosis",
          "display": "Encounter Diagnosis",
          "userSelected": true
        } ]
      } ],
      "code": {
        "coding": [ {
          "system": "http://snomed.info/sct",
          "version": "2021-09",
          "code": "102781000119107",
          "display": "Sensory neuropathy due to type 1 diabetes mellitus (disorder)",
          "userSelected": true
        } ]
      },
      "subject": {
        "reference": "Patient/4354fbec-b63a-46ce-8465-ec82710ea1c6"
      },
      "onsetDateTime": "2025-03-08T08:00:00.000+00:00"
    },
    "request": {
      "method": "POST",
      "url": "Condition/diabetes-b8d9"
    }
  }, {
    "fullUrl": "https://madie.cms.gov/Encounter/outpatient-consultation-b8da",
    "resource": {
      "resourceType": "Encounter",
      "id": "outpatient-consultation-b8da",
      "meta": {
        "profile": [ "http://hl7.org/fhir/us/qicore/StructureDefinition/qicore-encounter" ]
      },
      "status": "finished",
      "class": {
        "system": "http://terminology.hl7.org/CodeSystem/v3-ActCode",
        "code": "AMB",
        "display": "ambulatory",
        "userSelected": true
      },
      "type": [ {
        "coding": [ {
          "system": "http://snomed.info/sct",
          "version": "2021-09",
          "code": "281036007",
          "display": "Follow-up consultation (procedure)",
          "userSelected": true
        } ]
      } ],
      "subject": {
        "reference": "Patient/4354fbec-b63a-46ce-8465-ec82710ea1c6"
      },
      "period": {
        "start": "2025-03-10T08:00:00.000+00:00",
        "end": "2025-03-10T08:15:00.000+00:00"
      }
    },
    "request": {
      "method": "POST",
      "url": "Encounter/outpatient-consultation-b8da"
    }
  }, {
    "fullUrl": "https://madie.cms.gov/Procedure/palliative-care-intervention-b8db",
    "resource": {
      "resourceType": "Procedure",
      "id": "palliative-care-intervention-b8db",
      "meta": {
        "profile": [ "http://hl7.org/fhir/us/qicore/StructureDefinition/qicore-procedure" ]
      },
      "extension": [ {
        "url": "http://hl7.org/fhir/us/qicore/StructureDefinition/qicore-recorded",
        "valueDateTime": "2025-03-13T08:00:00.000+00:00"
      } ],
      "status": "completed",
      "category": {
        "coding": [ {
          "system": "http://snomed.info/sct",
          "code": "103693007",
          "display": "Diagnostic procedure",
          "userSelected": true
        } ]
      },
      "code": {
        "coding": [ {
          "system": "http://snomed.info/sct",
          "version": "2021-09",
          "code": "103735009",
          "display": "Palliative care (regime/therapy)",
          "userSelected": true
        } ]
      },
      "subject": {
        "reference": "Patient/4354fbec-b63a-46ce-8465-ec82710ea1c6"
      },
      "performedDateTime": "2025-03-13T08:00:00.000+00:00"
    },
    "request": {
      "method": "POST",
      "url": "Procedure/palliative-care-intervention-b8db"
    }
  }, {
    "fullUrl": "https://madie.cms.gov/MeasureReport/7f2e1f49-67a1-4b49-8ccd-fb63b1abe7b3",
    "resource": {
      "resourceType": "MeasureReport",
      "id": "7f2e1f49-67a1-4b49-8ccd-fb63b1abe7b3",
      "meta": {
        "profile": [ "http://hl7.org/fhir/us/cqfmeasures/StructureDefinition/test-case-cqfm" ]
      },
      "contained": [ {
        "resourceType": "Parameters",
        "id": "322db17c-e221-482b-a312-da230cf1b271-parameters",
        "parameter": [ {
          "name": "subject",
          "valueString": "4354fbec-b63a-46ce-8465-ec82710ea1c6"
        } ]
      } ],
      "extension": [ {
        "url": "http://hl7.org/fhir/us/cqfmeasures/StructureDefinition/cqfm-inputParameters",
        "valueReference": {
          "reference": "#322db17c-e221-482b-a312-da230cf1b271-parameters"
        }
      }, {
        "url": "http://hl7.org/fhir/us/cqfmeasures/StructureDefinition/cqfm-testCaseDescription",
        "valueMarkdown": "This patient is 45 years old with a qualifying encounter and active diabetes diagnosis, with palliative or hospice care performed during the measurement period. This case tests the denominator exclusion criteria."
      } ],
      "modifierExtension": [ {
        "url": "http://hl7.org/fhir/us/cqfmeasures/StructureDefinition/cqfm-isTestCase",
        "valueBoolean": true
      } ],
      "status": "complete",
      "type": "individual",
      "measure": "https://madie.cms.gov/Measure/KidneyHealthEvaluationFHIR",
      "period": {
        "start": "2025-01-01",
        "end": "2025-12-31"
      },
      "group": [ {
        "population": [ {
          "code": {
            "coding": [ {
              "system": "http://terminology.hl7.org/CodeSystem/measure-population",
              "code": "initial-population",
              "display": "Initial Population"
            } ]
          },
          "count": 1
        }, {
          "code": {
            "coding": [ {
              "system": "http://terminology.hl7.org/CodeSystem/measure-population",
              "code": "denominator",
              "display": "Denominator"
            } ]
          },
          "count": 1
        }, {
          "code": {
            "coding": [ {
              "system": "http://terminology.hl7.org/CodeSystem/measure-population",
              "code": "denominator-exclusion",
              "display": "Denominator Exclusion"
            } ]
          },
          "count": 1
        }, {
          "code": {
            "coding": [ {
              "system": "http://terminology.hl7.org/CodeSystem/measure-population",
              "code": "numerator",
              "display": "Numerator"
            } ]
          },
          "count": 0
        } ]
      } ],
      "evaluatedResource": [ {
        "reference": "Patient/4354fbec-b63a-46ce-8465-ec82710ea1c6"
      }, {
        "reference": "Condition/diabetes-b8d9"
      }, {
        "reference": "Encounter/outpatient-consultation-b8da"
      }, {
        "reference": "Procedure/palliative-care-intervention-b8db"
      } ]
    },
    "request": {
      "method": "POST",
      "url": "MeasureReport/7f2e1f49-67a1-4b49-8ccd-fb63b1abe7b3"
    }
  } ]
}