{"resourceType":"Bundle","id":"tests-ce6698d6-ca56-44f7-9390-17e3e7a3dfde-bundle","type":"transaction","entry":[{"fullUrl":"https://madie.cms.gov/Patient/ce6698d6-ca56-44f7-9390-17e3e7a3dfde","resource":{"resourceType":"Patient","id":"ce6698d6-ca56-44f7-9390-17e3e7a3dfde","meta":{"profile":["http://hl7.org/fhir/us/qicore/StructureDefinition/qicore-patient"]},"text":{"status":"generated","div":"<div xmlns=\"http://www.w3.org/1999/xhtml\"><div class=\"hapiHeaderText\">Turns 18 day of Encounter <b>NUMERPass </b></div><table class=\"hapiPropertyTable\"><tbody><tr><td>Identifier</td><td>f0eda1c9668fdacdcad3378589bf6e0a71e7dec1618f14fca4d442ec96e402b1</td></tr><tr><td>Date of birth</td><td><span>29 September 2006</span></td></tr></tbody></table></div>"},"extension":[{"url":"http://hl7.org/fhir/us/core/StructureDefinition/us-core-race","extension":[{"url":"ombCategory","valueCoding":{"system":"urn:oid:2.16.840.1.113883.6.238","code":"1002-5","display":"American Indian or Alaska Native","userSelected":true}},{"url":"text","valueString":"American Indian or Alaska Native"}]},{"url":"http://hl7.org/fhir/us/core/StructureDefinition/us-core-ethnicity","extension":[{"url":"ombCategory","valueCoding":{"system":"urn:oid:2.16.840.1.113883.6.238","code":"2135-2","display":"Hispanic or Latino","userSelected":true}},{"url":"text","valueString":"Hispanic or Latino"}]}],"identifier":[{"type":{"coding":[{"system":"http://terminology.hl7.org/CodeSystem/v2-0203","code":"MR"}]},"system":"http://bonnie-fhir.healthit.gov/","value":"NUMERPass-TwoEncountersCreatinineDoubled"}],"active":true,"name":[{"use":"usual","family":"NUMERPass","given":["TwoEncountersCreatinineDoubled"]}],"gender":"female","birthDate":"1982-10-10"},"request":{"method":"PUT","url":"Patient/ce6698d6-ca56-44f7-9390-17e3e7a3dfde"}},{"fullUrl":"https://madie.cms.gov/Encounter/NUMERPass-TwoEncountersCreatinineDoubled-01","resource":{"resourceType":"Encounter","id":"911ee6fa-a66d-4ce2-a2d4-64438a58ca5d","meta":{"profile":["http://hl7.org/fhir/us/qicore/StructureDefinition/qicore-encounter"]},"status":"finished","class":{"system":"http://terminology.hl7.org/CodeSystem/v3-ActCode","code":"IMP","display":"inpatient encounter"},"type":[{"coding":[{"system":"http://snomed.info/sct","code":"183452005"}]}],"subject":{"reference":"Patient/ce6698d6-ca56-44f7-9390-17e3e7a3dfde"},"period":{"start":"2025-09-29T08:00:00.000Z","end":"2025-10-03T20:00:00.000Z"}},"request":{"method":"PUT","url":"Encounter/911ee6fa-a66d-4ce2-a2d4-64438a58ca5d"}},{"fullUrl":"https://madie.cms.gov/Encounter/NUMERPass-TwoEncountersCreatinineDoubled-02","resource":{"resourceType":"Encounter","id":"f2b78de7-01aa-4f8d-8c65-56edea7958b4","meta":{"profile":["http://hl7.org/fhir/us/qicore/StructureDefinition/qicore-encounter"]},"status":"finished","class":{"system":"http://terminology.hl7.org/CodeSystem/v3-ActCode","code":"IMP","display":"inpatient encounter"},"type":[{"coding":[{"system":"http://snomed.info/sct","code":"183452005"}]}],"subject":{"reference":"Patient/ce6698d6-ca56-44f7-9390-17e3e7a3dfde"},"period":{"start":"2025-11-01T08:00:00.000Z","end":"2025-11-06T20:15:00.000Z"}},"request":{"method":"PUT","url":"Encounter/f2b78de7-01aa-4f8d-8c65-56edea7958b4"}},{"fullUrl":"https://madie.cms.gov/Observation/NUMERPass-TwoEncountersCreatinineDoubled-21","resource":{"resourceType":"Observation","id":"95b63c91-c87d-4a28-93cb-85889bd3068d","meta":{"profile":["http://hl7.org/fhir/us/qicore/StructureDefinition/qicore-observation"]},"status":"final","category":[{"coding":[{"system":"http://terminology.hl7.org/CodeSystem/observation-category","code":"laboratory","display":"Laboratory"}]}],"code":{"coding":[{"system":"http://loinc.org","version":"2.72","code":"2160-0","display":"Creatinine [Mass/volume] in Serum or Plasma","userSelected":true}]},"subject":{"reference":"Patient/ce6698d6-ca56-44f7-9390-17e3e7a3dfde"},"effectiveDateTime":"2025-11-03T10:15:00+00:00","issued":"2025-11-03T10:45:00+00:00","valueQuantity":{"value":1.82,"unit":"mg/dL","system":"http://unitsofmeasure.org","code":"mg/dL"}},"request":{"method":"PUT","url":"Observation/95b63c91-c87d-4a28-93cb-85889bd3068d"}},{"fullUrl":"https://madie.cms.gov/Observation/NUMERPass-TwoEncountersCreatinineDoubled-20","resource":{"resourceType":"Observation","id":"d4f9c57f-4c13-4c8f-9ea4-668a650eadb2","meta":{"profile":["http://hl7.org/fhir/us/qicore/StructureDefinition/qicore-observation"]},"status":"final","category":[{"coding":[{"system":"http://terminology.hl7.org/CodeSystem/observation-category","code":"laboratory","display":"Laboratory"}]}],"code":{"coding":[{"system":"http://loinc.org","version":"2.72","code":"2160-0","display":"Creatinine [Mass/volume] in Serum or Plasma","userSelected":true}]},"subject":{"reference":"Patient/ce6698d6-ca56-44f7-9390-17e3e7a3dfde"},"effectiveDateTime":"2025-11-01T10:15:00+00:00","issued":"2025-11-01T10:45:00+00:00","valueQuantity":{"value":0.91,"unit":"mg/dL","system":"http://unitsofmeasure.org","code":"mg/dL"}},"request":{"method":"PUT","url":"Observation/d4f9c57f-4c13-4c8f-9ea4-668a650eadb2"}},{"fullUrl":"https://madie.cms.gov/Observation/NUMERPass-TwoEncountersCreatinineDoubled-19","resource":{"resourceType":"Observation","id":"acf969cf-94cb-4cc9-aa62-25358a563e2f","meta":{"profile":["http://hl7.org/fhir/us/qicore/StructureDefinition/qicore-observation"]},"status":"final","category":[{"coding":[{"system":"http://terminology.hl7.org/CodeSystem/observation-category","code":"laboratory","display":"Laboratory"}]}],"code":{"coding":[{"system":"http://loinc.org","version":"2.72","code":"2160-0","display":"Creatinine [Mass/volume] in Serum or Plasma","userSelected":true}]},"subject":{"reference":"Patient/ce6698d6-ca56-44f7-9390-17e3e7a3dfde"},"effectiveDateTime":"2025-11-01T08:15:00+00:00","issued":"2025-11-01T08:45:00+00:00","valueQuantity":{"value":0.91,"unit":"mg/dL","system":"http://unitsofmeasure.org","code":"mg/dL"}},"request":{"method":"PUT","url":"Observation/acf969cf-94cb-4cc9-aa62-25358a563e2f"}},{"fullUrl":"https://madie.cms.gov/Observation/NUMERPass-TwoEncountersCreatinineDoubled-18","resource":{"resourceType":"Observation","id":"4dfea74a-aebe-441c-b18c-cb195b99295f","meta":{"profile":["http://hl7.org/fhir/us/qicore/StructureDefinition/qicore-observation"]},"status":"final","category":[{"coding":[{"system":"http://terminology.hl7.org/CodeSystem/observation-category","code":"laboratory","display":"Laboratory"}]}],"code":{"coding":[{"system":"http://loinc.org","code":"2160-0","display":"Creatinine [Mass/volume] in Serum or Plasma"}]},"subject":{"reference":"Patient/ce6698d6-ca56-44f7-9390-17e3e7a3dfde"},"effectiveDateTime":"2025-10-01T09:01:00+00:00","issued":"2025-10-01T09:31:00+00:00","valueQuantity":{"value":1.8,"unit":"mg/dL","system":"http://unitsofmeasure.org","code":"mg/dL"}},"request":{"method":"PUT","url":"Observation/4dfea74a-aebe-441c-b18c-cb195b99295f"}},{"fullUrl":"https://madie.cms.gov/Observation/NUMERPass-TwoEncountersCreatinineDoubled-17","resource":{"resourceType":"Observation","id":"7c6e464c-0ce2-4902-8c3b-d6b2c26f45aa","meta":{"profile":["http://hl7.org/fhir/us/qicore/StructureDefinition/qicore-observation"]},"status":"final","category":[{"coding":[{"system":"http://terminology.hl7.org/CodeSystem/observation-category","code":"laboratory","display":"Laboratory"}]}],"code":{"coding":[{"system":"http://loinc.org","version":"2.72","code":"2160-0","display":"Creatinine [Mass/volume] in Serum or Plasma","userSelected":true}]},"subject":{"reference":"Patient/ce6698d6-ca56-44f7-9390-17e3e7a3dfde"},"effectiveDateTime":"2025-10-01T08:01:00+00:00","issued":"2025-10-01T08:31:00+00:00","valueQuantity":{"value":0.9,"unit":"mg/dL","system":"http://unitsofmeasure.org","code":"mg/dL"}},"request":{"method":"PUT","url":"Observation/7c6e464c-0ce2-4902-8c3b-d6b2c26f45aa"}},{"fullUrl":"https://madie.cms.gov/Observation/NUMERPass-TwoEncountersCreatinineDoubled-15","resource":{"resourceType":"Observation","id":"b9a20db8-1853-4423-a82d-3fafa94c5f63","meta":{"profile":["http://hl7.org/fhir/us/qicore/StructureDefinition/qicore-observation"]},"status":"final","category":[{"coding":[{"system":"http://terminology.hl7.org/CodeSystem/observation-category","code":"laboratory","display":"Laboratory"}]}],"code":{"coding":[{"system":"http://loinc.org","code":"2160-0","display":"Creatinine [Mass/volume] in Serum or Plasma"}]},"subject":{"reference":"Patient/ce6698d6-ca56-44f7-9390-17e3e7a3dfde"},"effectiveDateTime":"2025-10-01T07:00:00+00:00","issued":"2025-10-01T07:30:00+00:00","valueQuantity":{"value":0.9,"unit":"mg/dL","system":"http://unitsofmeasure.org","code":"mg/dL"}},"request":{"method":"PUT","url":"Observation/b9a20db8-1853-4423-a82d-3fafa94c5f63"}},{"fullUrl":"https://madie.cms.gov/Observation/NUMERPass-TwoEncountersCreatinineDoubled-16","resource":{"resourceType":"Observation","id":"f53a04f2-0234-4093-b392-7b735ff3c1f1","meta":{"profile":["http://hl7.org/fhir/us/qicore/StructureDefinition/qicore-observation"]},"status":"final","category":[{"coding":[{"system":"http://terminology.hl7.org/CodeSystem/observation-category","code":"laboratory","display":"Laboratory"}]}],"code":{"coding":[{"system":"http://loinc.org","version":"2.72","code":"2160-0","display":"Creatinine [Mass/volume] in Serum or Plasma","userSelected":true}]},"subject":{"reference":"Patient/ce6698d6-ca56-44f7-9390-17e3e7a3dfde"},"effectiveDateTime":"2025-10-01T07:35:00+00:00","issued":"2025-10-01T08:05:00+00:00","valueQuantity":{"value":0.9,"unit":"mg/dL","system":"http://unitsofmeasure.org","code":"mg/dL"}},"request":{"method":"PUT","url":"Observation/f53a04f2-0234-4093-b392-7b735ff3c1f1"}},{"fullUrl":"https://madie.cms.gov/Coverage/NUMERPass-TwoEncountersCreatinineDoubled-61","resource":{"resourceType":"Coverage","id":"4ec0d2bb-3712-4d81-b106-d3e2fe28739b","meta":{"profile":["http://hl7.org/fhir/us/qicore/StructureDefinition/qicore-coverage"]},"status":"active","type":{"coding":[{"system":"https://nahdo.org/sopt","version":"9.2","code":"211","display":"Medicaid HMO"}]},"beneficiary":{"reference":"Patient/ce6698d6-ca56-44f7-9390-17e3e7a3dfde"},"period":{"start":"2023-12-01T00:00:00+00:00"},"payor":[{"reference":"Organization/4b5a882f-1f43-485c-85c6-f5ad2337d5b1"}]},"request":{"method":"PUT","url":"Coverage/4ec0d2bb-3712-4d81-b106-d3e2fe28739b"}},{"fullUrl":"https://madie.cms.gov/Organization/NUMERPass-TwoEncountersCreatinineDoubled-98","resource":{"resourceType":"Organization","id":"4b5a882f-1f43-485c-85c6-f5ad2337d5b1","meta":{"profile":["http://hl7.org/fhir/us/qicore/StructureDefinition/qicore-organization"]},"identifier":[{"use":"temp","system":"urn:oid:2.16.840.1.113883.4.4","value":"21-3259825"}],"active":true,"type":[{"coding":[{"system":"http://terminology.hl7.org/CodeSystem/organization-type","code":"pay","display":"Payer"}]}],"name":"Blue Cross Blue Shield of Texas","telecom":[{"system":"phone","value":"(+1) 972-766-6900"}],"address":[{"use":"billing","type":"postal","line":["P.O. Box 660044"],"city":"Dallas","state":"TX","postalCode":"75266-0044","country":"USA"}]},"request":{"method":"PUT","url":"Organization/4b5a882f-1f43-485c-85c6-f5ad2337d5b1"}},{"fullUrl":"https://madie.cms.gov/MeasureReport/09cf18ec-5935-4266-94ad-b3327dd8813d","resource":{"resourceType":"MeasureReport","id":"09cf18ec-5935-4266-94ad-b3327dd8813d","meta":{"profile":["http://hl7.org/fhir/us/cqfmeasures/StructureDefinition/test-case-cqfm"]},"contained":[{"resourceType":"Parameters","id":"109cb0c0-f82a-4579-a0a1-0d8145863490-parameters","parameter":[{"name":"subject","valueString":"ce6698d6-ca56-44f7-9390-17e3e7a3dfde"}]}],"extension":[{"url":"http://hl7.org/fhir/us/cqfmeasures/StructureDefinition/cqfm-inputParameters","valueReference":{"reference":"#109cb0c0-f82a-4579-a0a1-0d8145863490-parameters"}},{"url":"http://hl7.org/fhir/us/cqfmeasures/StructureDefinition/cqfm-testCaseDescription","valueMarkdown":"Both Enc Cr after 48 hrs: 1.81, 1.82. This is double of earlier creat 0.9, .91. Meets Numerator for both Enc.\nVScode: Numerator=[Encounter(id=NUMERPass-TwoEncountersCreatinineDoubled-01), Encounter(id=NUMERPass-TwoEncountersCreatinineDoubled-02)]\n"}],"modifierExtension":[{"url":"http://hl7.org/fhir/us/cqfmeasures/StructureDefinition/cqfm-isTestCase","valueBoolean":true}],"status":"complete","type":"individual","measure":"https://madie.cms.gov/Measure/HospitalHarmAcuteKidneyInjuryFHIR","period":{"start":"2025-01-01","end":"2025-12-31"},"group":[{"population":[{"code":{"coding":[{"system":"http://terminology.hl7.org/CodeSystem/measure-population","code":"initial-population","display":"Initial Population"}]},"count":2},{"code":{"coding":[{"system":"http://terminology.hl7.org/CodeSystem/measure-population","code":"denominator","display":"Denominator"}]},"count":2},{"code":{"coding":[{"system":"http://terminology.hl7.org/CodeSystem/measure-population","code":"denominator-exclusion","display":"Denominator Exclusion"}]},"count":0},{"code":{"coding":[{"system":"http://terminology.hl7.org/CodeSystem/measure-population","code":"numerator","display":"Numerator"}]},"count":2}]}]},"request":{"method":"PUT","url":"MeasureReport/09cf18ec-5935-4266-94ad-b3327dd8813d"}}]}