{"resourceType":"Bundle","id":"tests-0d0134b6-5f63-4083-96b3-a538359da42b-bundle","type":"transaction","entry":[{"fullUrl":"https://madie.cms.gov/Patient/0d0134b6-5f63-4083-96b3-a538359da42b","resource":{"resourceType":"Patient","id":"0d0134b6-5f63-4083-96b3-a538359da42b","meta":{"profile":["http://hl7.org/fhir/us/qicore/StructureDefinition/qicore-patient"]},"text":{"status":"generated","div":"<div xmlns=\"http://www.w3.org/1999/xhtml\"><div class=\"hapiHeaderText\">Turns 18 day of Encounter <b>DENOMPASS </b></div><table class=\"hapiPropertyTable\"><tbody><tr><td>Identifier</td><td>f0eda1c9668fdacdcad3378589bf6e0a71e7dec1618f14fca4d442ec96e402b1</td></tr><tr><td>Date of birth</td><td><span>29 September 2006</span></td></tr></tbody></table></div>"},"extension":[{"url":"http://hl7.org/fhir/us/core/StructureDefinition/us-core-race","extension":[{"url":"ombCategory","valueCoding":{"system":"urn:oid:2.16.840.1.113883.6.238","code":"1002-5","display":"American Indian or Alaska Native","userSelected":true}},{"url":"text","valueString":"American Indian or Alaska Native"}]},{"url":"http://hl7.org/fhir/us/core/StructureDefinition/us-core-ethnicity","extension":[{"url":"ombCategory","valueCoding":{"system":"urn:oid:2.16.840.1.113883.6.238","code":"2135-2","display":"Hispanic or Latino","userSelected":true}},{"url":"text","valueString":"Hispanic or Latino"}]}],"identifier":[{"type":{"coding":[{"system":"http://terminology.hl7.org/CodeSystem/v2-0203","code":"MR"}]},"system":"http://bonnie-fhir.healthit.gov/","value":"DENOMPass-CreatinineAfter48HoursPJM"}],"active":true,"name":[{"use":"usual","family":"DENOMPass","given":["CreatinineAfter48HoursPJM"]}],"gender":"female","birthDate":"1982-10-10"},"request":{"method":"PUT","url":"Patient/0d0134b6-5f63-4083-96b3-a538359da42b"}},{"fullUrl":"https://madie.cms.gov/Encounter/DENOMPass-CreatinineAfter48HoursPJM-01","resource":{"resourceType":"Encounter","id":"aafef411-5bc7-4ef9-97a2-319807c8431c","meta":{"profile":["http://hl7.org/fhir/us/qicore/StructureDefinition/qicore-encounter"]},"status":"finished","class":{"system":"http://terminology.hl7.org/CodeSystem/v3-ActCode","code":"EMER","display":"emergency"},"type":[{"coding":[{"system":"http://snomed.info/sct","code":"4525004"}]}],"subject":{"reference":"Patient/0d0134b6-5f63-4083-96b3-a538359da42b"},"period":{"start":"2025-09-29T06:00:00.000Z","end":"2025-09-29T08:00:00.000Z"}},"request":{"method":"PUT","url":"Encounter/aafef411-5bc7-4ef9-97a2-319807c8431c"}},{"fullUrl":"https://madie.cms.gov/Encounter/DENOMPass-CreatinineAfter48HoursPJM-02","resource":{"resourceType":"Encounter","id":"4ca1d7ec-c820-4d8f-8f3f-c0a075b62ba6","meta":{"profile":["http://hl7.org/fhir/us/qicore/StructureDefinition/qicore-encounter"]},"status":"finished","class":{"system":"http://terminology.hl7.org/CodeSystem/v3-ActCode","code":"IMP","display":"inpatient encounter"},"type":[{"coding":[{"system":"http://snomed.info/sct","code":"183452005"}]}],"subject":{"reference":"Patient/0d0134b6-5f63-4083-96b3-a538359da42b"},"period":{"start":"2025-09-29T08:00:00.000Z","end":"2025-10-03T20:00:00.000Z"}},"request":{"method":"PUT","url":"Encounter/4ca1d7ec-c820-4d8f-8f3f-c0a075b62ba6"}},{"fullUrl":"https://madie.cms.gov/MedicationAdministration/DENOMPass-CreatinineAfter48HoursPJM-21","resource":{"resourceType":"MedicationAdministration","id":"ef9db6ae-5c7f-429f-abf0-529e31ea0172","meta":{"profile":["http://hl7.org/fhir/us/qicore/StructureDefinition/qicore-medicationadministration"]},"status":"completed","medicationCodeableConcept":{"coding":[{"system":"http://www.nlm.nih.gov/research/umls/rxnorm","code":"1010600"}]},"subject":{"reference":"Patient/0d0134b6-5f63-4083-96b3-a538359da42b"},"effectivePeriod":{"start":"2025-09-29T08:00:00.000Z","end":"2025-09-29T08:15:00.000Z"}},"request":{"method":"PUT","url":"MedicationAdministration/ef9db6ae-5c7f-429f-abf0-529e31ea0172"}},{"fullUrl":"https://madie.cms.gov/Observation/DENOMPass-CreatinineAfter48HoursPJM-19","resource":{"resourceType":"Observation","id":"2fbcaa5e-5ce2-4ad7-b580-2c93301cd240","meta":{"profile":["http://hl7.org/fhir/us/qicore/StructureDefinition/qicore-observation"]},"status":"final","category":[{"coding":[{"system":"http://terminology.hl7.org/CodeSystem/observation-category","code":"laboratory","display":"Laboratory"}]}],"code":{"coding":[{"system":"http://loinc.org","version":"2.72","code":"2160-0","display":"Creatinine [Mass/volume] in Serum or Plasma","userSelected":true}]},"subject":{"reference":"Patient/0d0134b6-5f63-4083-96b3-a538359da42b"},"effectiveDateTime":"2025-10-01T07:50:00+00:00","issued":"2025-10-01T08:20:00+00:00","valueQuantity":{"value":0.6,"unit":"mg/dL","system":"http://unitsofmeasure.org","code":"mg/dL"}},"request":{"method":"PUT","url":"Observation/2fbcaa5e-5ce2-4ad7-b580-2c93301cd240"}},{"fullUrl":"https://madie.cms.gov/Observation/DENOMPass-CreatinineAfter48HoursPJM-18","resource":{"resourceType":"Observation","id":"857f452e-09ac-4751-a6be-d14d021894fe","meta":{"profile":["http://hl7.org/fhir/us/qicore/StructureDefinition/qicore-observation"]},"status":"final","category":[{"coding":[{"system":"http://terminology.hl7.org/CodeSystem/observation-category","code":"laboratory","display":"Laboratory"}]}],"code":{"coding":[{"system":"http://loinc.org","code":"2160-0","display":"Creatinine [Mass/volume] in Serum or Plasma"}]},"subject":{"reference":"Patient/0d0134b6-5f63-4083-96b3-a538359da42b"},"effectiveDateTime":"2025-09-29T07:59:00+00:00","issued":"2025-09-29T08:29:00+00:00","valueQuantity":{"value":0.8,"unit":"mg/dL","system":"http://unitsofmeasure.org","code":"mg/dL"}},"request":{"method":"PUT","url":"Observation/857f452e-09ac-4751-a6be-d14d021894fe"}},{"fullUrl":"https://madie.cms.gov/Observation/DENOMPass-CreatinineAfter48HoursPJM-17","resource":{"resourceType":"Observation","id":"c3ab8496-ca0a-44df-8442-41430b5a91b2","meta":{"profile":["http://hl7.org/fhir/us/qicore/StructureDefinition/qicore-observation"]},"status":"final","category":[{"coding":[{"system":"http://terminology.hl7.org/CodeSystem/observation-category","code":"laboratory","display":"Laboratory"}]}],"code":{"coding":[{"system":"http://loinc.org","version":"2.72","code":"2160-0","display":"Creatinine [Mass/volume] in Serum or Plasma","userSelected":true}]},"subject":{"reference":"Patient/0d0134b6-5f63-4083-96b3-a538359da42b"},"effectiveDateTime":"2025-09-29T08:01:00+00:00","issued":"2025-09-29T08:31:00+00:00","valueQuantity":{"value":1.1,"unit":"mg/dL","system":"http://unitsofmeasure.org","code":"mg/dL"}},"request":{"method":"PUT","url":"Observation/c3ab8496-ca0a-44df-8442-41430b5a91b2"}},{"fullUrl":"https://madie.cms.gov/Observation/DENOMPass-CreatinineAfter48HoursPJM-15","resource":{"resourceType":"Observation","id":"71a671d6-0a4d-428e-9cab-7e49694d8221","meta":{"profile":["http://hl7.org/fhir/us/qicore/StructureDefinition/qicore-observation"]},"status":"final","category":[{"coding":[{"system":"http://terminology.hl7.org/CodeSystem/observation-category","code":"laboratory","display":"Laboratory"}]}],"code":{"coding":[{"system":"http://loinc.org","code":"2160-0","display":"Creatinine [Mass/volume] in Serum or Plasma"}]},"subject":{"reference":"Patient/0d0134b6-5f63-4083-96b3-a538359da42b"},"effectiveDateTime":"2025-09-29T07:00:00+00:00","issued":"2025-09-29T07:30:00+00:00","valueQuantity":{"value":0.9,"unit":"mg/dL","system":"http://unitsofmeasure.org","code":"mg/dL"}},"request":{"method":"PUT","url":"Observation/71a671d6-0a4d-428e-9cab-7e49694d8221"}},{"fullUrl":"https://madie.cms.gov/Observation/DENOMPass-CreatinineAfter48HoursPJM-16","resource":{"resourceType":"Observation","id":"0af77046-56ee-4870-8464-8ca9026ab93f","meta":{"profile":["http://hl7.org/fhir/us/qicore/StructureDefinition/qicore-observation"]},"status":"final","category":[{"coding":[{"system":"http://terminology.hl7.org/CodeSystem/observation-category","code":"laboratory","display":"Laboratory"}]}],"code":{"coding":[{"system":"http://loinc.org","version":"2.72","code":"2160-0","display":"Creatinine [Mass/volume] in Serum or Plasma","userSelected":true}]},"subject":{"reference":"Patient/0d0134b6-5f63-4083-96b3-a538359da42b"},"effectiveDateTime":"2025-09-29T07:35:00+00:00","issued":"2025-09-29T08:05:00+00:00","valueQuantity":{"value":1,"unit":"mg/dL","system":"http://unitsofmeasure.org","code":"mg/dL"}},"request":{"method":"PUT","url":"Observation/0af77046-56ee-4870-8464-8ca9026ab93f"}},{"fullUrl":"https://madie.cms.gov/Coverage/DENOMPass-CreatinineAfter48HoursPJM-61","resource":{"resourceType":"Coverage","id":"d6f859e4-fc7a-45ce-8873-0270fe3bb776","meta":{"profile":["http://hl7.org/fhir/us/qicore/StructureDefinition/qicore-coverage"]},"status":"active","type":{"coding":[{"system":"https://nahdo.org/sopt","version":"9.2","code":"211","display":"Medicaid HMO"}]},"beneficiary":{"reference":"Patient/0d0134b6-5f63-4083-96b3-a538359da42b"},"period":{"start":"2023-12-01T00:00:00+00:00"},"payor":[{"reference":"Organization/4b5a882f-1f43-485c-85c6-f5ad2337d5b1"}]},"request":{"method":"PUT","url":"Coverage/d6f859e4-fc7a-45ce-8873-0270fe3bb776"}},{"fullUrl":"https://madie.cms.gov/Organization/DENOMPass-CreatinineAfter48HoursPJM-98","resource":{"resourceType":"Organization","id":"4b5a882f-1f43-485c-85c6-f5ad2337d5b1","meta":{"profile":["http://hl7.org/fhir/us/qicore/StructureDefinition/qicore-organization"]},"identifier":[{"use":"temp","system":"urn:oid:2.16.840.1.113883.4.4","value":"21-3259825"}],"active":true,"type":[{"coding":[{"system":"http://terminology.hl7.org/CodeSystem/organization-type","code":"pay","display":"Payer"}]}],"name":"Blue Cross Blue Shield of Texas","telecom":[{"system":"phone","value":"(+1) 972-766-6900"}],"address":[{"use":"billing","type":"postal","line":["P.O. Box 660044"],"city":"Dallas","state":"TX","postalCode":"75266-0044","country":"USA"}]},"request":{"method":"PUT","url":"Organization/4b5a882f-1f43-485c-85c6-f5ad2337d5b1"}},{"fullUrl":"https://madie.cms.gov/MeasureReport/fd408cbb-1427-439b-a357-6e2adbe880e2","resource":{"resourceType":"MeasureReport","id":"fd408cbb-1427-439b-a357-6e2adbe880e2","meta":{"profile":["http://hl7.org/fhir/us/cqfmeasures/StructureDefinition/test-case-cqfm"]},"contained":[{"resourceType":"Parameters","id":"4b1bb1c8-5d2d-40b3-b45c-f4e3f62eed0a-parameters","parameter":[{"name":"subject","valueString":"0d0134b6-5f63-4083-96b3-a538359da42b"}]}],"extension":[{"url":"http://hl7.org/fhir/us/cqfmeasures/StructureDefinition/cqfm-inputParameters","valueReference":{"reference":"#4b1bb1c8-5d2d-40b3-b45c-f4e3f62eed0a-parameters"}},{"url":"http://hl7.org/fhir/us/cqfmeasures/StructureDefinition/cqfm-testCaseDescription","valueMarkdown":"ER-INPT, more Cr to test display sort.\nVScode: Denominator=[Encounter(id=DENOMPass-CreatinineAfter48HoursPJM-02)] ,  Denominator Exclusion=[]"}],"modifierExtension":[{"url":"http://hl7.org/fhir/us/cqfmeasures/StructureDefinition/cqfm-isTestCase","valueBoolean":true}],"status":"complete","type":"individual","measure":"https://madie.cms.gov/Measure/HospitalHarmAcuteKidneyInjuryFHIR","period":{"start":"2025-01-01","end":"2025-12-31"},"group":[{"population":[{"code":{"coding":[{"system":"http://terminology.hl7.org/CodeSystem/measure-population","code":"initial-population","display":"Initial Population"}]},"count":1},{"code":{"coding":[{"system":"http://terminology.hl7.org/CodeSystem/measure-population","code":"denominator","display":"Denominator"}]},"count":1},{"code":{"coding":[{"system":"http://terminology.hl7.org/CodeSystem/measure-population","code":"denominator-exclusion","display":"Denominator Exclusion"}]},"count":0},{"code":{"coding":[{"system":"http://terminology.hl7.org/CodeSystem/measure-population","code":"numerator","display":"Numerator"}]},"count":0}]}]},"request":{"method":"PUT","url":"MeasureReport/fd408cbb-1427-439b-a357-6e2adbe880e2"}}]}