{"resourceType":"Bundle","id":"tests-212b0826-d939-4c4a-8c8f-c711bf5d9e44-bundle","type":"transaction","entry":[{"fullUrl":"https://madie.cms.gov/Patient/212b0826-d939-4c4a-8c8f-c711bf5d9e44","resource":{"resourceType":"Patient","id":"212b0826-d939-4c4a-8c8f-c711bf5d9e44","meta":{"profile":["http://hl7.org/fhir/us/qicore/StructureDefinition/qicore-patient"]},"text":{"status":"generated","div":"<div xmlns=\"http://www.w3.org/1999/xhtml\"><div class=\"hapiHeaderText\">Turns 18 day of Encounter <b>DENOMPass </b></div><table class=\"hapiPropertyTable\"><tbody><tr><td>Identifier</td><td>f0eda1c9668fdacdcad3378589bf6e0a71e7dec1618f14fca4d442ec96e402b1</td></tr><tr><td>Date of birth</td><td><span>29 September 2006</span></td></tr></tbody></table></div>"},"extension":[{"url":"http://hl7.org/fhir/us/core/StructureDefinition/us-core-race","extension":[{"url":"ombCategory","valueCoding":{"system":"urn:oid:2.16.840.1.113883.6.238","code":"1002-5","display":"American Indian or Alaska Native","userSelected":true}},{"url":"text","valueString":"American Indian or Alaska Native"}]},{"url":"http://hl7.org/fhir/us/core/StructureDefinition/us-core-ethnicity","extension":[{"url":"ombCategory","valueCoding":{"system":"urn:oid:2.16.840.1.113883.6.238","code":"2135-2","display":"Hispanic or Latino","userSelected":true}},{"url":"text","valueString":"Hispanic or Latino"}]}],"identifier":[{"type":{"coding":[{"system":"http://terminology.hl7.org/CodeSystem/v2-0203","code":"MR"}]},"system":"http://bonnie-fhir.healthit.gov/","value":"DENOMPass-RVAllDiagnosesPOA"}],"active":true,"name":[{"use":"usual","family":"DENOMPass","given":["RVAllDiagnosesPOA"]}],"gender":"male","birthDate":"1982-10-10"},"request":{"method":"PUT","url":"Patient/212b0826-d939-4c4a-8c8f-c711bf5d9e44"}},{"fullUrl":"https://madie.cms.gov/Encounter/DENOMPass-RVAllDiagnosesPOA-01","resource":{"resourceType":"Encounter","id":"4cde622b-8172-45fb-a7df-4a35cb1b8c56","meta":{"profile":["http://hl7.org/fhir/us/qicore/StructureDefinition/qicore-encounter"]},"status":"finished","class":{"system":"http://terminology.hl7.org/CodeSystem/v3-ActCode","code":"IMP","display":"inpatient encounter"},"type":[{"coding":[{"system":"http://snomed.info/sct","code":"183452005","display":"Emergency hospital admission (procedure)"}]}],"subject":{"reference":"Patient/212b0826-d939-4c4a-8c8f-c711bf5d9e44"},"period":{"start":"2025-09-29T08:00:00.000Z","end":"2025-10-03T20:00:00.000Z"},"diagnosis":[{"extension":[{"url":"http://hl7.org/fhir/us/qicore/StructureDefinition/qicore-encounter-diagnosisPresentOnAdmission","valueCodeableConcept":{"coding":[{"system":"https://www.cms.gov/Medicare/Medicare-Fee-for-Service-Payment/HospitalAcqCond/Coding","code":"Y"}]}}],"condition":{"reference":"Condition/DENOMPass-RVAllDiagnosesPOA-06"},"use":{"coding":[{"system":"http://hl7.org/fhir/diagnosis-role","code":"billing","display":"Billing"}]},"rank":1}]},"request":{"method":"PUT","url":"Encounter/4cde622b-8172-45fb-a7df-4a35cb1b8c56"}},{"fullUrl":"https://madie.cms.gov/Condition/DENOMPass-RVAllDiagnosesPOA-06","resource":{"resourceType":"Condition","id":"f3e25a94-a4e6-4d75-acac-e9482a39973b","meta":{"profile":["http://hl7.org/fhir/us/qicore/StructureDefinition/qicore-condition"]},"clinicalStatus":{"coding":[{"system":"http://terminology.hl7.org/CodeSystem/condition-clinical","code":"active","display":"Active","userSelected":true}]},"verificationStatus":{"coding":[{"system":"http://terminology.hl7.org/CodeSystem/condition-ver-status","code":"confirmed","display":"Confirmed","userSelected":true}]},"category":[{"coding":[{"system":"http://terminology.hl7.org/CodeSystem/condition-category","code":"encounter-diagnosis","display":"Encounter Diagnosis","userSelected":true}]}],"code":{"coding":[{"system":"http://hl7.org/fhir/sid/icd-10-cm","code":"E08.01","display":"Diabetes mellitus due to underlying condition with hyperosmolarity with coma","userSelected":true}]},"subject":{"reference":"Patient/212b0826-d939-4c4a-8c8f-c711bf5d9e44"},"onsetPeriod":{"start":"2025-09-29T06:00:00.000+00:00"},"recordedDate":"2025-09-29T08:25:00.000+00:00"},"request":{"method":"PUT","url":"Condition/f3e25a94-a4e6-4d75-acac-e9482a39973b"}},{"fullUrl":"https://madie.cms.gov/Observation/DENOMPass-RVAllDiagnosesPOA-17","resource":{"resourceType":"Observation","id":"9dfaf33a-8367-4a37-bf1d-e62f894617f9","meta":{"profile":["http://hl7.org/fhir/us/qicore/StructureDefinition/qicore-observation"]},"status":"final","category":[{"coding":[{"system":"http://terminology.hl7.org/CodeSystem/observation-category","code":"laboratory","display":"Laboratory"}]}],"code":{"coding":[{"system":"http://loinc.org","version":"2.72","code":"2160-0","display":"Creatinine [Mass/volume] in Serum or Plasma","userSelected":true}]},"subject":{"reference":"Patient/212b0826-d939-4c4a-8c8f-c711bf5d9e44"},"effectiveDateTime":"2025-10-01T08:01:00+00:00","issued":"2025-10-01T08:31:00+00:00","valueQuantity":{"value":0.9,"unit":"mg/dL","system":"http://unitsofmeasure.org","code":"mg/dL"}},"request":{"method":"PUT","url":"Observation/9dfaf33a-8367-4a37-bf1d-e62f894617f9"}},{"fullUrl":"https://madie.cms.gov/Observation/DENOMPass-RVAllDiagnosesPOA-15","resource":{"resourceType":"Observation","id":"8bf37949-defc-46f2-9be2-d47886f80ede","meta":{"profile":["http://hl7.org/fhir/us/qicore/StructureDefinition/qicore-observation"]},"status":"final","category":[{"coding":[{"system":"http://terminology.hl7.org/CodeSystem/observation-category","code":"laboratory","display":"Laboratory"}]}],"code":{"coding":[{"system":"http://loinc.org","code":"2160-0","display":"Creatinine [Mass/volume] in Serum or Plasma"}]},"subject":{"reference":"Patient/212b0826-d939-4c4a-8c8f-c711bf5d9e44"},"effectiveDateTime":"2025-09-29T09:00:00+00:00","issued":"2025-09-29T09:30:00+00:00","valueQuantity":{"value":0.9,"unit":"mg/dL","system":"http://unitsofmeasure.org","code":"mg/dL"}},"request":{"method":"PUT","url":"Observation/8bf37949-defc-46f2-9be2-d47886f80ede"}},{"fullUrl":"https://madie.cms.gov/Observation/DENOMPass-RVAllDiagnosesPOA-16","resource":{"resourceType":"Observation","id":"9ab7c42e-c76d-40df-897e-547943ee938a","meta":{"profile":["http://hl7.org/fhir/us/qicore/StructureDefinition/qicore-observation"]},"status":"final","category":[{"coding":[{"system":"http://terminology.hl7.org/CodeSystem/observation-category","code":"laboratory","display":"Laboratory"}]}],"code":{"coding":[{"system":"http://loinc.org","version":"2.72","code":"2160-0","display":"Creatinine [Mass/volume] in Serum or Plasma","userSelected":true}]},"subject":{"reference":"Patient/212b0826-d939-4c4a-8c8f-c711bf5d9e44"},"effectiveDateTime":"2025-09-30T07:35:00+00:00","issued":"2025-09-30T08:00:00+00:00","valueQuantity":{"value":0.9,"unit":"mg/dL","system":"http://unitsofmeasure.org","code":"mg/dL"}},"request":{"method":"PUT","url":"Observation/9ab7c42e-c76d-40df-897e-547943ee938a"}},{"fullUrl":"https://madie.cms.gov/Coverage/DENOMPass-RVAllDiagnosesPOA-61","resource":{"resourceType":"Coverage","id":"4af0980f-7963-4e34-a2e3-b5f3cd97320e","meta":{"profile":["http://hl7.org/fhir/us/qicore/StructureDefinition/qicore-coverage"]},"status":"active","type":{"coding":[{"system":"https://nahdo.org/sopt","version":"9.2","code":"211","display":"Medicaid HMO"}]},"beneficiary":{"reference":"Patient/212b0826-d939-4c4a-8c8f-c711bf5d9e44"},"period":{"start":"2023-12-01T00:00:00+00:00"},"payor":[{"reference":"Organization/4b5a882f-1f43-485c-85c6-f5ad2337d5b1"}]},"request":{"method":"PUT","url":"Coverage/4af0980f-7963-4e34-a2e3-b5f3cd97320e"}},{"fullUrl":"https://madie.cms.gov/Organization/DENOMPass-RVAllDiagnosesPOA-98","resource":{"resourceType":"Organization","id":"4b5a882f-1f43-485c-85c6-f5ad2337d5b1","meta":{"profile":["http://hl7.org/fhir/us/qicore/StructureDefinition/qicore-organization"]},"identifier":[{"use":"temp","system":"urn:oid:2.16.840.1.113883.4.4","value":"21-3259825"}],"active":true,"type":[{"coding":[{"system":"http://terminology.hl7.org/CodeSystem/organization-type","code":"pay","display":"Payer"}]}],"name":"Blue Cross Blue Shield of Texas","telecom":[{"system":"phone","value":"(+1) 972-766-6900"}],"address":[{"use":"billing","type":"postal","line":["P.O. Box 660044"],"city":"Dallas","state":"TX","postalCode":"75266-0044","country":"USA"}]},"request":{"method":"PUT","url":"Organization/4b5a882f-1f43-485c-85c6-f5ad2337d5b1"}},{"fullUrl":"https://madie.cms.gov/MeasureReport/e39b78d3-8d2d-4a58-a098-6227da755afd","resource":{"resourceType":"MeasureReport","id":"e39b78d3-8d2d-4a58-a098-6227da755afd","meta":{"profile":["http://hl7.org/fhir/us/cqfmeasures/StructureDefinition/test-case-cqfm"]},"contained":[{"resourceType":"Parameters","id":"e65d6aaa-d67b-4a05-bdf3-5b1f44ef916d-parameters","parameter":[{"name":"subject","valueString":"212b0826-d939-4c4a-8c8f-c711bf5d9e44"}]}],"extension":[{"url":"http://hl7.org/fhir/us/cqfmeasures/StructureDefinition/cqfm-inputParameters","valueReference":{"reference":"#e65d6aaa-d67b-4a05-bdf3-5b1f44ef916d-parameters"}},{"url":"http://hl7.org/fhir/us/cqfmeasures/StructureDefinition/cqfm-testCaseDescription","valueMarkdown":"DENOMPass-RVAllDiagnosesPOA E08.01 Diabetes mellitus due to underlying condition with hyperosmolarity with coma but POA logic/json not generating RV tuple"}],"modifierExtension":[{"url":"http://hl7.org/fhir/us/cqfmeasures/StructureDefinition/cqfm-isTestCase","valueBoolean":true}],"status":"complete","type":"individual","measure":"https://madie.cms.gov/Measure/HospitalHarmAcuteKidneyInjuryFHIR","period":{"start":"2025-01-01","end":"2025-12-31"},"group":[{"population":[{"code":{"coding":[{"system":"http://terminology.hl7.org/CodeSystem/measure-population","code":"initial-population","display":"Initial Population"}]},"count":1},{"code":{"coding":[{"system":"http://terminology.hl7.org/CodeSystem/measure-population","code":"denominator","display":"Denominator"}]},"count":1},{"code":{"coding":[{"system":"http://terminology.hl7.org/CodeSystem/measure-population","code":"denominator-exclusion","display":"Denominator Exclusion"}]},"count":0},{"code":{"coding":[{"system":"http://terminology.hl7.org/CodeSystem/measure-population","code":"numerator","display":"Numerator"}]},"count":0}]}]},"request":{"method":"PUT","url":"MeasureReport/e39b78d3-8d2d-4a58-a098-6227da755afd"}}]}