{"resourceType":"Bundle","id":"tests-a959f507-685c-4d5e-b8e4-dc02063dba36-bundle","type":"transaction","entry":[{"fullUrl":"https://madie.cms.gov/Patient/a959f507-685c-4d5e-b8e4-dc02063dba36","resource":{"resourceType":"Patient","id":"a959f507-685c-4d5e-b8e4-dc02063dba36","meta":{"profile":["http://hl7.org/fhir/us/qicore/StructureDefinition/qicore-patient"]},"text":{"status":"generated","div":"<div xmlns=\"http://www.w3.org/1999/xhtml\"><div class=\"hapiHeaderText\">Turns 18 day of Encounter <b>DENOMPASS </b></div><table class=\"hapiPropertyTable\"><tbody><tr><td>Identifier</td><td>f0eda1c9668fdacdcad3378589bf6e0a71e7dec1618f14fca4d442ec96e402b1</td></tr><tr><td>Date of birth</td><td><span>29 September 2006</span></td></tr></tbody></table></div>"},"extension":[{"url":"http://hl7.org/fhir/us/core/StructureDefinition/us-core-race","extension":[{"url":"ombCategory","valueCoding":{"system":"urn:oid:2.16.840.1.113883.6.238","code":"1002-5","display":"American Indian or Alaska Native","userSelected":true}},{"url":"text","valueString":"American Indian or Alaska Native"}]},{"url":"http://hl7.org/fhir/us/core/StructureDefinition/us-core-ethnicity","extension":[{"url":"ombCategory","valueCoding":{"system":"urn:oid:2.16.840.1.113883.6.238","code":"2135-2","display":"Hispanic or Latino","userSelected":true}},{"url":"text","valueString":"Hispanic or Latino"}]}],"identifier":[{"type":{"coding":[{"system":"http://terminology.hl7.org/CodeSystem/v2-0203","code":"MR"}]},"system":"http://bonnie-fhir.healthit.gov/","value":"IPPFail-Age17InEDAge18DayOfIPAdmitCreatinineLT48hrs"}],"active":true,"name":[{"use":"usual","family":"IPPFail","given":["Age17InEDAge18DayOfIPAdmitCreatinineLT48hrs"]}],"gender":"female","birthDate":"2006-09-29"},"request":{"method":"PUT","url":"Patient/a959f507-685c-4d5e-b8e4-dc02063dba36"}},{"fullUrl":"https://madie.cms.gov/Encounter/IPPFail-Age17InEDAge18DayOfIPAdmitCreatinineLT48hrs-01","resource":{"resourceType":"Encounter","id":"48f33279-9ddc-4910-9c70-d5edbebe5b7c","meta":{"profile":["http://hl7.org/fhir/us/qicore/StructureDefinition/qicore-encounter"]},"status":"finished","class":{"system":"http://terminology.hl7.org/CodeSystem/v3-ActCode","code":"EMER","display":"emergency"},"type":[{"coding":[{"system":"http://snomed.info/sct","code":"4525004"}]}],"subject":{"reference":"Patient/a959f507-685c-4d5e-b8e4-dc02063dba36"},"period":{"start":"2025-09-29T06:00:00.000Z","end":"2025-09-29T08:00:00.000Z"}},"request":{"method":"PUT","url":"Encounter/48f33279-9ddc-4910-9c70-d5edbebe5b7c"}},{"fullUrl":"https://madie.cms.gov/Encounter/IPPFail-Age17InEDAge18DayOfIPAdmitCreatinineLT48hrs-02","resource":{"resourceType":"Encounter","id":"c25f002c-8809-4d05-b058-ab7828b104fb","meta":{"profile":["http://hl7.org/fhir/us/qicore/StructureDefinition/qicore-encounter"]},"status":"finished","class":{"system":"http://terminology.hl7.org/CodeSystem/v3-ActCode","code":"IMP","display":"inpatient encounter"},"type":[{"coding":[{"system":"http://snomed.info/sct","code":"183452005"}]}],"subject":{"reference":"Patient/a959f507-685c-4d5e-b8e4-dc02063dba36"},"period":{"start":"2025-09-29T08:00:00.000Z","end":"2025-10-03T20:00:00.000Z"}},"request":{"method":"PUT","url":"Encounter/c25f002c-8809-4d05-b058-ab7828b104fb"}},{"fullUrl":"https://madie.cms.gov/MedicationAdministration/IPPFail-Age17InEDAge18DayOfIPAdmitCreatinineLT48hrs-21","resource":{"resourceType":"MedicationAdministration","id":"1afb34cb-46fa-4815-b996-417a14b1c088","meta":{"profile":["http://hl7.org/fhir/us/qicore/StructureDefinition/qicore-medicationadministration"]},"status":"completed","medicationCodeableConcept":{"coding":[{"system":"http://www.nlm.nih.gov/research/umls/rxnorm","code":"1010600"}]},"subject":{"reference":"Patient/a959f507-685c-4d5e-b8e4-dc02063dba36"},"effectivePeriod":{"start":"2025-09-29T08:00:00.000Z","end":"2025-09-29T08:15:00.000Z"}},"request":{"method":"PUT","url":"MedicationAdministration/1afb34cb-46fa-4815-b996-417a14b1c088"}},{"fullUrl":"https://madie.cms.gov/Observation/IPPFail-Age17InEDAge18DayOfIPAdmitCreatinineLT48hrs-19","resource":{"resourceType":"Observation","id":"d0d78872-a994-43f0-b0f1-47a30896bf3d","meta":{"profile":["http://hl7.org/fhir/us/qicore/StructureDefinition/qicore-observation"]},"status":"final","category":[{"coding":[{"system":"http://terminology.hl7.org/CodeSystem/observation-category","code":"laboratory","display":"Laboratory"}]}],"code":{"coding":[{"system":"http://loinc.org","version":"2.72","code":"2160-0","display":"Creatinine [Mass/volume] in Serum or Plasma","userSelected":true}]},"subject":{"reference":"Patient/a959f507-685c-4d5e-b8e4-dc02063dba36"},"effectiveDateTime":"2025-10-01T05:50:00+00:00","issued":"2025-10-01T08:20:00+00:00","valueQuantity":{"value":0.6,"unit":"mg/dL","system":"http://unitsofmeasure.org","code":"mg/dL"}},"request":{"method":"PUT","url":"Observation/d0d78872-a994-43f0-b0f1-47a30896bf3d"}},{"fullUrl":"https://madie.cms.gov/Observation/IPPFail-Age17InEDAge18DayOfIPAdmitCreatinineLT48hrs-18","resource":{"resourceType":"Observation","id":"ffd92ab6-50d1-4c90-a099-59bd6df9743f","meta":{"profile":["http://hl7.org/fhir/us/qicore/StructureDefinition/qicore-observation"]},"status":"final","category":[{"coding":[{"system":"http://terminology.hl7.org/CodeSystem/observation-category","code":"laboratory","display":"Laboratory"}]}],"code":{"coding":[{"system":"http://loinc.org","code":"2160-0","display":"Creatinine [Mass/volume] in Serum or Plasma"}]},"subject":{"reference":"Patient/a959f507-685c-4d5e-b8e4-dc02063dba36"},"effectiveDateTime":"2025-09-29T07:59:00+00:00","issued":"2025-09-29T08:29:00+00:00","valueQuantity":{"value":0.8,"unit":"mg/dL","system":"http://unitsofmeasure.org","code":"mg/dL"}},"request":{"method":"PUT","url":"Observation/ffd92ab6-50d1-4c90-a099-59bd6df9743f"}},{"fullUrl":"https://madie.cms.gov/Observation/IPPFail-Age17InEDAge18DayOfIPAdmitCreatinineLT48hrs-17","resource":{"resourceType":"Observation","id":"ca8de57a-2b54-45b8-aad5-55cbf35748bf","meta":{"profile":["http://hl7.org/fhir/us/qicore/StructureDefinition/qicore-observation"]},"status":"final","category":[{"coding":[{"system":"http://terminology.hl7.org/CodeSystem/observation-category","code":"laboratory","display":"Laboratory"}]}],"code":{"coding":[{"system":"http://loinc.org","version":"2.72","code":"2160-0","display":"Creatinine [Mass/volume] in Serum or Plasma","userSelected":true}]},"subject":{"reference":"Patient/a959f507-685c-4d5e-b8e4-dc02063dba36"},"effectiveDateTime":"2025-09-29T08:01:00+00:00","issued":"2025-09-29T08:31:00+00:00","valueQuantity":{"value":1.1,"unit":"mg/dL","system":"http://unitsofmeasure.org","code":"mg/dL"}},"request":{"method":"PUT","url":"Observation/ca8de57a-2b54-45b8-aad5-55cbf35748bf"}},{"fullUrl":"https://madie.cms.gov/Observation/IPPFail-Age17InEDAge18DayOfIPAdmitCreatinineLT48hrs-15","resource":{"resourceType":"Observation","id":"d0dc7bf6-1a48-4892-b242-484a437553ca","meta":{"profile":["http://hl7.org/fhir/us/qicore/StructureDefinition/qicore-observation"]},"status":"final","category":[{"coding":[{"system":"http://terminology.hl7.org/CodeSystem/observation-category","code":"laboratory","display":"Laboratory"}]}],"code":{"coding":[{"system":"http://loinc.org","code":"2160-0","display":"Creatinine [Mass/volume] in Serum or Plasma"}]},"subject":{"reference":"Patient/a959f507-685c-4d5e-b8e4-dc02063dba36"},"effectiveDateTime":"2025-09-29T07:00:00+00:00","issued":"2025-09-29T07:30:00+00:00","valueQuantity":{"value":0.9,"unit":"mg/dL","system":"http://unitsofmeasure.org","code":"mg/dL"}},"request":{"method":"PUT","url":"Observation/d0dc7bf6-1a48-4892-b242-484a437553ca"}},{"fullUrl":"https://madie.cms.gov/Observation/IPPFail-Age17InEDAge18DayOfIPAdmitCreatinineLT48hrs-16","resource":{"resourceType":"Observation","id":"19d9916b-fb29-4369-907f-b506ce693526","meta":{"profile":["http://hl7.org/fhir/us/qicore/StructureDefinition/qicore-observation"]},"status":"final","category":[{"coding":[{"system":"http://terminology.hl7.org/CodeSystem/observation-category","code":"laboratory","display":"Laboratory"}]}],"code":{"coding":[{"system":"http://loinc.org","version":"2.72","code":"2160-0","display":"Creatinine [Mass/volume] in Serum or Plasma","userSelected":true}]},"subject":{"reference":"Patient/a959f507-685c-4d5e-b8e4-dc02063dba36"},"effectiveDateTime":"2025-09-29T07:35:00+00:00","issued":"2025-09-29T08:05:00+00:00","valueQuantity":{"value":1.6,"unit":"mg/dL","system":"http://unitsofmeasure.org","code":"mg/dL"}},"request":{"method":"PUT","url":"Observation/19d9916b-fb29-4369-907f-b506ce693526"}},{"fullUrl":"https://madie.cms.gov/Coverage/IPPFail-Age17InEDAge18DayOfIPAdmitCreatinineLT48hrs-61","resource":{"resourceType":"Coverage","id":"92f66df8-069d-4fe9-a52e-ad853ea1a775","meta":{"profile":["http://hl7.org/fhir/us/qicore/StructureDefinition/qicore-coverage"]},"status":"active","type":{"coding":[{"system":"https://nahdo.org/sopt","version":"9.2","code":"211","display":"Medicaid HMO"}]},"beneficiary":{"reference":"Patient/a959f507-685c-4d5e-b8e4-dc02063dba36"},"period":{"start":"2023-12-01T00:00:00+00:00"},"payor":[{"reference":"Organization/4b5a882f-1f43-485c-85c6-f5ad2337d5b1"}]},"request":{"method":"PUT","url":"Coverage/92f66df8-069d-4fe9-a52e-ad853ea1a775"}},{"fullUrl":"https://madie.cms.gov/Organization/IPPFail-Age17InEDAge18DayOfIPAdmitCreatinineLT48hrs-98","resource":{"resourceType":"Organization","id":"4b5a882f-1f43-485c-85c6-f5ad2337d5b1","meta":{"profile":["http://hl7.org/fhir/us/qicore/StructureDefinition/qicore-organization"]},"identifier":[{"use":"temp","system":"urn:oid:2.16.840.1.113883.4.4","value":"21-3259825"}],"active":true,"type":[{"coding":[{"system":"http://terminology.hl7.org/CodeSystem/organization-type","code":"pay","display":"Payer"}]}],"name":"Blue Cross Blue Shield of Texas","telecom":[{"system":"phone","value":"(+1) 972-766-6900"}],"address":[{"use":"billing","type":"postal","line":["P.O. Box 660044"],"city":"Dallas","state":"TX","postalCode":"75266-0044","country":"USA"}]},"request":{"method":"PUT","url":"Organization/4b5a882f-1f43-485c-85c6-f5ad2337d5b1"}},{"fullUrl":"https://madie.cms.gov/MeasureReport/1846d486-e9e7-45d8-9953-6020526a5475","resource":{"resourceType":"MeasureReport","id":"1846d486-e9e7-45d8-9953-6020526a5475","meta":{"profile":["http://hl7.org/fhir/us/cqfmeasures/StructureDefinition/test-case-cqfm"]},"contained":[{"resourceType":"Parameters","id":"b30738cd-aafd-4bd8-b80d-69b230b519d0-parameters","parameter":[{"name":"subject","valueString":"a959f507-685c-4d5e-b8e4-dc02063dba36"}]}],"extension":[{"url":"http://hl7.org/fhir/us/cqfmeasures/StructureDefinition/cqfm-inputParameters","valueReference":{"reference":"#b30738cd-aafd-4bd8-b80d-69b230b519d0-parameters"}},{"url":"http://hl7.org/fhir/us/cqfmeasures/StructureDefinition/cqfm-testCaseDescription","valueMarkdown":"Not 18 on INPT admission\nVScode: Initial Population=[]"}],"modifierExtension":[{"url":"http://hl7.org/fhir/us/cqfmeasures/StructureDefinition/cqfm-isTestCase","valueBoolean":true}],"status":"complete","type":"individual","measure":"https://madie.cms.gov/Measure/HospitalHarmAcuteKidneyInjuryFHIR","period":{"start":"2025-01-01","end":"2025-12-31"},"group":[{"population":[{"code":{"coding":[{"system":"http://terminology.hl7.org/CodeSystem/measure-population","code":"initial-population","display":"Initial Population"}]},"count":0},{"code":{"coding":[{"system":"http://terminology.hl7.org/CodeSystem/measure-population","code":"denominator","display":"Denominator"}]},"count":0},{"code":{"coding":[{"system":"http://terminology.hl7.org/CodeSystem/measure-population","code":"denominator-exclusion","display":"Denominator Exclusion"}]},"count":0},{"code":{"coding":[{"system":"http://terminology.hl7.org/CodeSystem/measure-population","code":"numerator","display":"Numerator"}]},"count":0}]}]},"request":{"method":"PUT","url":"MeasureReport/1846d486-e9e7-45d8-9953-6020526a5475"}}]}