{
  "resourceType": "Bundle",
  "id": "610965b898086b538055c146",
  "type": "transaction",
  "entry": [ {
    "fullUrl": "https://madie.cms.gov/Patient/5737c2f3-0550-437d-9d4c-846c3dba902b",
    "resource": {
      "resourceType": "Patient",
      "id": "5737c2f3-0550-437d-9d4c-846c3dba902b",
      "meta": {
        "profile": [ "http://hl7.org/fhir/us/qicore/StructureDefinition/qicore-patient" ]
      },
      "text": {
        "status": "generated",
        "div": "<div xmlns=\"http://www.w3.org/1999/xhtml\"><div class=\"hapiHeaderText\">Patient15StartMP <b>IPPPASS </b></div><table class=\"hapiPropertyTable\"><tbody><tr><td>Identifier</td><td>604d2e51a95dc1c7ed644bda9409fd1cd9b88013d7cf822b73c0547dcd33ea53</td></tr><tr><td>Date of birth</td><td><span>01 January 1997</span></td></tr></tbody></table></div>"
      },
      "extension": [ {
        "url": "http://hl7.org/fhir/us/core/StructureDefinition/us-core-race",
        "extension": [ {
          "url": "ombCategory",
          "valueCoding": {
            "system": "urn:oid:2.16.840.1.113883.6.238",
            "code": "1002-5",
            "display": "American Indian or Alaska Native",
            "userSelected": true
          }
        }, {
          "url": "text",
          "valueString": "American Indian or Alaska Native"
        } ]
      }, {
        "url": "http://hl7.org/fhir/us/core/StructureDefinition/us-core-ethnicity",
        "extension": [ {
          "url": "ombCategory",
          "valueCoding": {
            "system": "urn:oid:2.16.840.1.113883.6.238",
            "code": "2135-2",
            "display": "Hispanic or Latino",
            "userSelected": true
          }
        }, {
          "url": "text",
          "valueString": "Hispanic or Latino"
        } ]
      } ],
      "identifier": [ {
        "type": {
          "coding": [ {
            "system": "http://terminology.hl7.org/CodeSystem/v2-0203",
            "code": "MR"
          } ]
        },
        "system": "https://bonnie-fhir.healthit.gov/",
        "value": "610965b898086b538055c146"
      } ],
      "active": true,
      "name": [ {
        "use": "usual",
        "family": "IPPPass",
        "given": [ "Age15Jan1" ]
      } ],
      "gender": "female",
      "birthDate": "2009-01-01"
    },
    "request": {
      "method": "POST",
      "url": "Patient/5737c2f3-0550-437d-9d4c-846c3dba902b"
    }
  }, {
    "fullUrl": "https://madie.cms.gov/Encounter/5c9e578cb8484602c2f9221e",
    "resource": {
      "resourceType": "Encounter",
      "id": "5c9e578cb8484602c2f9221e",
      "meta": {
        "profile": [ "http://hl7.org/fhir/us/qicore/StructureDefinition/qicore-encounter" ]
      },
      "status": "finished",
      "class": {
        "system": "http://terminology.hl7.org/CodeSystem/v3-ActCode",
        "code": "AMB",
        "display": "ambulatory",
        "userSelected": true
      },
      "type": [ {
        "coding": [ {
          "system": "http://www.ama-assn.org/go/cpt",
          "code": "99381"
        } ]
      } ],
      "subject": {
        "reference": "Patient/5737c2f3-0550-437d-9d4c-846c3dba902b"
      },
      "period": {
        "start": "2025-10-24T08:00:00.000+00:00",
        "end": "2025-10-24T08:15:00.000+00:00"
      }
    },
    "request": {
      "method": "POST",
      "url": "Encounter/5c9e578cb8484602c2f9221e"
    }
  }, {
    "fullUrl": "https://madie.cms.gov/Encounter/5e5976cb9ec84a00005dc64f",
    "resource": {
      "resourceType": "Encounter",
      "id": "5e5976cb9ec84a00005dc64f",
      "meta": {
        "profile": [ "http://hl7.org/fhir/us/qicore/StructureDefinition/qicore-encounter" ]
      },
      "status": "finished",
      "class": {
        "system": "http://terminology.hl7.org/CodeSystem/v3-ActCode",
        "code": "AMB",
        "display": "ambulatory",
        "userSelected": true
      },
      "type": [ {
        "coding": [ {
          "system": "http://www.ama-assn.org/go/cpt",
          "code": "99394"
        } ]
      } ],
      "subject": {
        "reference": "Patient/b26beebe-30ab-4734-b1d1-958ff70e29ca"
      },
      "period": {
        "start": "2025-09-24T08:00:00.000+00:00",
        "end": "2025-09-24T08:15:00.000+00:00"
      }
    },
    "request": {
      "method": "POST",
      "url": "Encounter/5e5976cb9ec84a00005dc64f"
    }
  }, {
    "fullUrl": "https://madie.cms.gov/MeasureReport/2a8bc272-e772-4600-b943-b04ed2550457",
    "resource": {
      "resourceType": "MeasureReport",
      "id": "2a8bc272-e772-4600-b943-b04ed2550457",
      "meta": {
        "profile": [ "http://hl7.org/fhir/us/cqfmeasures/StructureDefinition/test-case-cqfm" ]
      },
      "contained": [ {
        "resourceType": "Parameters",
        "id": "b81390f6-96e0-40ab-9e5c-a1ef5aa08cc8-parameters",
        "parameter": [ {
          "name": "subject",
          "valueString": "5737c2f3-0550-437d-9d4c-846c3dba902b"
        } ]
      } ],
      "extension": [ {
        "url": "http://hl7.org/fhir/us/cqfmeasures/StructureDefinition/cqfm-inputParameters",
        "valueReference": {
          "reference": "#b81390f6-96e0-40ab-9e5c-a1ef5aa08cc8-parameters"
        }
      }, {
        "url": "http://hl7.org/fhir/us/cqfmeasures/StructureDefinition/cqfm-testCaseDescription",
        "valueMarkdown": "Patient has qualifying encounter and is age 15 on Jan 1. "
      } ],
      "modifierExtension": [ {
        "url": "http://hl7.org/fhir/us/cqfmeasures/StructureDefinition/cqfm-isTestCase",
        "valueBoolean": true
      } ],
      "status": "complete",
      "type": "individual",
      "measure": "https://madie.cms.gov/Measure/HIVScreeningFHIR",
      "period": {
        "start": "2025-01-01",
        "end": "2025-12-31"
      },
      "group": [ {
        "population": [ {
          "code": {
            "coding": [ {
              "system": "http://terminology.hl7.org/CodeSystem/measure-population",
              "code": "initial-population",
              "display": "Initial Population"
            } ]
          },
          "count": 1
        }, {
          "code": {
            "coding": [ {
              "system": "http://terminology.hl7.org/CodeSystem/measure-population",
              "code": "denominator",
              "display": "Denominator"
            } ]
          },
          "count": 1
        }, {
          "code": {
            "coding": [ {
              "system": "http://terminology.hl7.org/CodeSystem/measure-population",
              "code": "denominator-exclusion",
              "display": "Denominator Exclusion"
            } ]
          },
          "count": 0
        }, {
          "code": {
            "coding": [ {
              "system": "http://terminology.hl7.org/CodeSystem/measure-population",
              "code": "numerator",
              "display": "Numerator"
            } ]
          },
          "count": 0
        } ]
      } ],
      "evaluatedResource": [ {
        "reference": "Patient/5737c2f3-0550-437d-9d4c-846c3dba902b"
      }, {
        "reference": "Encounter/5c9e578cb8484602c2f9221e"
      }, {
        "reference": "Encounter/5e5976cb9ec84a00005dc64f"
      } ]
    },
    "request": {
      "method": "POST",
      "url": "MeasureReport/2a8bc272-e772-4600-b943-b04ed2550457"
    }
  } ]
}