{"resourceType":"Bundle","id":"tests-46534e12-d13f-434d-9e23-b7eaf29d2be1-bundle","type":"transaction","entry":[{"fullUrl":"https://madie.cms.gov/Patient/46534e12-d13f-434d-9e23-b7eaf29d2be1","resource":{"resourceType":"Patient","id":"46534e12-d13f-434d-9e23-b7eaf29d2be1","meta":{"profile":["http://hl7.org/fhir/us/qicore/StructureDefinition/qicore-patient"]},"extension":[{"url":"http://hl7.org/fhir/us/core/StructureDefinition/us-core-race","extension":[{"url":"ombCategory","valueCoding":{"system":"urn:oid:2.16.840.1.113883.6.238","code":"2028-9","display":"Asian"}},{"url":"text","valueString":"Asian"}]},{"url":"http://hl7.org/fhir/us/core/StructureDefinition/us-core-ethnicity","extension":[{"url":"ombCategory","valueCoding":{"system":"urn:oid:2.16.840.1.113883.6.238","code":"2135-2","display":"Hispanic or Latino"}},{"url":"text","valueString":"Hispanic or Latino"}]}],"identifier":[{"system":"http://hospital.smarthealthit.org","value":"999999995"}],"name":[{"family":"Bertha","given":["Betty"]}],"gender":"female","birthDate":"1975-01-01"},"request":{"method":"PUT","url":"Patient/46534e12-d13f-434d-9e23-b7eaf29d2be1"}},{"fullUrl":"https://madie.cms.gov/Encounter/Encounter-28","resource":{"resourceType":"Encounter","id":"350fa473-6a6d-45a5-a64b-0743b147dfd5","meta":{"profile":["http://hl7.org/fhir/us/qicore/StructureDefinition/qicore-encounter"]},"status":"finished","class":{"system":"http://terminology.hl7.org/CodeSystem/v3-ActCode","code":"AMB","display":"ambulatory"},"type":[{"coding":[{"system":"http://snomed.info/sct","code":"185317003","display":"Telephone encounter (procedure)"}]}],"subject":{"reference":"Patient/46534e12-d13f-434d-9e23-b7eaf29d2be1"},"period":{"start":"2025-01-01T01:00:00.000Z","end":"2025-01-01T01:15:00.000Z"}},"request":{"method":"PUT","url":"Encounter/350fa473-6a6d-45a5-a64b-0743b147dfd5"}},{"fullUrl":"https://madie.cms.gov/Observation/Observation-28","resource":{"resourceType":"Observation","id":"b2277f0c-0b99-4ecb-9fbc-c7473e007132","meta":{"profile":["http://hl7.org/fhir/us/qicore/StructureDefinition/qicore-observation"]},"status":"final","category":[{"coding":[{"system":"http://terminology.hl7.org/CodeSystem/observation-category","code":"survey","display":"Survey"}],"text":"Survey"}],"code":{"coding":[{"system":"http://loinc.org","code":"98139-9","display":"Osteoporosis Risk Assessment Instrument"}],"text":"ORAI"},"subject":{"reference":"Patient/46534e12-d13f-434d-9e23-b7eaf29d2be1"},"effectiveDateTime":"2025-01-03T00:00:00.000Z","valueInteger":9},"request":{"method":"PUT","url":"Observation/b2277f0c-0b99-4ecb-9fbc-c7473e007132"}},{"fullUrl":"https://madie.cms.gov/ServiceRequest/ServiceRequest-28","resource":{"resourceType":"ServiceRequest","id":"b628b40a-1f57-418f-82c4-a0bf801ec209","meta":{"profile":["http://hl7.org/fhir/us/qicore/StructureDefinition/qicore-servicerequest"]},"extension":[{"url":"http://hl7.org/fhir/StructureDefinition/request-statusReason","valueCodeableConcept":{"coding":[{"system":"http://snomed.info/sct","code":"15635006","display":"Requested by Patient"}]}}],"status":"completed","intent":"order","category":[{"coding":[{"system":"http://snomed.info/sct","code":"387713003","display":"Surgical procedure"}]}],"priority":"routine","code":{"coding":[{"system":"http://loinc.org","code":"24701-5","display":"DXA Femur [Mass/Area] Bone density"}]},"subject":{"reference":"Patient/46534e12-d13f-434d-9e23-b7eaf29d2be1"},"encounter":{"reference":"Encounter/Encounter-28"},"occurrenceDateTime":"2025-01-02","authoredOn":"2025-01-02","performerType":{"coding":[{"system":"http://snomed.info/sct","code":"405279007","display":"Attending physician (occupation)"}]},"reasonCode":[{"coding":[{"system":"http://snomed.info/sct","code":"123614006","display":"Partial Cataract (disorder)"}]}]},"request":{"method":"PUT","url":"ServiceRequest/b628b40a-1f57-418f-82c4-a0bf801ec209"}},{"fullUrl":"https://madie.cms.gov/MeasureReport/00e730e0-8c0b-43de-9a3e-554b4287e4d3","resource":{"resourceType":"MeasureReport","id":"00e730e0-8c0b-43de-9a3e-554b4287e4d3","meta":{"profile":["http://hl7.org/fhir/us/cqfmeasures/StructureDefinition/test-case-cqfm"]},"contained":[{"resourceType":"Parameters","id":"d17817b3-b308-4d56-bb54-c41f7e6db17d-parameters","parameter":[{"name":"subject","valueString":"46534e12-d13f-434d-9e23-b7eaf29d2be1"}]}],"extension":[{"url":"http://hl7.org/fhir/us/cqfmeasures/StructureDefinition/cqfm-inputParameters","valueReference":{"reference":"#d17817b3-b308-4d56-bb54-c41f7e6db17d-parameters"}},{"url":"http://hl7.org/fhir/us/cqfmeasures/StructureDefinition/cqfm-testCaseDescription","valueMarkdown":"ORAI assessment occurs 1 day after the DXA scan"}],"modifierExtension":[{"url":"http://hl7.org/fhir/us/cqfmeasures/StructureDefinition/cqfm-isTestCase","valueBoolean":true}],"status":"complete","type":"individual","measure":"https://madie.cms.gov/Measure/AppropriateDXAScansForWomenUnder65FHIR","period":{"start":"2025-01-01","end":"2025-12-31"},"group":[{"population":[{"code":{"coding":[{"system":"http://terminology.hl7.org/CodeSystem/measure-population","code":"initial-population","display":"Initial Population"}]},"count":1},{"code":{"coding":[{"system":"http://terminology.hl7.org/CodeSystem/measure-population","code":"denominator","display":"Denominator"}]},"count":1},{"code":{"coding":[{"system":"http://terminology.hl7.org/CodeSystem/measure-population","code":"denominator-exclusion","display":"Denominator Exclusion"}]},"count":0},{"code":{"coding":[{"system":"http://terminology.hl7.org/CodeSystem/measure-population","code":"numerator","display":"Numerator"}]},"count":1},{"code":{"coding":[{"system":"http://terminology.hl7.org/CodeSystem/measure-population","code":"numerator-exclusion","display":"Numerator Exclusion"}]},"count":0}]}]},"request":{"method":"PUT","url":"MeasureReport/00e730e0-8c0b-43de-9a3e-554b4287e4d3"}}]}