{
  "resourceType": "Bundle",
  "id": "363b28a9-e77d-4fee-aaaf-73ebb35bc57c",
  "type": "transaction",
  "entry": [ {
    "fullUrl": "https://madie.cms.gov/Patient/c8962a58-a56f-4c43-b54d-937ccbb488d0",
    "resource": {
      "resourceType": "Patient",
      "id": "c8962a58-a56f-4c43-b54d-937ccbb488d0",
      "meta": {
        "profile": [ "http://hl7.org/fhir/us/qicore/StructureDefinition/qicore-patient" ]
      },
      "extension": [ {
        "url": "http://hl7.org/fhir/us/core/StructureDefinition/us-core-race",
        "extension": [ {
          "url": "ombCategory",
          "valueCoding": {
            "system": "urn:oid:2.16.840.1.113883.6.238",
            "code": "2106-3",
            "display": "White"
          }
        }, {
          "url": "text",
          "valueString": "White"
        } ]
      }, {
        "url": "http://hl7.org/fhir/us/core/StructureDefinition/us-core-ethnicity",
        "extension": [ {
          "url": "ombCategory",
          "valueCoding": {
            "system": "urn:oid:2.16.840.1.113883.6.238",
            "code": "2135-2",
            "display": "Hispanic or Latino"
          }
        }, {
          "url": "text",
          "valueString": "Hispanic or Latino"
        } ]
      } ],
      "identifier": [ {
        "system": "http://hospital.smarthealthit.org",
        "value": "999999999"
      } ],
      "name": [ {
        "family": "Example",
        "given": [ "Patient" ]
      } ],
      "gender": "female",
      "birthDate": "1970-01-01"
    },
    "request": {
      "method": "POST",
      "url": "Patient/c8962a58-a56f-4c43-b54d-937ccbb488d0"
    }
  }, {
    "fullUrl": "https://madie.cms.gov/Coverage/Coverage-1",
    "resource": {
      "resourceType": "Coverage",
      "id": "Coverage-1",
      "meta": {
        "profile": [ "http://hl7.org/fhir/us/qicore/StructureDefinition/qicore-coverage" ]
      },
      "identifier": [ {
        "system": "http://benefitsinc.com/certificate",
        "value": "12345"
      } ],
      "status": "active",
      "type": {
        "coding": [ {
          "system": "https://nahdo.org/sopt",
          "code": "59",
          "display": "Other Private Insurance"
        } ]
      },
      "policyHolder": {
        "reference": "Patient/c8962a58-a56f-4c43-b54d-937ccbb488d0"
      },
      "subscriber": {
        "reference": "Patient/c8962a58-a56f-4c43-b54d-937ccbb488d0"
      },
      "beneficiary": {
        "reference": "Patient/c8962a58-a56f-4c43-b54d-937ccbb488d0"
      },
      "dependent": "0",
      "relationship": {
        "coding": [ {
          "system": "http://terminology.hl7.org/CodeSystem/subscriber-relationship",
          "code": "self"
        } ]
      },
      "period": {
        "start": "2025-01-01T06:00:00.000Z",
        "end": "2025-12-31T11:06:01.000Z"
      },
      "payor": [ {
        "reference": "Organization/Organization-2"
      } ],
      "order": 9
    },
    "request": {
      "method": "POST",
      "url": "Coverage/Coverage-1"
    }
  }, {
    "fullUrl": "https://madie.cms.gov/Encounter/5e8cccc8931f9c0000abd5b9",
    "resource": {
      "resourceType": "Encounter",
      "id": "5e8cccc8931f9c0000abd5b9",
      "meta": {
        "profile": [ "http://hl7.org/fhir/us/qicore/StructureDefinition/qicore-encounter" ]
      },
      "status": "finished",
      "class": {
        "system": "http://terminology.hl7.org/CodeSystem/v3-ActCode",
        "code": "IMP",
        "display": "inpatient encounter"
      },
      "type": [ {
        "coding": [ {
          "system": "http://snomed.info/sct",
          "code": "183452005"
        } ]
      } ],
      "subject": {
        "reference": "Patient/c8962a58-a56f-4c43-b54d-937ccbb488d0"
      },
      "period": {
        "start": "2025-04-07T08:00:00.000Z",
        "end": "2025-04-11T08:15:00.000Z"
      }
    },
    "request": {
      "method": "POST",
      "url": "Encounter/5e8cccc8931f9c0000abd5b9"
    }
  }, {
    "fullUrl": "https://madie.cms.gov/MeasureReport/e64ae40c-abb5-480c-9be6-afdb36fbcc4b",
    "resource": {
      "resourceType": "MeasureReport",
      "id": "e64ae40c-abb5-480c-9be6-afdb36fbcc4b",
      "meta": {
        "profile": [ "http://hl7.org/fhir/us/cqfmeasures/StructureDefinition/test-case-cqfm" ]
      },
      "contained": [ {
        "resourceType": "Parameters",
        "id": "aa813e3c-e9b4-49d0-9df6-c6dd8f9add50-parameters",
        "parameter": [ {
          "name": "subject",
          "valueString": "c8962a58-a56f-4c43-b54d-937ccbb488d0"
        } ]
      } ],
      "extension": [ {
        "url": "http://hl7.org/fhir/us/cqfmeasures/StructureDefinition/cqfm-inputParameters",
        "valueReference": {
          "reference": "#aa813e3c-e9b4-49d0-9df6-c6dd8f9add50-parameters"
        }
      }, {
        "url": "http://hl7.org/fhir/us/cqfmeasures/StructureDefinition/cqfm-testCaseDescription",
        "valueMarkdown": "Inpatient hospitalization for patient >=18 but no diabetes diagnosis, no hypoglycemic medication, and no glucose lab >40 mg/dL. Must meet at least one to meet IPP. IPP fails"
      } ],
      "modifierExtension": [ {
        "url": "http://hl7.org/fhir/us/cqfmeasures/StructureDefinition/cqfm-isTestCase",
        "valueBoolean": true
      } ],
      "status": "complete",
      "type": "individual",
      "measure": "https://madie.cms.gov/Measure/HospitalHarmHyperglycemiainHospitalizedPatientsFHIR",
      "period": {
        "start": "2025-01-01",
        "end": "2025-12-31"
      },
      "group": [ {
        "population": [ {
          "code": {
            "coding": [ {
              "system": "http://terminology.hl7.org/CodeSystem/measure-population",
              "code": "initial-population",
              "display": "Initial Population"
            } ]
          },
          "count": 0
        }, {
          "code": {
            "coding": [ {
              "system": "http://terminology.hl7.org/CodeSystem/measure-population",
              "code": "denominator",
              "display": "Denominator"
            } ]
          },
          "count": 0
        }, {
          "code": {
            "coding": [ {
              "system": "http://terminology.hl7.org/CodeSystem/measure-population",
              "code": "denominator-exclusion",
              "display": "Denominator Exclusion"
            } ]
          },
          "count": 0
        }, {
          "code": {
            "coding": [ {
              "system": "http://terminology.hl7.org/CodeSystem/measure-population",
              "code": "numerator",
              "display": "Numerator"
            } ]
          },
          "count": 0
        } ]
      } ],
      "evaluatedResource": [ {
        "reference": "https://madie.cms.gov/Patient/c8962a58-a56f-4c43-b54d-937ccbb488d0"
      }, {
        "reference": "https://madie.cms.gov/Coverage/Coverage-1"
      }, {
        "reference": "https://madie.cms.gov/Encounter/5e8cccc8931f9c0000abd5b9"
      } ]
    },
    "request": {
      "method": "POST",
      "url": "MeasureReport/e64ae40c-abb5-480c-9be6-afdb36fbcc4b"
    }
  } ]
}