{"resourceType":"Bundle","id":"tests-b528b1a6-cd8d-4f66-83c2-6467e83b6996-bundle","type":"transaction","entry":[{"fullUrl":"https://madie.cms.gov/Patient/b528b1a6-cd8d-4f66-83c2-6467e83b6996","resource":{"resourceType":"Patient","id":"b528b1a6-cd8d-4f66-83c2-6467e83b6996","meta":{"profile":["http://hl7.org/fhir/us/qicore/StructureDefinition/qicore-patient"]},"extension":[{"url":"http://hl7.org/fhir/us/core/StructureDefinition/us-core-race","extension":[{"url":"ombCategory","valueCoding":{"system":"urn:oid:2.16.840.1.113883.6.238","code":"2028-9","display":"Asian"}},{"url":"text","valueString":"Asian"}]},{"url":"http://hl7.org/fhir/us/core/StructureDefinition/us-core-ethnicity","extension":[{"url":"ombCategory","valueCoding":{"system":"urn:oid:2.16.840.1.113883.6.238","code":"2135-2","display":"Hispanic or Latino"}},{"url":"text","valueString":"Hispanic or Latino"}]}],"identifier":[{"system":"http://hospital.smarthealthit.org","value":"999999995"}],"name":[{"family":"Bertha","given":["Betty"]}],"gender":"female","birthDate":"1973-12-31"},"request":{"method":"PUT","url":"Patient/b528b1a6-cd8d-4f66-83c2-6467e83b6996"}},{"fullUrl":"https://madie.cms.gov/Encounter/Encounter-26","resource":{"resourceType":"Encounter","id":"20f99137-42e1-466b-a2e2-c0c5db6cae9e","meta":{"profile":["http://hl7.org/fhir/us/qicore/StructureDefinition/qicore-encounter"]},"status":"finished","class":{"system":"http://terminology.hl7.org/CodeSystem/v3-ActCode","code":"AMB","display":"ambulatory"},"type":[{"coding":[{"system":"http://snomed.info/sct","code":"185463005","display":"Visit out of hours (procedure)"}]}],"subject":{"reference":"Patient/b528b1a6-cd8d-4f66-83c2-6467e83b6996"},"period":{"start":"2025-01-01T00:00:00.000Z","end":"2025-01-01T00:00:00.000Z"}},"request":{"method":"PUT","url":"Encounter/20f99137-42e1-466b-a2e2-c0c5db6cae9e"}},{"fullUrl":"https://madie.cms.gov/Condition/Condition-26","resource":{"resourceType":"Condition","id":"aad5cd5a-fc6f-4bcd-bc5a-c612d32267d5","meta":{"profile":["http://hl7.org/fhir/us/qicore/StructureDefinition/qicore-condition"]},"clinicalStatus":{"coding":[{"system":"http://terminology.hl7.org/CodeSystem/condition-clinical","code":"active"}]},"category":[{"coding":[{"system":"http://terminology.hl7.org/CodeSystem/condition-category","code":"problem-list-item","display":"Problem List Item"}]}],"code":{"coding":[{"system":"http://snomed.info/sct","code":"137681000119108","display":"History of prophylactic mastectomy of right breast (situation)"}]},"subject":{"reference":"Patient/b528b1a6-cd8d-4f66-83c2-6467e83b6996"},"onsetDateTime":"2026-01-01T00:00:00.000Z"},"request":{"method":"PUT","url":"Condition/aad5cd5a-fc6f-4bcd-bc5a-c612d32267d5"}},{"fullUrl":"https://madie.cms.gov/Condition/Condition-26.1","resource":{"resourceType":"Condition","id":"681aaadb-61b4-47ff-a74d-7f7fd54ea110","meta":{"profile":["http://hl7.org/fhir/us/qicore/StructureDefinition/qicore-condition"]},"clinicalStatus":{"coding":[{"system":"http://terminology.hl7.org/CodeSystem/condition-clinical","code":"active"}]},"category":[{"coding":[{"system":"http://terminology.hl7.org/CodeSystem/condition-category","code":"problem-list-item","display":"Problem List Item"}]}],"code":{"coding":[{"system":"http://snomed.info/sct","code":"137671000119105","display":"History of prophylactic mastectomy of left breast (situation)"}]},"subject":{"reference":"Patient/b528b1a6-cd8d-4f66-83c2-6467e83b6996"},"onsetDateTime":"2025-01-01T00:00:00.000Z"},"request":{"method":"PUT","url":"Condition/681aaadb-61b4-47ff-a74d-7f7fd54ea110"}},{"fullUrl":"https://madie.cms.gov/MeasureReport/2a91ba59-0820-43a5-96d9-db601c352f7f","resource":{"resourceType":"MeasureReport","id":"2a91ba59-0820-43a5-96d9-db601c352f7f","meta":{"profile":["http://hl7.org/fhir/us/cqfmeasures/StructureDefinition/test-case-cqfm"]},"contained":[{"resourceType":"Parameters","id":"1eeca5b7-8260-46c1-b1e8-a3ed1bc6d8e2-parameters","parameter":[{"name":"subject","valueString":"b528b1a6-cd8d-4f66-83c2-6467e83b6996"}]}],"extension":[{"url":"http://hl7.org/fhir/us/cqfmeasures/StructureDefinition/cqfm-inputParameters","valueReference":{"reference":"#1eeca5b7-8260-46c1-b1e8-a3ed1bc6d8e2-parameters"}},{"url":"http://hl7.org/fhir/us/cqfmeasures/StructureDefinition/cqfm-testCaseDescription","valueMarkdown":"Patient 52yo w/ an Office Visit  Encounter 1/1 of the MP & Right Mastectomy Dx that starts on 1/1 the year after the MP."}],"modifierExtension":[{"url":"http://hl7.org/fhir/us/cqfmeasures/StructureDefinition/cqfm-isTestCase","valueBoolean":true}],"status":"complete","type":"individual","measure":"https://madie.cms.gov/Measure/BreastCancerScreeningFHIR","period":{"start":"2025-01-01","end":"2025-12-31"},"group":[{"population":[{"code":{"coding":[{"system":"http://terminology.hl7.org/CodeSystem/measure-population","code":"initial-population","display":"Initial Population"}]},"count":1},{"code":{"coding":[{"system":"http://terminology.hl7.org/CodeSystem/measure-population","code":"denominator","display":"Denominator"}]},"count":1},{"code":{"coding":[{"system":"http://terminology.hl7.org/CodeSystem/measure-population","code":"denominator-exclusion","display":"Denominator Exclusion"}]},"count":0},{"code":{"coding":[{"system":"http://terminology.hl7.org/CodeSystem/measure-population","code":"numerator","display":"Numerator"}]},"count":0}]}]},"request":{"method":"PUT","url":"MeasureReport/2a91ba59-0820-43a5-96d9-db601c352f7f"}}]}