{"resourceType":"Bundle","id":"tests-f38ce16a-658f-4aa0-b4a6-fac61d2e58a8-bundle","type":"transaction","entry":[{"fullUrl":"https://madie.cms.gov/Patient/f38ce16a-658f-4aa0-b4a6-fac61d2e58a8","resource":{"resourceType":"Patient","id":"f38ce16a-658f-4aa0-b4a6-fac61d2e58a8","meta":{"profile":["http://hl7.org/fhir/us/qicore/StructureDefinition/qicore-patient"]},"extension":[{"url":"http://hl7.org/fhir/us/core/StructureDefinition/us-core-race","extension":[{"url":"ombCategory","valueCoding":{"system":"urn:oid:2.16.840.1.113883.6.238","code":"2028-9","display":"Asian","userSelected":true}},{"url":"text","valueString":"Asian"}]},{"url":"http://hl7.org/fhir/us/core/StructureDefinition/us-core-ethnicity","extension":[{"url":"ombCategory","valueCoding":{"system":"urn:oid:2.16.840.1.113883.6.238","code":"2135-2","display":"Hispanic or Latino","userSelected":true}},{"url":"text","valueString":"Hispanic or Latino"}]}],"identifier":[{"type":{"coding":[{"system":"http://terminology.hl7.org/CodeSystem/v2-0203","code":"MR"}]},"system":"http://hospital.smarthealthit.org","value":"999999995"}],"name":[{"family":"Bertha","given":["Betty"]}],"gender":"female","birthDate":"1951-12-31"},"request":{"method":"PUT","url":"Patient/f38ce16a-658f-4aa0-b4a6-fac61d2e58a8"}},{"fullUrl":"https://madie.cms.gov/Encounter/Encounter-5","resource":{"resourceType":"Encounter","id":"c631c51c-a687-4c2b-b751-03bf664d8d9d","meta":{"profile":["http://hl7.org/fhir/us/qicore/StructureDefinition/qicore-encounter"]},"status":"finished","class":{"system":"http://terminology.hl7.org/CodeSystem/v3-ActCode","code":"AMB","display":"ambulatory"},"type":[{"coding":[{"system":"http://snomed.info/sct","code":"185463005","display":"Visit out of hours (procedure)"}]}],"subject":{"reference":"Patient/f38ce16a-658f-4aa0-b4a6-fac61d2e58a8"},"period":{"start":"2025-12-31T00:00:00.000Z","end":"2025-12-31T23:59:59.000Z"}},"request":{"method":"PUT","url":"Encounter/c631c51c-a687-4c2b-b751-03bf664d8d9d"}},{"fullUrl":"https://madie.cms.gov/MedicationRequest/MedicationRequest-5","resource":{"resourceType":"MedicationRequest","id":"416226e0-1304-46dd-9fed-57fe630b457b","meta":{"profile":["http://hl7.org/fhir/us/qicore/StructureDefinition/qicore-medicationrequest"]},"status":"active","intent":"order","doNotPerform":false,"medicationCodeableConcept":{"coding":[{"system":"http://www.nlm.nih.gov/research/umls/rxnorm","code":"312836","display":"rivastigmine 6 MG Oral Capsule"}]},"subject":{"reference":"Patient/f38ce16a-658f-4aa0-b4a6-fac61d2e58a8"},"authoredOn":"2025-12-30T00:00:00.000Z","requester":{"reference":"Practitioner/example"},"dispenseRequest":{"expectedSupplyDuration":{"value":90,"system":"http://unitsofmeasure.org","code":"days"}}},"request":{"method":"PUT","url":"MedicationRequest/416226e0-1304-46dd-9fed-57fe630b457b"}},{"fullUrl":"https://madie.cms.gov/Observation/Observation-5","resource":{"resourceType":"Observation","id":"3dbf5508-73cb-4ad9-afd9-99963830046c","meta":{"profile":["http://hl7.org/fhir/us/qicore/StructureDefinition/qicore-observation"]},"status":"final","category":[{"coding":[{"system":"http://terminology.hl7.org/CodeSystem/observation-category","code":"survey"}]}],"code":{"coding":[{"system":"http://hl7.org/fhir/sid/icd-10-cm","code":"R26.89","display":"Other abnormalities of gait and mobility"}]},"subject":{"reference":"Patient/f38ce16a-658f-4aa0-b4a6-fac61d2e58a8"},"effectivePeriod":{"start":"2025-01-01T00:00:00.000Z","end":"2025-01-02T00:00:00.000Z"}},"request":{"method":"PUT","url":"Observation/3dbf5508-73cb-4ad9-afd9-99963830046c"}},{"fullUrl":"https://madie.cms.gov/MeasureReport/094a8d39-4435-46df-89ef-3d31a2783c1a","resource":{"resourceType":"MeasureReport","id":"094a8d39-4435-46df-89ef-3d31a2783c1a","meta":{"profile":["http://hl7.org/fhir/us/cqfmeasures/StructureDefinition/test-case-cqfm"]},"contained":[{"resourceType":"Parameters","id":"a36b86f3-2d6d-4215-8cf9-8668cb1a8761-parameters","parameter":[{"name":"subject","valueString":"f38ce16a-658f-4aa0-b4a6-fac61d2e58a8"}]}],"extension":[{"url":"http://hl7.org/fhir/us/cqfmeasures/StructureDefinition/cqfm-inputParameters","valueReference":{"reference":"#a36b86f3-2d6d-4215-8cf9-8668cb1a8761-parameters"}},{"url":"http://hl7.org/fhir/us/cqfmeasures/StructureDefinition/cqfm-testCaseDescription","valueMarkdown":"Frailty symptom overlaps MP"}],"modifierExtension":[{"url":"http://hl7.org/fhir/us/cqfmeasures/StructureDefinition/cqfm-isTestCase","valueBoolean":true}],"status":"complete","type":"individual","measure":"https://madie.cms.gov/Measure/BreastCancerScreeningFHIR","period":{"start":"2025-01-01","end":"2025-12-31"},"group":[{"population":[{"code":{"coding":[{"system":"http://terminology.hl7.org/CodeSystem/measure-population","code":"initial-population","display":"Initial Population"}]},"count":1},{"code":{"coding":[{"system":"http://terminology.hl7.org/CodeSystem/measure-population","code":"denominator","display":"Denominator"}]},"count":1},{"code":{"coding":[{"system":"http://terminology.hl7.org/CodeSystem/measure-population","code":"denominator-exclusion","display":"Denominator Exclusion"}]},"count":1},{"code":{"coding":[{"system":"http://terminology.hl7.org/CodeSystem/measure-population","code":"numerator","display":"Numerator"}]},"count":0}]}]},"request":{"method":"PUT","url":"MeasureReport/094a8d39-4435-46df-89ef-3d31a2783c1a"}}]}