{
  "resourceType": "Bundle",
  "id": "DENEXPass-AbsenceOfCervixConditionDuringMP",
  "type": "transaction",
  "entry": [ {
    "fullUrl": "https://madie.cms.gov/Patient/dd04ce68-da5f-415e-b5e6-9f808a0edb6d",
    "resource": {
      "resourceType": "Patient",
      "id": "dd04ce68-da5f-415e-b5e6-9f808a0edb6d",
      "meta": {
        "profile": [ "http://hl7.org/fhir/us/qicore/StructureDefinition/qicore-patient" ]
      },
      "extension": [ {
        "url": "http://hl7.org/fhir/us/core/StructureDefinition/us-core-race",
        "extension": [ {
          "url": "ombCategory",
          "valueCoding": {
            "system": "urn:oid:2.16.840.1.113883.6.238",
            "code": "2028-9",
            "display": "Asian"
          }
        }, {
          "url": "text",
          "valueString": "Asian"
        } ]
      }, {
        "url": "http://hl7.org/fhir/us/core/StructureDefinition/us-core-ethnicity",
        "extension": [ {
          "url": "ombCategory",
          "valueCoding": {
            "system": "urn:oid:2.16.840.1.113883.6.238",
            "code": "2135-2",
            "display": "Hispanic or Latino"
          }
        }, {
          "url": "text",
          "valueString": "Hispanic or Latino"
        } ]
      } ],
      "identifier": [ {
        "system": "http://hospital.smarthealthit.org",
        "value": "999999995"
      } ],
      "name": [ {
        "family": "Bertha",
        "given": [ "Betty" ]
      } ],
      "gender": "female",
      "birthDate": "2001-12-31"
    },
    "request": {
      "method": "POST",
      "url": "Patient/dd04ce68-da5f-415e-b5e6-9f808a0edb6d"
    }
  }, {
    "fullUrl": "https://madie.cms.gov/Encounter/Encounter-2",
    "resource": {
      "resourceType": "Encounter",
      "id": "Encounter-2",
      "meta": {
        "profile": [ "http://hl7.org/fhir/us/qicore/StructureDefinition/qicore-encounter" ]
      },
      "status": "finished",
      "class": {
        "system": "http://terminology.hl7.org/CodeSystem/v3-ActCode",
        "code": "AMB",
        "display": "ambulatory"
      },
      "type": [ {
        "coding": [ {
          "system": "http://www.ama-assn.org/go/cpt",
          "code": "99395",
          "display": "Periodic comprehensive preventive medicine reevaluation and management of an individual including an age and gender appropriate history, examination, counseling/anticipatory guidance/risk factor reduction interventions, and the ordering of laboratory/diagnostic procedures, established patient; 18-39 years"
        } ]
      } ],
      "subject": {
        "reference": "Patient/dd04ce68-da5f-415e-b5e6-9f808a0edb6d"
      },
      "period": {
        "start": "2025-01-01T01:00:00.000Z",
        "end": "2025-01-01T01:15:00.000Z"
      }
    },
    "request": {
      "method": "POST",
      "url": "Encounter/Encounter-2"
    }
  }, {
    "fullUrl": "https://madie.cms.gov/Condition/Condition-1",
    "resource": {
      "resourceType": "Condition",
      "id": "Condition-1",
      "meta": {
        "profile": [ "http://hl7.org/fhir/us/qicore/StructureDefinition/qicore-condition" ]
      },
      "clinicalStatus": {
        "coding": [ {
          "system": "http://terminology.hl7.org/CodeSystem/condition-clinical",
          "code": "active"
        } ]
      },
      "category": [ {
        "coding": [ {
          "system": "http://terminology.hl7.org/CodeSystem/condition-category",
          "code": "problem-list-item",
          "display": "Problem List Item"
        } ]
      } ],
      "code": {
        "coding": [ {
          "system": "http://snomed.info/sct",
          "code": "37687000",
          "display": "Congenital absence of cervix (disorder)"
        } ]
      },
      "subject": {
        "reference": "Patient/dd04ce68-da5f-415e-b5e6-9f808a0edb6d"
      },
      "onsetDateTime": "2025-01-01T23:59:59.000Z"
    },
    "request": {
      "method": "POST",
      "url": "Condition/Condition-1"
    }
  }, {
    "fullUrl": "https://madie.cms.gov/MeasureReport/9050d2db-0230-4d3b-ae38-18613c8af414",
    "resource": {
      "resourceType": "MeasureReport",
      "id": "9050d2db-0230-4d3b-ae38-18613c8af414",
      "meta": {
        "profile": [ "http://hl7.org/fhir/us/cqfmeasures/StructureDefinition/test-case-cqfm" ]
      },
      "contained": [ {
        "resourceType": "Parameters",
        "id": "3905eddf-6e95-4d3a-8ca6-4f0fc713944f-parameters",
        "parameter": [ {
          "name": "subject",
          "valueString": "dd04ce68-da5f-415e-b5e6-9f808a0edb6d"
        } ]
      } ],
      "extension": [ {
        "url": "http://hl7.org/fhir/us/cqfmeasures/StructureDefinition/cqfm-inputParameters",
        "valueReference": {
          "reference": "#3905eddf-6e95-4d3a-8ca6-4f0fc713944f-parameters"
        }
      }, {
        "url": "http://hl7.org/fhir/us/cqfmeasures/StructureDefinition/cqfm-testCaseDescription",
        "valueMarkdown": "Absence of Cervix Condition - For meeting 100% coverage"
      } ],
      "modifierExtension": [ {
        "url": "http://hl7.org/fhir/us/cqfmeasures/StructureDefinition/cqfm-isTestCase",
        "valueBoolean": true
      } ],
      "status": "complete",
      "type": "individual",
      "measure": "https://madie.cms.gov/Measure/CervicalCancerScreeningFHIR",
      "period": {
        "start": "2025-01-01",
        "end": "2025-12-31"
      },
      "group": [ {
        "population": [ {
          "code": {
            "coding": [ {
              "system": "http://terminology.hl7.org/CodeSystem/measure-population",
              "code": "initial-population",
              "display": "Initial Population"
            } ]
          },
          "count": 1
        }, {
          "code": {
            "coding": [ {
              "system": "http://terminology.hl7.org/CodeSystem/measure-population",
              "code": "denominator",
              "display": "Denominator"
            } ]
          },
          "count": 1
        }, {
          "code": {
            "coding": [ {
              "system": "http://terminology.hl7.org/CodeSystem/measure-population",
              "code": "denominator-exclusion",
              "display": "Denominator Exclusion"
            } ]
          },
          "count": 1
        }, {
          "code": {
            "coding": [ {
              "system": "http://terminology.hl7.org/CodeSystem/measure-population",
              "code": "numerator",
              "display": "Numerator"
            } ]
          },
          "count": 0
        } ]
      } ],
      "evaluatedResource": [ {
        "reference": "https://madie.cms.gov/Patient/dd04ce68-da5f-415e-b5e6-9f808a0edb6d"
      }, {
        "reference": "https://madie.cms.gov/Encounter/Encounter-2"
      }, {
        "reference": "https://madie.cms.gov/Condition/Condition-1"
      } ]
    },
    "request": {
      "method": "POST",
      "url": "MeasureReport/9050d2db-0230-4d3b-ae38-18613c8af414"
    }
  } ]
}