{"resourceType":"Bundle","id":"tests-b6e3d7d2-0ce1-4aaf-a575-78dbc2402299-bundle","type":"transaction","entry":[{"fullUrl":"https://madie.cms.gov/Patient/b6e3d7d2-0ce1-4aaf-a575-78dbc2402299","resource":{"resourceType":"Patient","id":"b6e3d7d2-0ce1-4aaf-a575-78dbc2402299","meta":{"profile":["http://hl7.org/fhir/us/qicore/StructureDefinition/qicore-patient"]},"extension":[{"url":"http://hl7.org/fhir/us/core/StructureDefinition/us-core-race","extension":[{"url":"ombCategory","valueCoding":{"system":"urn:oid:2.16.840.1.113883.6.238","code":"2028-9","display":"Asian"}},{"url":"text","valueString":"Asian"}]},{"url":"http://hl7.org/fhir/us/core/StructureDefinition/us-core-ethnicity","extension":[{"url":"ombCategory","valueCoding":{"system":"urn:oid:2.16.840.1.113883.6.238","code":"2135-2","display":"Hispanic or Latino"}},{"url":"text","valueString":"Hispanic or Latino"}]}],"identifier":[{"system":"http://hospital.smarthealthit.org","value":"999999995"}],"name":[{"family":"Bertha","given":["Betty"]}],"gender":"female","birthDate":"1960-01-01"},"request":{"method":"PUT","url":"Patient/b6e3d7d2-0ce1-4aaf-a575-78dbc2402299"}},{"fullUrl":"https://madie.cms.gov/Encounter/Encounter-12","resource":{"resourceType":"Encounter","id":"4bf57bae-f2b3-4c3d-ae20-53596a3bd238","meta":{"profile":["http://hl7.org/fhir/us/qicore/StructureDefinition/qicore-encounter"]},"status":"finished","class":{"system":"http://terminology.hl7.org/CodeSystem/v3-ActCode","code":"AMB","display":"ambulatory"},"type":[{"coding":[{"system":"http://snomed.info/sct","code":"78831002","display":"Comprehensive eye examination (procedure)"}]}],"subject":{"reference":"Patient/b6e3d7d2-0ce1-4aaf-a575-78dbc2402299"},"period":{"start":"2025-01-01T00:00:00.000Z","end":"2025-01-01T00:15:00.000Z"}},"request":{"method":"PUT","url":"Encounter/4bf57bae-f2b3-4c3d-ae20-53596a3bd238"}},{"fullUrl":"https://madie.cms.gov/Observation/Observation-3","resource":{"resourceType":"Observation","id":"46acfce3-d2b2-4071-b88e-d28db6ba7dc0","meta":{"profile":["http://hl7.org/fhir/us/qicore/StructureDefinition/qicore-observation"]},"status":"final","category":[{"coding":[{"system":"http://terminology.hl7.org/CodeSystem/observation-category","code":"survey"}]}],"code":{"coding":[{"system":"http://loinc.org","code":"52552-7","display":"Falls in the past year"}]},"subject":{"reference":"Patient/b6e3d7d2-0ce1-4aaf-a575-78dbc2402299"},"effectivePeriod":{"start":"2024-12-31T23:59:00.000Z","end":"2024-12-31T23:59:59.000Z"},"valueCodeableConcept":{"coding":[{"system":"http://snomed.info/sct","code":"373066001","display":"Yes (qualifier value)"}]}},"request":{"method":"PUT","url":"Observation/46acfce3-d2b2-4071-b88e-d28db6ba7dc0"}},{"fullUrl":"https://madie.cms.gov/MeasureReport/c4c0a8fe-2549-4c49-a050-adfcf6b8a864","resource":{"resourceType":"MeasureReport","id":"c4c0a8fe-2549-4c49-a050-adfcf6b8a864","meta":{"profile":["http://hl7.org/fhir/us/cqfmeasures/StructureDefinition/test-case-cqfm"]},"contained":[{"resourceType":"Parameters","id":"b46c0338-4457-46da-b019-8998a8e0dc42-parameters","parameter":[{"name":"subject","valueString":"b6e3d7d2-0ce1-4aaf-a575-78dbc2402299"}]}],"extension":[{"url":"http://hl7.org/fhir/us/cqfmeasures/StructureDefinition/cqfm-inputParameters","valueReference":{"reference":"#b46c0338-4457-46da-b019-8998a8e0dc42-parameters"}},{"url":"http://hl7.org/fhir/us/cqfmeasures/StructureDefinition/cqfm-testCaseDescription","valueMarkdown":"Future fall risk screening ends before MP (edge case)."}],"modifierExtension":[{"url":"http://hl7.org/fhir/us/cqfmeasures/StructureDefinition/cqfm-isTestCase","valueBoolean":true}],"status":"complete","type":"individual","measure":"https://madie.cms.gov/Measure/FallsScreeningForFutureFallRiskFHIR","period":{"start":"2025-01-01","end":"2025-12-31"},"group":[{"population":[{"code":{"coding":[{"system":"http://terminology.hl7.org/CodeSystem/measure-population","code":"initial-population","display":"Initial Population"}]},"count":1},{"code":{"coding":[{"system":"http://terminology.hl7.org/CodeSystem/measure-population","code":"denominator","display":"Denominator"}]},"count":1},{"code":{"coding":[{"system":"http://terminology.hl7.org/CodeSystem/measure-population","code":"denominator-exclusion","display":"Denominator Exclusion"}]},"count":0},{"code":{"coding":[{"system":"http://terminology.hl7.org/CodeSystem/measure-population","code":"numerator","display":"Numerator"}]},"count":0}]}]},"request":{"method":"PUT","url":"MeasureReport/c4c0a8fe-2549-4c49-a050-adfcf6b8a864"}}]}