{
  "resourceType": "Bundle",
  "id": "64da783e2ac64e40260ff323",
  "type": "transaction",
  "entry": [ {
    "fullUrl": "https://madie.cms.gov/Patient/6bf6194c-6151-4cbe-8860-52d5566863f3",
    "resource": {
      "resourceType": "Patient",
      "id": "6bf6194c-6151-4cbe-8860-52d5566863f3",
      "meta": {
        "profile": [ "http://hl7.org/fhir/us/qicore/StructureDefinition/qicore-patient" ]
      },
      "extension": [ {
        "url": "http://hl7.org/fhir/us/core/StructureDefinition/us-core-race",
        "extension": [ {
          "url": "ombCategory",
          "valueCoding": {
            "system": "urn:oid:2.16.840.1.113883.6.238",
            "code": "1002-5",
            "display": "American Indian or Alaska Native",
            "userSelected": true
          }
        }, {
          "url": "text",
          "valueString": "American Indian or Alaska Native"
        } ]
      }, {
        "url": "http://hl7.org/fhir/us/core/StructureDefinition/us-core-ethnicity",
        "extension": [ {
          "url": "ombCategory",
          "valueCoding": {
            "system": "urn:oid:2.16.840.1.113883.6.238",
            "code": "2135-2",
            "display": "Hispanic or Latino",
            "userSelected": true
          }
        }, {
          "url": "text",
          "valueString": "Hispanic or Latino"
        } ]
      } ],
      "identifier": [ {
        "type": {
          "coding": [ {
            "system": "http://terminology.hl7.org/CodeSystem/v2-0203",
            "code": "MR"
          } ]
        },
        "system": "https://bonnie-fhir.healthit.gov/",
        "value": "64da783e2ac64e40260ff323"
      } ],
      "name": [ {
        "family": "DENEXPass",
        "given": [ "EDInptPalliativeCare" ]
      } ],
      "gender": "male",
      "birthDate": "2004-02-01"
    },
    "request": {
      "method": "POST",
      "url": "Patient/6bf6194c-6151-4cbe-8860-52d5566863f3"
    }
  }, {
    "fullUrl": "https://madie.cms.gov/Encounter/encounter-inpatient-1c2a",
    "resource": {
      "resourceType": "Encounter",
      "id": "encounter-inpatient-1c2a",
      "meta": {
        "profile": [ "http://hl7.org/fhir/us/qicore/StructureDefinition/qicore-encounter" ]
      },
      "status": "finished",
      "class": {
        "system": "http://terminology.hl7.org/CodeSystem/v3-ActCode",
        "code": "AMB",
        "display": "ambulatory"
      },
      "type": [ {
        "coding": [ {
          "system": "http://snomed.info/sct",
          "version": "2022-03",
          "code": "183452005",
          "display": "Emergency hospital admission (procedure)",
          "userSelected": true
        } ]
      } ],
      "subject": {
        "reference": "Patient/64da783e2ac64e40260ff323"
      },
      "period": {
        "start": "2025-12-28T08:00:00.000+00:00",
        "end": "2025-12-31T23:59:00.000+00:00"
      }
    },
    "request": {
      "method": "POST",
      "url": "Encounter/encounter-inpatient-1c2a"
    }
  }, {
    "fullUrl": "https://madie.cms.gov/MedicationRequest/schedule-ii-iii-opioid-medications-1c2b",
    "resource": {
      "resourceType": "MedicationRequest",
      "id": "schedule-ii-iii-opioid-medications-1c2b",
      "meta": {
        "profile": [ "http://hl7.org/fhir/us/qicore/StructureDefinition/qicore-medicationrequest" ]
      },
      "status": "completed",
      "intent": "order",
      "category": [ {
        "coding": [ {
          "system": "http://terminology.hl7.org/CodeSystem/medicationrequest-category",
          "code": "discharge",
          "display": "Discharge",
          "userSelected": true
        } ]
      } ],
      "medicationCodeableConcept": {
        "coding": [ {
          "system": "http://www.nlm.nih.gov/research/umls/rxnorm",
          "code": "1298088",
          "display": "flurazepam hydrochloride 15 MG Oral Capsule",
          "userSelected": true
        } ]
      },
      "subject": {
        "reference": "Patient/64da783e2ac64e40260ff323"
      },
      "authoredOn": "2025-12-31T12:58:00.000+00:00",
      "requester": {
        "reference": "Practitioner/example"
      }
    },
    "request": {
      "method": "POST",
      "url": "MedicationRequest/schedule-ii-iii-opioid-medications-1c2b"
    }
  }, {
    "fullUrl": "https://madie.cms.gov/Procedure/palliative-or-hospice-care-1c2c",
    "resource": {
      "resourceType": "Procedure",
      "id": "palliative-or-hospice-care-1c2c",
      "meta": {
        "profile": [ "http://hl7.org/fhir/us/qicore/StructureDefinition/qicore-procedure" ]
      },
      "extension": [ {
        "url": "http://hl7.org/fhir/us/qicore/StructureDefinition/qicore-recorded",
        "valueDateTime": "2025-12-29T09:00:00.000+00:00"
      } ],
      "status": "completed",
      "code": {
        "coding": [ {
          "system": "http://snomed.info/sct",
          "version": "2022-03",
          "code": "103735009",
          "display": "Palliative care (regime/therapy)",
          "userSelected": true
        } ]
      },
      "subject": {
        "reference": "Patient/64da783e2ac64e40260ff323"
      },
      "performedDateTime": "2025-12-29T10:00:00.000+00:00"
    },
    "request": {
      "method": "POST",
      "url": "Procedure/palliative-or-hospice-care-1c2c"
    }
  }, {
    "fullUrl": "https://madie.cms.gov/ServiceRequest/palliative-or-hospice-care-f324",
    "resource": {
      "resourceType": "ServiceRequest",
      "id": "palliative-or-hospice-care-f324",
      "meta": {
        "profile": [ "http://hl7.org/fhir/us/qicore/StructureDefinition/qicore-servicerequest" ]
      },
      "status": "active",
      "intent": "order",
      "code": {
        "coding": [ {
          "system": "http://snomed.info/sct",
          "version": "2022-03",
          "code": "103735009",
          "display": "Palliative care (regime/therapy)",
          "userSelected": true
        } ]
      },
      "subject": {
        "reference": "Patient/64da783e2ac64e40260ff323"
      },
      "authoredOn": "2025-12-28T01:00:00.000+00:00"
    },
    "request": {
      "method": "POST",
      "url": "ServiceRequest/palliative-or-hospice-care-f324"
    }
  }, {
    "fullUrl": "https://madie.cms.gov/Encounter/emergency-department-visit-f325",
    "resource": {
      "resourceType": "Encounter",
      "id": "emergency-department-visit-f325",
      "meta": {
        "profile": [ "http://hl7.org/fhir/us/qicore/StructureDefinition/qicore-encounter" ]
      },
      "status": "finished",
      "class": {
        "system": "http://terminology.hl7.org/CodeSystem/v3-ActCode",
        "code": "AMB",
        "display": "ambulatory"
      },
      "type": [ {
        "coding": [ {
          "system": "http://snomed.info/sct",
          "version": "2022-03",
          "code": "4525004",
          "display": "Emergency department patient visit (procedure)",
          "userSelected": true
        } ]
      } ],
      "subject": {
        "reference": "Patient/64da783e2ac64e40260ff323"
      },
      "period": {
        "start": "2025-12-28T04:00:00.000+00:00",
        "end": "2025-12-28T08:00:00.000+00:00"
      }
    },
    "request": {
      "method": "POST",
      "url": "Encounter/emergency-department-visit-f325"
    }
  }, {
    "fullUrl": "https://madie.cms.gov/Coverage/1",
    "resource": {
      "resourceType": "Coverage",
      "id": "1",
      "meta": {
        "profile": [ "http://hl7.org/fhir/us/qicore/StructureDefinition/qicore-coverage" ]
      },
      "status": "active",
      "beneficiary": {
        "reference": "Patient/64da783e2ac64e40260ff323"
      },
      "payor": [ {
        "reference": "Organization/123456"
      } ]
    },
    "request": {
      "method": "POST",
      "url": "Coverage/1"
    }
  }, {
    "fullUrl": "https://madie.cms.gov/Organization/123456",
    "resource": {
      "resourceType": "Organization",
      "id": "123456",
      "meta": {
        "profile": [ "http://hl7.org/fhir/us/qicore/StructureDefinition/qicore-organization" ]
      },
      "identifier": [ {
        "use": "temp",
        "system": "urn:oid:2.16.840.1.113883.4.4",
        "value": "21-3259825"
      } ],
      "active": true,
      "type": [ {
        "coding": [ {
          "system": "http://terminology.hl7.org/CodeSystem/organization-type",
          "code": "pay",
          "display": "Payer"
        } ]
      } ],
      "name": "Blue Cross Blue Shield of Texas",
      "telecom": [ {
        "system": "phone",
        "value": "(+1) 972-766-6900"
      } ],
      "address": [ {
        "use": "billing",
        "type": "postal",
        "line": [ "P.O. Box 660044" ],
        "city": "Dallas",
        "state": "TX",
        "postalCode": "75266-0044",
        "country": "USA"
      } ]
    },
    "request": {
      "method": "POST",
      "url": "Organization/123456"
    }
  }, {
    "fullUrl": "https://madie.cms.gov/Practitioner/practitioner-123456",
    "resource": {
      "resourceType": "Practitioner",
      "id": "practitioner-123456",
      "meta": {
        "profile": [ "http://hl7.org/fhir/us/qicore/StructureDefinition/qicore-practitioner" ]
      },
      "identifier": [ {
        "system": "http://hl7.org/fhir/sid/us-npi",
        "value": "123456"
      } ],
      "name": [ {
        "family": "Evil",
        "prefix": [ "Dr" ]
      } ]
    },
    "request": {
      "method": "POST",
      "url": "Practitioner/practitioner-123456"
    }
  }, {
    "fullUrl": "https://madie.cms.gov/MeasureReport/1d2c40df-a8f4-445d-8577-0d4ff3d46226",
    "resource": {
      "resourceType": "MeasureReport",
      "id": "1d2c40df-a8f4-445d-8577-0d4ff3d46226",
      "meta": {
        "profile": [ "http://hl7.org/fhir/us/cqfmeasures/StructureDefinition/test-case-cqfm" ]
      },
      "contained": [ {
        "resourceType": "Parameters",
        "id": "7bdab9c1-4fc9-47fb-ad72-13edfff5f652-parameters",
        "parameter": [ {
          "name": "subject",
          "valueString": "6bf6194c-6151-4cbe-8860-52d5566863f3"
        } ]
      } ],
      "extension": [ {
        "url": "http://hl7.org/fhir/us/cqfmeasures/StructureDefinition/cqfm-inputParameters",
        "valueReference": {
          "reference": "#7bdab9c1-4fc9-47fb-ad72-13edfff5f652-parameters"
        }
      }, {
        "url": "http://hl7.org/fhir/us/cqfmeasures/StructureDefinition/cqfm-testCaseDescription",
        "valueMarkdown": "ED enc 12/28 0400-0800; inpt enc., 12/28 0800- 12/31  2359; benzo order at discharge, palliative care order 12/28 and palliative care performed 12/29"
      } ],
      "modifierExtension": [ {
        "url": "http://hl7.org/fhir/us/cqfmeasures/StructureDefinition/cqfm-isTestCase",
        "valueBoolean": true
      } ],
      "status": "complete",
      "type": "individual",
      "measure": "https://madie.cms.gov/Measure/SafeUseofOpioidsConcurrentPrescribingFHIR",
      "period": {
        "start": "2025-01-01",
        "end": "2025-12-31"
      },
      "group": [ {
        "population": [ {
          "code": {
            "coding": [ {
              "system": "http://terminology.hl7.org/CodeSystem/measure-population",
              "code": "initial-population",
              "display": "Initial Population"
            } ]
          },
          "count": 1
        }, {
          "code": {
            "coding": [ {
              "system": "http://terminology.hl7.org/CodeSystem/measure-population",
              "code": "denominator",
              "display": "Denominator"
            } ]
          },
          "count": 1
        }, {
          "code": {
            "coding": [ {
              "system": "http://terminology.hl7.org/CodeSystem/measure-population",
              "code": "denominator-exclusion",
              "display": "Denominator Exclusion"
            } ]
          },
          "count": 1
        }, {
          "code": {
            "coding": [ {
              "system": "http://terminology.hl7.org/CodeSystem/measure-population",
              "code": "numerator",
              "display": "Numerator"
            } ]
          },
          "count": 0
        } ]
      } ],
      "evaluatedResource": [ {
        "reference": "https://madie.cms.gov/Patient/6bf6194c-6151-4cbe-8860-52d5566863f3"
      }, {
        "reference": "https://madie.cms.gov/Encounter/encounter-inpatient-1c2a"
      }, {
        "reference": "https://madie.cms.gov/MedicationRequest/schedule-ii-iii-opioid-medications-1c2b"
      }, {
        "reference": "https://madie.cms.gov/Procedure/palliative-or-hospice-care-1c2c"
      }, {
        "reference": "https://madie.cms.gov/ServiceRequest/palliative-or-hospice-care-f324"
      }, {
        "reference": "https://madie.cms.gov/Encounter/emergency-department-visit-f325"
      }, {
        "reference": "https://madie.cms.gov/Coverage/1"
      }, {
        "reference": "https://madie.cms.gov/Organization/123456"
      }, {
        "reference": "https://madie.cms.gov/Practitioner/practitioner-123456"
      } ]
    },
    "request": {
      "method": "POST",
      "url": "MeasureReport/1d2c40df-a8f4-445d-8577-0d4ff3d46226"
    }
  } ]
}