{
  "resourceType": "Bundle",
  "id": "DENEXPass-RightAndLeftMastDxDec31OfMP",
  "type": "transaction",
  "entry": [ {
    "fullUrl": "https://madie.cms.gov/Patient/4827b310-b012-4b0e-8a7d-572103c65892",
    "resource": {
      "resourceType": "Patient",
      "id": "4827b310-b012-4b0e-8a7d-572103c65892",
      "meta": {
        "profile": [ "http://hl7.org/fhir/us/qicore/StructureDefinition/qicore-patient" ]
      },
      "extension": [ {
        "url": "http://hl7.org/fhir/us/core/StructureDefinition/us-core-race",
        "extension": [ {
          "url": "ombCategory",
          "valueCoding": {
            "system": "urn:oid:2.16.840.1.113883.6.238",
            "code": "2028-9",
            "display": "Asian"
          }
        }, {
          "url": "text",
          "valueString": "Asian"
        } ]
      }, {
        "url": "http://hl7.org/fhir/us/core/StructureDefinition/us-core-ethnicity",
        "extension": [ {
          "url": "ombCategory",
          "valueCoding": {
            "system": "urn:oid:2.16.840.1.113883.6.238",
            "code": "2135-2",
            "display": "Hispanic or Latino"
          }
        }, {
          "url": "text",
          "valueString": "Hispanic or Latino"
        } ]
      } ],
      "identifier": [ {
        "system": "http://hospital.smarthealthit.org",
        "value": "999999995"
      } ],
      "name": [ {
        "family": "Bertha",
        "given": [ "Betty" ]
      } ],
      "gender": "female",
      "birthDate": "1973-12-31"
    },
    "request": {
      "method": "POST",
      "url": "Patient/4827b310-b012-4b0e-8a7d-572103c65892"
    }
  }, {
    "fullUrl": "https://madie.cms.gov/Encounter/Encounter-9",
    "resource": {
      "resourceType": "Encounter",
      "id": "Encounter-9",
      "meta": {
        "profile": [ "http://hl7.org/fhir/us/qicore/StructureDefinition/qicore-encounter" ]
      },
      "status": "finished",
      "class": {
        "system": "http://terminology.hl7.org/CodeSystem/v3-ActCode",
        "code": "AMB",
        "display": "ambulatory"
      },
      "type": [ {
        "coding": [ {
          "system": "http://snomed.info/sct",
          "code": "185463005",
          "display": "Visit out of hours (procedure)"
        } ]
      } ],
      "subject": {
        "reference": "Patient/4827b310-b012-4b0e-8a7d-572103c65892"
      },
      "period": {
        "start": "2025-01-01T00:00:00.000Z",
        "end": "2025-01-01T00:00:00.000Z"
      }
    },
    "request": {
      "method": "POST",
      "url": "Encounter/Encounter-9"
    }
  }, {
    "fullUrl": "https://madie.cms.gov/Condition/Condition-9",
    "resource": {
      "resourceType": "Condition",
      "id": "Condition-9",
      "meta": {
        "profile": [ "http://hl7.org/fhir/us/qicore/StructureDefinition/qicore-condition" ]
      },
      "clinicalStatus": {
        "coding": [ {
          "system": "http://terminology.hl7.org/CodeSystem/condition-clinical",
          "code": "active"
        } ]
      },
      "category": [ {
        "coding": [ {
          "system": "http://terminology.hl7.org/CodeSystem/condition-category",
          "code": "problem-list-item",
          "display": "Problem List Item"
        } ]
      } ],
      "code": {
        "coding": [ {
          "system": "http://snomed.info/sct",
          "code": "137681000119108",
          "display": "History of prophylactic mastectomy of right breast (situation)"
        } ]
      },
      "subject": {
        "reference": "Patient/4827b310-b012-4b0e-8a7d-572103c65892"
      },
      "onsetDateTime": "2025-12-31T23:59:59.000Z"
    },
    "request": {
      "method": "POST",
      "url": "Condition/Condition-9"
    }
  }, {
    "fullUrl": "https://madie.cms.gov/Condition/Condition-9.1",
    "resource": {
      "resourceType": "Condition",
      "id": "Condition-9.1",
      "meta": {
        "profile": [ "http://hl7.org/fhir/us/qicore/StructureDefinition/qicore-condition" ]
      },
      "clinicalStatus": {
        "coding": [ {
          "system": "http://terminology.hl7.org/CodeSystem/condition-clinical",
          "code": "active"
        } ]
      },
      "category": [ {
        "coding": [ {
          "system": "http://terminology.hl7.org/CodeSystem/condition-category",
          "code": "problem-list-item",
          "display": "Problem List Item"
        } ]
      } ],
      "code": {
        "coding": [ {
          "system": "http://snomed.info/sct",
          "code": "137671000119105",
          "display": "History of prophylactic mastectomy of left breast (situation)"
        } ]
      },
      "subject": {
        "reference": "Patient/4827b310-b012-4b0e-8a7d-572103c65892"
      },
      "onsetDateTime": "2025-12-31T23:59:59.000Z"
    },
    "request": {
      "method": "POST",
      "url": "Condition/Condition-9.1"
    }
  }, {
    "fullUrl": "https://madie.cms.gov/MeasureReport/ce16406c-b938-4d18-aadf-1f2970fba28b",
    "resource": {
      "resourceType": "MeasureReport",
      "id": "ce16406c-b938-4d18-aadf-1f2970fba28b",
      "meta": {
        "profile": [ "http://hl7.org/fhir/us/cqfmeasures/StructureDefinition/test-case-cqfm" ]
      },
      "contained": [ {
        "resourceType": "Parameters",
        "id": "5f8d5a93-9cbb-45c2-bfb6-da1979e9d5ae-parameters",
        "parameter": [ {
          "name": "subject",
          "valueString": "4827b310-b012-4b0e-8a7d-572103c65892"
        } ]
      } ],
      "extension": [ {
        "url": "http://hl7.org/fhir/us/cqfmeasures/StructureDefinition/cqfm-inputParameters",
        "valueReference": {
          "reference": "#5f8d5a93-9cbb-45c2-bfb6-da1979e9d5ae-parameters"
        }
      }, {
        "url": "http://hl7.org/fhir/us/cqfmeasures/StructureDefinition/cqfm-testCaseDescription",
        "valueMarkdown": "Patient 52yo w/ an Office Visit  Encounter 1/1 of the MP & a Left and  Right Mastectomy Dx that both start on 12/31 of the MP."
      } ],
      "modifierExtension": [ {
        "url": "http://hl7.org/fhir/us/cqfmeasures/StructureDefinition/cqfm-isTestCase",
        "valueBoolean": true
      } ],
      "status": "complete",
      "type": "individual",
      "measure": "https://madie.cms.gov/Measure/BreastCancerScreeningFHIR",
      "period": {
        "start": "2025-01-01",
        "end": "2025-12-31"
      },
      "group": [ {
        "population": [ {
          "code": {
            "coding": [ {
              "system": "http://terminology.hl7.org/CodeSystem/measure-population",
              "code": "initial-population",
              "display": "Initial Population"
            } ]
          },
          "count": 1
        }, {
          "code": {
            "coding": [ {
              "system": "http://terminology.hl7.org/CodeSystem/measure-population",
              "code": "denominator",
              "display": "Denominator"
            } ]
          },
          "count": 1
        }, {
          "code": {
            "coding": [ {
              "system": "http://terminology.hl7.org/CodeSystem/measure-population",
              "code": "denominator-exclusion",
              "display": "Denominator Exclusion"
            } ]
          },
          "count": 1
        }, {
          "code": {
            "coding": [ {
              "system": "http://terminology.hl7.org/CodeSystem/measure-population",
              "code": "numerator",
              "display": "Numerator"
            } ]
          },
          "count": 0
        } ]
      } ],
      "evaluatedResource": [ {
        "reference": "https://madie.cms.gov/Patient/4827b310-b012-4b0e-8a7d-572103c65892"
      }, {
        "reference": "https://madie.cms.gov/Encounter/Encounter-9"
      }, {
        "reference": "https://madie.cms.gov/Condition/Condition-9"
      }, {
        "reference": "https://madie.cms.gov/Condition/Condition-9.1"
      } ]
    },
    "request": {
      "method": "POST",
      "url": "MeasureReport/ce16406c-b938-4d18-aadf-1f2970fba28b"
    }
  } ]
}