{
  "resourceType": "Bundle",
  "id": "64270cbea7ffa60ebe02488f",
  "type": "transaction",
  "entry": [ {
    "fullUrl": "https://madie.cms.gov/Patient/cddd9a1a-8c24-49d1-ae7d-8db212d90780",
    "resource": {
      "resourceType": "Patient",
      "id": "cddd9a1a-8c24-49d1-ae7d-8db212d90780",
      "meta": {
        "profile": [ "http://hl7.org/fhir/us/qicore/StructureDefinition/qicore-patient" ]
      },
      "extension": [ {
        "url": "http://hl7.org/fhir/us/core/StructureDefinition/us-core-race",
        "extension": [ {
          "url": "ombCategory",
          "valueCoding": {
            "system": "urn:oid:2.16.840.1.113883.6.238",
            "code": "2028-9",
            "display": "Asian",
            "userSelected": true
          }
        }, {
          "url": "text",
          "valueString": "Asian"
        } ]
      }, {
        "url": "http://hl7.org/fhir/us/core/StructureDefinition/us-core-ethnicity",
        "extension": [ {
          "url": "ombCategory",
          "valueCoding": {
            "system": "urn:oid:2.16.840.1.113883.6.238",
            "code": "2135-2",
            "display": "Hispanic or Latino",
            "userSelected": true
          }
        }, {
          "url": "text",
          "valueString": "Hispanic or Latino"
        } ]
      } ],
      "identifier": [ {
        "type": {
          "coding": [ {
            "system": "http://terminology.hl7.org/CodeSystem/v2-0203",
            "code": "MR"
          } ]
        },
        "system": "https://goodhealth.healthit.gov/",
        "value": "64270cbea7ffa60ebe02488f"
      } ],
      "name": [ {
        "family": "IPFail",
        "given": [ "DementiaDxAbated" ]
      } ],
      "gender": "male",
      "birthDate": "1968-03-02"
    },
    "request": {
      "method": "POST",
      "url": "Patient/cddd9a1a-8c24-49d1-ae7d-8db212d90780"
    }
  }, {
    "fullUrl": "https://madie.cms.gov/Condition/2300003203",
    "resource": {
      "resourceType": "Condition",
      "id": "2300003203",
      "meta": {
        "profile": [ "http://hl7.org/fhir/us/qicore/StructureDefinition/qicore-condition" ]
      },
      "clinicalStatus": {
        "coding": [ {
          "system": "http://terminology.hl7.org/CodeSystem/condition-clinical",
          "code": "inactive",
          "display": "Inactive",
          "userSelected": true
        } ]
      },
      "verificationStatus": {
        "coding": [ {
          "system": "http://terminology.hl7.org/CodeSystem/condition-ver-status",
          "code": "confirmed",
          "display": "Confirmed",
          "userSelected": true
        } ]
      },
      "category": [ {
        "coding": [ {
          "system": "http://terminology.hl7.org/CodeSystem/condition-category",
          "code": "encounter-diagnosis",
          "display": "Encounter Diagnosis",
          "userSelected": true
        } ]
      } ],
      "code": {
        "coding": [ {
          "system": "http://snomed.info/sct",
          "version": "http://snomed.info/sct/731000124108/version/20230301",
          "code": "111480006",
          "display": "Psychoactive substance-induced organic dementia (disorder)"
        } ]
      },
      "subject": {
        "reference": "Patient/cddd9a1a-8c24-49d1-ae7d-8db212d90780"
      },
      "onsetPeriod": {
        "start": "2021-07-01T08:00:00.000+00:00"
      }
    },
    "request": {
      "method": "POST",
      "url": "Condition/2300003203"
    }
  }, {
    "fullUrl": "https://madie.cms.gov/Encounter/2300003204",
    "resource": {
      "resourceType": "Encounter",
      "id": "2300003204",
      "meta": {
        "profile": [ "http://hl7.org/fhir/us/qicore/StructureDefinition/qicore-encounter" ]
      },
      "status": "finished",
      "class": {
        "system": "http://terminology.hl7.org/CodeSystem/v3-ActCode",
        "code": "AMB",
        "display": "ambulatory",
        "userSelected": true
      },
      "type": [ {
        "coding": [ {
          "system": "http://www.ama-assn.org/go/cpt",
          "version": "2023",
          "code": "99212",
          "userSelected": true
        } ]
      } ],
      "subject": {
        "reference": "Patient/cddd9a1a-8c24-49d1-ae7d-8db212d90780"
      },
      "period": {
        "start": "2025-03-31T08:00:00.000+00:00",
        "end": "2025-03-31T08:35:00.000+00:00"
      }
    },
    "request": {
      "method": "POST",
      "url": "Encounter/2300003204"
    }
  }, {
    "fullUrl": "https://madie.cms.gov/Encounter/23000032017",
    "resource": {
      "resourceType": "Encounter",
      "id": "23000032017",
      "meta": {
        "profile": [ "http://hl7.org/fhir/us/qicore/StructureDefinition/qicore-encounter" ]
      },
      "status": "finished",
      "class": {
        "system": "http://terminology.hl7.org/CodeSystem/v3-ActCode",
        "code": "AMB",
        "display": "ambulatory",
        "userSelected": true
      },
      "type": [ {
        "coding": [ {
          "system": "http://snomed.info/sct",
          "version": "http://snomed.info/sct/731000124108/version/20230301",
          "code": "270427003",
          "display": "Patient-initiated encounter (procedure)",
          "userSelected": true
        } ]
      } ],
      "subject": {
        "reference": "Patient/cddd9a1a-8c24-49d1-ae7d-8db212d90780"
      },
      "period": {
        "start": "2025-08-31T08:00:00.000+00:00",
        "end": "2025-08-31T08:35:00.000+00:00"
      }
    },
    "request": {
      "method": "POST",
      "url": "Encounter/23000032017"
    }
  }, {
    "fullUrl": "https://madie.cms.gov/MeasureReport/e96914c9-d595-471d-a795-9c4700f059bf",
    "resource": {
      "resourceType": "MeasureReport",
      "id": "e96914c9-d595-471d-a795-9c4700f059bf",
      "meta": {
        "profile": [ "http://hl7.org/fhir/us/cqfmeasures/StructureDefinition/test-case-cqfm" ]
      },
      "contained": [ {
        "resourceType": "Parameters",
        "id": "815ad5b4-64ac-4b83-b92a-bb1f630967a4-parameters",
        "parameter": [ {
          "name": "subject",
          "valueString": "cddd9a1a-8c24-49d1-ae7d-8db212d90780"
        } ]
      } ],
      "extension": [ {
        "url": "http://hl7.org/fhir/us/cqfmeasures/StructureDefinition/cqfm-inputParameters",
        "valueReference": {
          "reference": "#815ad5b4-64ac-4b83-b92a-bb1f630967a4-parameters"
        }
      }, {
        "url": "http://hl7.org/fhir/us/cqfmeasures/StructureDefinition/cqfm-testCaseDescription",
        "valueMarkdown": "Patient has 2 qualifying encounters in MP and a Dementia Dx which has inactive Clinical status "
      } ],
      "modifierExtension": [ {
        "url": "http://hl7.org/fhir/us/cqfmeasures/StructureDefinition/cqfm-isTestCase",
        "valueBoolean": true
      } ],
      "status": "complete",
      "type": "individual",
      "measure": "https://madie.cms.gov/Measure/DementiaCognitiveAssessmentFHIR",
      "period": {
        "start": "2025-01-01",
        "end": "2025-12-31"
      },
      "group": [ {
        "population": [ {
          "code": {
            "coding": [ {
              "system": "http://terminology.hl7.org/CodeSystem/measure-population",
              "code": "initial-population",
              "display": "Initial Population"
            } ]
          },
          "count": 0
        }, {
          "code": {
            "coding": [ {
              "system": "http://terminology.hl7.org/CodeSystem/measure-population",
              "code": "denominator",
              "display": "Denominator"
            } ]
          },
          "count": 0
        }, {
          "code": {
            "coding": [ {
              "system": "http://terminology.hl7.org/CodeSystem/measure-population",
              "code": "numerator",
              "display": "Numerator"
            } ]
          },
          "count": 0
        }, {
          "code": {
            "coding": [ {
              "system": "http://terminology.hl7.org/CodeSystem/measure-population",
              "code": "denominator-exception",
              "display": "Denominator Exception"
            } ]
          },
          "count": 0
        } ]
      } ],
      "evaluatedResource": [ {
        "reference": "Patient/cddd9a1a-8c24-49d1-ae7d-8db212d90780"
      }, {
        "reference": "Condition/2300003203"
      }, {
        "reference": "Encounter/2300003204"
      }, {
        "reference": "Encounter/23000032017"
      } ]
    },
    "request": {
      "method": "POST",
      "url": "MeasureReport/e96914c9-d595-471d-a795-9c4700f059bf"
    }
  } ]
}