{
  "resourceType": "Bundle",
  "id": "62c880ec0111a60120dc2201",
  "type": "transaction",
  "entry": [ {
    "fullUrl": "https://madie.cms.gov/Patient/be20e6d8-f2f2-49d9-abc1-39e93ba36a1c",
    "resource": {
      "resourceType": "Patient",
      "id": "be20e6d8-f2f2-49d9-abc1-39e93ba36a1c",
      "meta": {
        "profile": [ "http://hl7.org/fhir/us/qicore/StructureDefinition/qicore-patient" ]
      },
      "text": {
        "status": "generated",
        "div": "<div xmlns=\"http://www.w3.org/1999/xhtml\"><div class=\"hapiHeaderText\">OVEncAndChemoAfterMP<b>IPPFAILPOP1</b></div><table class=\"hapiPropertyTable\"><tbody><tr><td>Identifier</td><td>ac1da6e0409af00bfb044b9882b4de26</td></tr><tr><td>Date of birth</td><td><span>12 March 1981</span></td></tr></tbody></table></div>"
      },
      "extension": [ {
        "url": "http://hl7.org/fhir/us/core/StructureDefinition/us-core-race",
        "extension": [ {
          "url": "ombCategory",
          "valueCoding": {
            "system": "urn:oid:2.16.840.1.113883.6.238",
            "code": "1002-5",
            "display": "American Indian or Alaska Native",
            "userSelected": true
          }
        }, {
          "url": "text",
          "valueString": "American Indian or Alaska Native"
        } ]
      }, {
        "url": "http://hl7.org/fhir/us/core/StructureDefinition/us-core-ethnicity",
        "extension": [ {
          "url": "ombCategory",
          "valueCoding": {
            "system": "urn:oid:2.16.840.1.113883.6.238",
            "code": "2135-2",
            "display": "Hispanic or Latino",
            "userSelected": true
          }
        }, {
          "url": "text",
          "valueString": "Hispanic or Latino"
        } ]
      } ],
      "identifier": [ {
        "type": {
          "coding": [ {
            "system": "http://terminology.hl7.org/CodeSystem/v2-0203",
            "code": "MR"
          } ]
        },
        "system": "https://bonnie-fhir.healthit.gov/",
        "value": "62c880ec0111a60120dc2201"
      } ],
      "active": true,
      "name": [ {
        "use": "usual",
        "family": "IPPFailPop1",
        "given": [ "EncAfterMP" ]
      } ],
      "gender": "female",
      "birthDate": "1981-03-12"
    },
    "request": {
      "method": "POST",
      "url": "Patient/be20e6d8-f2f2-49d9-abc1-39e93ba36a1c"
    }
  }, {
    "fullUrl": "https://madie.cms.gov/Condition/5ca52604b8484613a555a8ee",
    "resource": {
      "resourceType": "Condition",
      "id": "5ca52604b8484613a555a8ee",
      "meta": {
        "profile": [ "http://hl7.org/fhir/us/qicore/StructureDefinition/qicore-condition" ]
      },
      "clinicalStatus": {
        "coding": [ {
          "system": "http://terminology.hl7.org/CodeSystem/condition-clinical",
          "code": "remission",
          "display": "remission"
        } ]
      },
      "verificationStatus": {
        "coding": [ {
          "system": "http://terminology.hl7.org/CodeSystem/condition-ver-status",
          "code": "confirmed",
          "display": "Confirmed"
        } ]
      },
      "category": [ {
        "coding": [ {
          "system": "http://terminology.hl7.org/CodeSystem/condition-category",
          "code": "problem-list-item",
          "display": "Problem List Item"
        } ]
      } ],
      "code": {
        "coding": [ {
          "system": "http://snomed.info/sct",
          "code": "271323007"
        } ]
      },
      "subject": {
        "reference": "Patient/be20e6d8-f2f2-49d9-abc1-39e93ba36a1c"
      },
      "onsetDateTime": "2025-12-21T13:30:00.000Z",
      "abatementDateTime": "2025-12-30T14:15:00.000Z"
    },
    "request": {
      "method": "POST",
      "url": "Condition/5ca52604b8484613a555a8ee"
    }
  }, {
    "fullUrl": "https://madie.cms.gov/Encounter/5ca52604b8484613a555a8ef",
    "resource": {
      "resourceType": "Encounter",
      "id": "5ca52604b8484613a555a8ef",
      "meta": {
        "profile": [ "http://hl7.org/fhir/us/qicore/StructureDefinition/qicore-encounter" ]
      },
      "status": "finished",
      "class": {
        "system": "http://terminology.hl7.org/CodeSystem/v3-ActCode",
        "code": "AMB",
        "display": "ambulatory",
        "userSelected": true
      },
      "type": [ {
        "coding": [ {
          "system": "http://www.ama-assn.org/go/cpt",
          "code": "99205"
        } ]
      } ],
      "subject": {
        "reference": "Patient/be20e6d8-f2f2-49d9-abc1-39e93ba36a1c"
      },
      "period": {
        "start": "2025-01-02T14:30:00.000Z",
        "end": "2025-01-02T14:30:00.000Z"
      }
    },
    "request": {
      "method": "POST",
      "url": "Encounter/5ca52604b8484613a555a8ef"
    }
  }, {
    "fullUrl": "https://madie.cms.gov/Coverage/60099ac41c76ba64612b0616",
    "resource": {
      "resourceType": "Coverage",
      "id": "60099ac41c76ba64612b0616",
      "meta": {
        "profile": [ "http://hl7.org/fhir/us/qicore/StructureDefinition/qicore-coverage" ]
      },
      "status": "active",
      "beneficiary": {
        "reference": "Patient/be20e6d8-f2f2-49d9-abc1-39e93ba36a1c"
      },
      "period": {
        "start": "1981-03-12T08:00:00.000Z"
      },
      "payor": [ {
        "reference": "Organization/123456"
      } ]
    },
    "request": {
      "method": "POST",
      "url": "Coverage/60099ac41c76ba64612b0616"
    }
  }, {
    "fullUrl": "https://madie.cms.gov/Procedure/5ca52604b8484613a555a8f0",
    "resource": {
      "resourceType": "Procedure",
      "id": "5ca52604b8484613a555a8f0",
      "meta": {
        "profile": [ "http://hl7.org/fhir/us/qicore/StructureDefinition/qicore-procedure" ]
      },
      "extension": [ {
        "url": "http://hl7.org/fhir/us/qicore/StructureDefinition/qicore-recorded",
        "valueDateTime": "2025-12-22T14:50:00.000Z"
      } ],
      "status": "completed",
      "code": {
        "coding": [ {
          "system": "http://www.ama-assn.org/go/cpt",
          "code": "96405"
        } ]
      },
      "subject": {
        "reference": "Patient/be20e6d8-f2f2-49d9-abc1-39e93ba36a1c"
      },
      "performedPeriod": {
        "start": "2025-12-22T14:45:00.000Z",
        "end": "2025-12-22T14:45:00.000Z"
      }
    },
    "request": {
      "method": "POST",
      "url": "Procedure/5ca52604b8484613a555a8f0"
    }
  }, {
    "fullUrl": "https://madie.cms.gov/Procedure/5ca52604b8484613a555a8f1",
    "resource": {
      "resourceType": "Procedure",
      "id": "5ca52604b8484613a555a8f1",
      "meta": {
        "profile": [ "http://hl7.org/fhir/us/qicore/StructureDefinition/qicore-procedure" ]
      },
      "extension": [ {
        "url": "http://hl7.org/fhir/us/qicore/StructureDefinition/qicore-recorded",
        "valueDateTime": "2025-01-03T15:35:00.000Z"
      } ],
      "status": "completed",
      "code": {
        "coding": [ {
          "system": "http://www.ama-assn.org/go/cpt",
          "code": "96405"
        } ]
      },
      "subject": {
        "reference": "Patient/be20e6d8-f2f2-49d9-abc1-39e93ba36a1c"
      },
      "performedPeriod": {
        "start": "2025-01-03T15:00:00.000Z",
        "end": "2025-01-03T15:00:00.000Z"
      }
    },
    "request": {
      "method": "POST",
      "url": "Procedure/5ca52604b8484613a555a8f1"
    }
  }, {
    "fullUrl": "https://madie.cms.gov/Organization/123456",
    "resource": {
      "resourceType": "Organization",
      "id": "123456",
      "meta": {
        "profile": [ "http://hl7.org/fhir/us/qicore/StructureDefinition/qicore-organization" ]
      },
      "identifier": [ {
        "use": "temp",
        "system": "urn:oid:2.16.840.1.113883.4.4",
        "value": "21-3259825"
      } ],
      "active": true,
      "type": [ {
        "coding": [ {
          "system": "http://terminology.hl7.org/CodeSystem/organization-type",
          "code": "pay",
          "display": "Payer"
        } ]
      } ],
      "name": "Blue Cross Blue Shield of Texas",
      "telecom": [ {
        "system": "phone",
        "value": "(+1) 972-766-6900"
      } ],
      "address": [ {
        "use": "billing",
        "type": "postal",
        "line": [ "P.O. Box 660044" ],
        "city": "Dallas",
        "state": "TX",
        "postalCode": "75266-0044",
        "country": "USA"
      } ]
    },
    "request": {
      "method": "POST",
      "url": "Organization/123456"
    }
  }, {
    "fullUrl": "https://madie.cms.gov/Practitioner/practitioner-123456",
    "resource": {
      "resourceType": "Practitioner",
      "id": "practitioner-123456",
      "meta": {
        "profile": [ "http://hl7.org/fhir/us/qicore/StructureDefinition/qicore-practitioner" ]
      },
      "identifier": [ {
        "system": "http://hl7.org/fhir/sid/us-npi",
        "value": "123456"
      } ],
      "name": [ {
        "family": "Evil",
        "prefix": [ "Dr" ]
      } ]
    },
    "request": {
      "method": "POST",
      "url": "Practitioner/practitioner-123456"
    }
  }, {
    "fullUrl": "https://madie.cms.gov/MeasureReport/96ae20ed-0d62-4c2b-8c68-b289177105de",
    "resource": {
      "resourceType": "MeasureReport",
      "id": "96ae20ed-0d62-4c2b-8c68-b289177105de",
      "meta": {
        "profile": [ "http://hl7.org/fhir/us/cqfmeasures/StructureDefinition/test-case-cqfm" ]
      },
      "contained": [ {
        "resourceType": "Parameters",
        "id": "a7b15c9c-47c6-49be-9dbd-f6da99e65240-parameters",
        "parameter": [ {
          "name": "subject",
          "valueString": "be20e6d8-f2f2-49d9-abc1-39e93ba36a1c"
        } ]
      } ],
      "extension": [ {
        "url": "http://hl7.org/fhir/us/cqfmeasures/StructureDefinition/cqfm-inputParameters",
        "valueReference": {
          "reference": "#a7b15c9c-47c6-49be-9dbd-f6da99e65240-parameters"
        }
      }, {
        "url": "http://hl7.org/fhir/us/cqfmeasures/StructureDefinition/cqfm-testCaseDescription",
        "valueMarkdown": "Patient with cancer diagnosis that overlaps the office visit. Office visit occurs after the measurement period."
      } ],
      "modifierExtension": [ {
        "url": "http://hl7.org/fhir/us/cqfmeasures/StructureDefinition/cqfm-isTestCase",
        "valueBoolean": true
      } ],
      "status": "complete",
      "type": "individual",
      "measure": "https://madie.cms.gov/Measure/OncologyPainIntensityQuantifiedFHIR",
      "period": {
        "start": "2025-01-01",
        "end": "2025-12-31"
      },
      "group": [ {
        "population": [ {
          "code": {
            "coding": [ {
              "system": "http://terminology.hl7.org/CodeSystem/measure-population",
              "code": "initial-population",
              "display": "Initial Population"
            } ]
          },
          "count": 0
        }, {
          "code": {
            "coding": [ {
              "system": "http://terminology.hl7.org/CodeSystem/measure-population",
              "code": "denominator",
              "display": "Denominator"
            } ]
          },
          "count": 0
        }, {
          "code": {
            "coding": [ {
              "system": "http://terminology.hl7.org/CodeSystem/measure-population",
              "code": "numerator",
              "display": "Numerator"
            } ]
          },
          "count": 0
        } ]
      }, {
        "population": [ {
          "code": {
            "coding": [ {
              "system": "http://terminology.hl7.org/CodeSystem/measure-population",
              "code": "initial-population",
              "display": "Initial Population"
            } ]
          },
          "count": 0
        }, {
          "code": {
            "coding": [ {
              "system": "http://terminology.hl7.org/CodeSystem/measure-population",
              "code": "denominator",
              "display": "Denominator"
            } ]
          },
          "count": 0
        }, {
          "code": {
            "coding": [ {
              "system": "http://terminology.hl7.org/CodeSystem/measure-population",
              "code": "numerator",
              "display": "Numerator"
            } ]
          },
          "count": 0
        } ]
      } ],
      "evaluatedResource": [ {
        "reference": "https://madie.cms.gov/Patient/be20e6d8-f2f2-49d9-abc1-39e93ba36a1c"
      }, {
        "reference": "https://madie.cms.gov/Condition/5ca52604b8484613a555a8ee"
      }, {
        "reference": "https://madie.cms.gov/Encounter/5ca52604b8484613a555a8ef"
      }, {
        "reference": "https://madie.cms.gov/Coverage/60099ac41c76ba64612b0616"
      }, {
        "reference": "https://madie.cms.gov/Procedure/5ca52604b8484613a555a8f0"
      }, {
        "reference": "https://madie.cms.gov/Procedure/5ca52604b8484613a555a8f1"
      }, {
        "reference": "https://madie.cms.gov/Organization/123456"
      }, {
        "reference": "https://madie.cms.gov/Practitioner/practitioner-123456"
      } ]
    },
    "request": {
      "method": "POST",
      "url": "MeasureReport/96ae20ed-0d62-4c2b-8c68-b289177105de"
    }
  } ]
}