{
  "resourceType": "Bundle",
  "id": "Patient-31-DENEXPass-BoneMarrowTransplantDurMP",
  "type": "transaction",
  "entry": [ {
    "fullUrl": "https://madie.cms.gov/Patient/3aca0937-a816-43d3-9b09-2a34ad8091b1",
    "resource": {
      "resourceType": "Patient",
      "id": "3aca0937-a816-43d3-9b09-2a34ad8091b1",
      "meta": {
        "profile": [ "http://hl7.org/fhir/us/qicore/StructureDefinition/qicore-patient" ]
      },
      "extension": [ {
        "url": "http://hl7.org/fhir/us/core/StructureDefinition/us-core-race",
        "extension": [ {
          "url": "ombCategory",
          "valueCoding": {
            "system": "urn:oid:2.16.840.1.113883.6.238",
            "code": "2028-9",
            "display": "Asian"
          }
        }, {
          "url": "text",
          "valueString": "Asian"
        } ]
      }, {
        "url": "http://hl7.org/fhir/us/core/StructureDefinition/us-core-ethnicity",
        "extension": [ {
          "url": "ombCategory",
          "valueCoding": {
            "system": "urn:oid:2.16.840.1.113883.6.238",
            "code": "2135-2",
            "display": "Hispanic or Latino"
          }
        }, {
          "url": "text",
          "valueString": "Hispanic or Latino"
        } ]
      } ],
      "identifier": [ {
        "system": "http://hospital.smarthealthit.org",
        "value": "999999995"
      } ],
      "name": [ {
        "family": "Bertha",
        "given": [ "Betty" ]
      } ],
      "gender": "female",
      "birthDate": "1975-01-01"
    },
    "request": {
      "method": "POST",
      "url": "Patient/3aca0937-a816-43d3-9b09-2a34ad8091b1"
    }
  }, {
    "fullUrl": "https://madie.cms.gov/Encounter/Encounter-31",
    "resource": {
      "resourceType": "Encounter",
      "id": "Encounter-31",
      "meta": {
        "profile": [ "http://hl7.org/fhir/us/qicore/StructureDefinition/qicore-encounter" ]
      },
      "status": "finished",
      "class": {
        "system": "http://terminology.hl7.org/CodeSystem/v3-ActCode",
        "code": "AMB",
        "display": "ambulatory"
      },
      "type": [ {
        "coding": [ {
          "system": "http://snomed.info/sct",
          "code": "185463005",
          "display": "Visit out of hours (procedure)"
        } ]
      } ],
      "subject": {
        "reference": "Patient/3aca0937-a816-43d3-9b09-2a34ad8091b1"
      },
      "period": {
        "start": "2025-01-01T00:00:00.000Z",
        "end": "2025-01-01T01:15:00.000Z"
      }
    },
    "request": {
      "method": "POST",
      "url": "Encounter/Encounter-31"
    }
  }, {
    "fullUrl": "https://madie.cms.gov/Procedure/Procedure-31",
    "resource": {
      "resourceType": "Procedure",
      "id": "Procedure-31",
      "meta": {
        "profile": [ "http://hl7.org/fhir/us/qicore/StructureDefinition/qicore-procedure" ]
      },
      "extension": [ {
        "url": "http://hl7.org/fhir/us/qicore/StructureDefinition/qicore-recorded",
        "valueDateTime": "2025-12-31T00:00:00.000Z"
      } ],
      "status": "completed",
      "code": {
        "coding": [ {
          "system": "http://snomed.info/sct",
          "code": "234331007",
          "display": "Syngeneic bone marrow transplant (procedure)"
        } ]
      },
      "subject": {
        "reference": "Patient/3aca0937-a816-43d3-9b09-2a34ad8091b1"
      },
      "performedPeriod": {
        "start": "2025-12-31T00:00:00.000Z",
        "end": "2025-12-31T23:59:00.000Z"
      }
    },
    "request": {
      "method": "POST",
      "url": "Procedure/Procedure-31"
    }
  }, {
    "fullUrl": "https://madie.cms.gov/MeasureReport/496dbe35-7b81-4061-93fd-e2f4c7271aa9",
    "resource": {
      "resourceType": "MeasureReport",
      "id": "496dbe35-7b81-4061-93fd-e2f4c7271aa9",
      "meta": {
        "profile": [ "http://hl7.org/fhir/us/cqfmeasures/StructureDefinition/test-case-cqfm" ]
      },
      "contained": [ {
        "resourceType": "Parameters",
        "id": "b1b48702-8930-4179-bb25-946607069374-parameters",
        "parameter": [ {
          "name": "subject",
          "valueString": "3aca0937-a816-43d3-9b09-2a34ad8091b1"
        } ]
      } ],
      "extension": [ {
        "url": "http://hl7.org/fhir/us/cqfmeasures/StructureDefinition/cqfm-inputParameters",
        "valueReference": {
          "reference": "#b1b48702-8930-4179-bb25-946607069374-parameters"
        }
      }, {
        "url": "http://hl7.org/fhir/us/cqfmeasures/StructureDefinition/cqfm-testCaseDescription",
        "valueMarkdown": "Patient has bone marrow transplant before end of MP"
      } ],
      "modifierExtension": [ {
        "url": "http://hl7.org/fhir/us/cqfmeasures/StructureDefinition/cqfm-isTestCase",
        "valueBoolean": true
      } ],
      "status": "complete",
      "type": "individual",
      "measure": "https://madie.cms.gov/Measure/AppropriateDXAScansForWomenUnder65FHIR",
      "period": {
        "start": "2025-01-01",
        "end": "2025-12-31"
      },
      "group": [ {
        "population": [ {
          "code": {
            "coding": [ {
              "system": "http://terminology.hl7.org/CodeSystem/measure-population",
              "code": "initial-population",
              "display": "Initial Population"
            } ]
          },
          "count": 1
        }, {
          "code": {
            "coding": [ {
              "system": "http://terminology.hl7.org/CodeSystem/measure-population",
              "code": "denominator",
              "display": "Denominator"
            } ]
          },
          "count": 1
        }, {
          "code": {
            "coding": [ {
              "system": "http://terminology.hl7.org/CodeSystem/measure-population",
              "code": "denominator-exclusion",
              "display": "Denominator Exclusion"
            } ]
          },
          "count": 1
        }, {
          "code": {
            "coding": [ {
              "system": "http://terminology.hl7.org/CodeSystem/measure-population",
              "code": "numerator",
              "display": "Numerator"
            } ]
          },
          "count": 0
        }, {
          "code": {
            "coding": [ {
              "system": "http://terminology.hl7.org/CodeSystem/measure-population",
              "code": "numerator-exclusion",
              "display": "Numerator Exclusion"
            } ]
          },
          "count": 0
        } ]
      } ],
      "evaluatedResource": [ {
        "reference": "https://madie.cms.gov/Patient/3aca0937-a816-43d3-9b09-2a34ad8091b1"
      }, {
        "reference": "https://madie.cms.gov/Encounter/Encounter-31"
      }, {
        "reference": "https://madie.cms.gov/Procedure/Procedure-31"
      } ]
    },
    "request": {
      "method": "POST",
      "url": "MeasureReport/496dbe35-7b81-4061-93fd-e2f4c7271aa9"
    }
  } ]
}