{
  "resourceType": "Bundle",
  "id": "Patient-8-DENEXPass-HospiceServiceReqDurMP",
  "type": "transaction",
  "entry": [ {
    "fullUrl": "https://madie.cms.gov/Patient/2b6eca9d-7580-4262-ba2c-97f6c174cc33",
    "resource": {
      "resourceType": "Patient",
      "id": "2b6eca9d-7580-4262-ba2c-97f6c174cc33",
      "meta": {
        "profile": [ "http://hl7.org/fhir/us/qicore/StructureDefinition/qicore-patient" ]
      },
      "extension": [ {
        "url": "http://hl7.org/fhir/us/core/StructureDefinition/us-core-race",
        "extension": [ {
          "url": "ombCategory",
          "valueCoding": {
            "system": "urn:oid:2.16.840.1.113883.6.238",
            "code": "2028-9",
            "display": "Asian"
          }
        }, {
          "url": "text",
          "valueString": "Asian"
        } ]
      }, {
        "url": "http://hl7.org/fhir/us/core/StructureDefinition/us-core-ethnicity",
        "extension": [ {
          "url": "ombCategory",
          "valueCoding": {
            "system": "urn:oid:2.16.840.1.113883.6.238",
            "code": "2135-2",
            "display": "Hispanic or Latino"
          }
        }, {
          "url": "text",
          "valueString": "Hispanic or Latino"
        } ]
      } ],
      "identifier": [ {
        "system": "http://hospital.smarthealthit.org",
        "value": "999999995"
      } ],
      "name": [ {
        "family": "Bertha",
        "given": [ "Betty" ]
      } ],
      "gender": "female",
      "birthDate": "1960-01-01"
    },
    "request": {
      "method": "POST",
      "url": "Patient/2b6eca9d-7580-4262-ba2c-97f6c174cc33"
    }
  }, {
    "fullUrl": "https://madie.cms.gov/Encounter/Encounter-10",
    "resource": {
      "resourceType": "Encounter",
      "id": "Encounter-10",
      "meta": {
        "profile": [ "http://hl7.org/fhir/us/qicore/StructureDefinition/qicore-encounter" ]
      },
      "status": "finished",
      "class": {
        "system": "http://terminology.hl7.org/CodeSystem/v3-ActCode",
        "code": "AMB",
        "display": "ambulatory"
      },
      "type": [ {
        "coding": [ {
          "system": "http://snomed.info/sct",
          "code": "78831002",
          "display": "Comprehensive eye examination (procedure)"
        } ]
      } ],
      "subject": {
        "reference": "Patient/2b6eca9d-7580-4262-ba2c-97f6c174cc33"
      },
      "period": {
        "start": "2025-01-01T00:00:00.000Z",
        "end": "2025-01-01T00:15:00.000Z"
      }
    },
    "request": {
      "method": "POST",
      "url": "Encounter/Encounter-10"
    }
  }, {
    "fullUrl": "https://madie.cms.gov/ServiceRequest/ServiceRequest-1",
    "resource": {
      "resourceType": "ServiceRequest",
      "id": "ServiceRequest-1",
      "meta": {
        "profile": [ "http://hl7.org/fhir/us/qicore/StructureDefinition/qicore-servicerequest" ]
      },
      "status": "completed",
      "intent": "order",
      "category": [ {
        "coding": [ {
          "system": "http://snomed.info/sct",
          "code": "387713003",
          "display": "Surgical procedure"
        } ]
      } ],
      "priority": "routine",
      "code": {
        "coding": [ {
          "system": "http://snomed.info/sct",
          "code": "170935008",
          "display": "Full care by hospice (finding)"
        } ]
      },
      "subject": {
        "reference": "Patient/2b6eca9d-7580-4262-ba2c-97f6c174cc33"
      },
      "authoredOn": "2025-01-01T00:00:00.000Z",
      "performerType": {
        "coding": [ {
          "system": "http://snomed.info/sct",
          "code": "405279007",
          "display": "Attending physician (occupation)"
        } ]
      }
    },
    "request": {
      "method": "POST",
      "url": "ServiceRequest/ServiceRequest-1"
    }
  }, {
    "fullUrl": "https://madie.cms.gov/MeasureReport/66f732f3-6aa8-48c1-81b0-c961cc67a4e1",
    "resource": {
      "resourceType": "MeasureReport",
      "id": "66f732f3-6aa8-48c1-81b0-c961cc67a4e1",
      "meta": {
        "profile": [ "http://hl7.org/fhir/us/cqfmeasures/StructureDefinition/test-case-cqfm" ]
      },
      "contained": [ {
        "resourceType": "Parameters",
        "id": "e5e777c9-4e13-4c5b-ae9b-55acf9a6da37-parameters",
        "parameter": [ {
          "name": "subject",
          "valueString": "2b6eca9d-7580-4262-ba2c-97f6c174cc33"
        } ]
      } ],
      "extension": [ {
        "url": "http://hl7.org/fhir/us/cqfmeasures/StructureDefinition/cqfm-inputParameters",
        "valueReference": {
          "reference": "#e5e777c9-4e13-4c5b-ae9b-55acf9a6da37-parameters"
        }
      }, {
        "url": "http://hl7.org/fhir/us/cqfmeasures/StructureDefinition/cqfm-testCaseDescription",
        "valueMarkdown": "Patient with hospice services requested during the MP."
      } ],
      "modifierExtension": [ {
        "url": "http://hl7.org/fhir/us/cqfmeasures/StructureDefinition/cqfm-isTestCase",
        "valueBoolean": true
      } ],
      "status": "complete",
      "type": "individual",
      "measure": "https://madie.cms.gov/Measure/FallsScreeningForFutureFallRiskFHIR",
      "period": {
        "start": "2025-01-01",
        "end": "2025-12-31"
      },
      "group": [ {
        "population": [ {
          "code": {
            "coding": [ {
              "system": "http://terminology.hl7.org/CodeSystem/measure-population",
              "code": "initial-population",
              "display": "Initial Population"
            } ]
          },
          "count": 1
        }, {
          "code": {
            "coding": [ {
              "system": "http://terminology.hl7.org/CodeSystem/measure-population",
              "code": "denominator",
              "display": "Denominator"
            } ]
          },
          "count": 1
        }, {
          "code": {
            "coding": [ {
              "system": "http://terminology.hl7.org/CodeSystem/measure-population",
              "code": "denominator-exclusion",
              "display": "Denominator Exclusion"
            } ]
          },
          "count": 1
        }, {
          "code": {
            "coding": [ {
              "system": "http://terminology.hl7.org/CodeSystem/measure-population",
              "code": "numerator",
              "display": "Numerator"
            } ]
          },
          "count": 0
        } ]
      } ],
      "evaluatedResource": [ {
        "reference": "https://madie.cms.gov/Patient/2b6eca9d-7580-4262-ba2c-97f6c174cc33"
      }, {
        "reference": "https://madie.cms.gov/Encounter/Encounter-10"
      }, {
        "reference": "https://madie.cms.gov/ServiceRequest/ServiceRequest-1"
      } ]
    },
    "request": {
      "method": "POST",
      "url": "MeasureReport/66f732f3-6aa8-48c1-81b0-c961cc67a4e1"
    }
  } ]
}