{
  "resourceType": "Bundle",
  "id": "62c880ec0111a60120dc2207",
  "type": "transaction",
  "entry": [ {
    "fullUrl": "https://madie.cms.gov/Patient/6c1a8557-73be-4026-9ec6-f0699bfcbfda",
    "resource": {
      "resourceType": "Patient",
      "id": "6c1a8557-73be-4026-9ec6-f0699bfcbfda",
      "meta": {
        "profile": [ "http://hl7.org/fhir/us/qicore/StructureDefinition/qicore-patient" ]
      },
      "text": {
        "status": "generated",
        "div": "<div xmlns=\"http://www.w3.org/1999/xhtml\"><div class=\"hapiHeaderText\">CancerDxStartsAfterEncAndChemo<b>IPPFailPop1</b></div><table class=\"hapiPropertyTable\"><tbody><tr><td>Identifier</td><td>972778dfe42618990e47340420092399</td></tr><tr><td>Date of birth</td><td><span>17 August 1951</span></td></tr></tbody></table></div>"
      },
      "extension": [ {
        "url": "http://hl7.org/fhir/us/core/StructureDefinition/us-core-race",
        "extension": [ {
          "url": "ombCategory",
          "valueCoding": {
            "system": "urn:oid:2.16.840.1.113883.6.238",
            "code": "2054-5",
            "display": "Black or African American",
            "userSelected": true
          }
        }, {
          "url": "text",
          "valueString": "Black or African American"
        } ]
      }, {
        "url": "http://hl7.org/fhir/us/core/StructureDefinition/us-core-ethnicity",
        "extension": [ {
          "url": "ombCategory",
          "valueCoding": {
            "system": "urn:oid:2.16.840.1.113883.6.238",
            "code": "2186-5",
            "display": "Not Hispanic or Latino",
            "userSelected": true
          }
        }, {
          "url": "text",
          "valueString": "Not Hispanic or Latino"
        } ]
      } ],
      "identifier": [ {
        "type": {
          "coding": [ {
            "system": "http://terminology.hl7.org/CodeSystem/v2-0203",
            "code": "MR"
          } ]
        },
        "system": "https://bonnie-fhir.healthit.gov/",
        "value": "62c880ec0111a60120dc2207"
      } ],
      "active": true,
      "name": [ {
        "use": "usual",
        "family": "IPPFailPop1",
        "given": [ "CancerDxStartsAfterEncAndChemo" ]
      } ],
      "gender": "female",
      "birthDate": "1951-08-17"
    },
    "request": {
      "method": "POST",
      "url": "Patient/6c1a8557-73be-4026-9ec6-f0699bfcbfda"
    }
  }, {
    "fullUrl": "https://madie.cms.gov/Condition/5ca5260db8484613a555a99a",
    "resource": {
      "resourceType": "Condition",
      "id": "5ca5260db8484613a555a99a",
      "meta": {
        "profile": [ "http://hl7.org/fhir/us/qicore/StructureDefinition/qicore-condition" ]
      },
      "clinicalStatus": {
        "coding": [ {
          "system": "http://terminology.hl7.org/CodeSystem/condition-clinical",
          "code": "active",
          "display": "active"
        } ]
      },
      "verificationStatus": {
        "coding": [ {
          "system": "http://terminology.hl7.org/CodeSystem/condition-ver-status",
          "code": "confirmed",
          "display": "Confirmed"
        } ]
      },
      "category": [ {
        "coding": [ {
          "system": "http://terminology.hl7.org/CodeSystem/condition-category",
          "code": "problem-list-item",
          "display": "Problem List Item"
        } ]
      } ],
      "code": {
        "coding": [ {
          "system": "http://hl7.org/fhir/sid/icd-10-cm",
          "code": "C00.0"
        } ]
      },
      "subject": {
        "reference": "Patient/6c1a8557-73be-4026-9ec6-f0699bfcbfda"
      },
      "onsetDateTime": "2025-11-24T08:00:00.000Z"
    },
    "request": {
      "method": "POST",
      "url": "Condition/5ca5260db8484613a555a99a"
    }
  }, {
    "fullUrl": "https://madie.cms.gov/Encounter/5ca5260db8484613a555a99b",
    "resource": {
      "resourceType": "Encounter",
      "id": "5ca5260db8484613a555a99b",
      "meta": {
        "profile": [ "http://hl7.org/fhir/us/qicore/StructureDefinition/qicore-encounter" ]
      },
      "status": "finished",
      "class": {
        "system": "http://terminology.hl7.org/CodeSystem/v3-ActCode",
        "code": "AMB",
        "display": "ambulatory",
        "userSelected": true
      },
      "type": [ {
        "coding": [ {
          "system": "http://www.ama-assn.org/go/cpt",
          "code": "99213"
        } ]
      } ],
      "subject": {
        "reference": "Patient/6c1a8557-73be-4026-9ec6-f0699bfcbfda"
      },
      "period": {
        "start": "2025-05-25T14:20:00.000Z",
        "end": "2025-05-25T14:20:00.000Z"
      }
    },
    "request": {
      "method": "POST",
      "url": "Encounter/5ca5260db8484613a555a99b"
    }
  }, {
    "fullUrl": "https://madie.cms.gov/Coverage/60099ac51c76ba64612b0628",
    "resource": {
      "resourceType": "Coverage",
      "id": "60099ac51c76ba64612b0628",
      "meta": {
        "profile": [ "http://hl7.org/fhir/us/qicore/StructureDefinition/qicore-coverage" ]
      },
      "status": "active",
      "beneficiary": {
        "reference": "Patient/6c1a8557-73be-4026-9ec6-f0699bfcbfda"
      },
      "period": {
        "start": "1951-08-17T08:00:00.000Z"
      },
      "payor": [ {
        "reference": "Organization/123456"
      } ]
    },
    "request": {
      "method": "POST",
      "url": "Coverage/60099ac51c76ba64612b0628"
    }
  }, {
    "fullUrl": "https://madie.cms.gov/Procedure/5ca5260db8484613a555a99c",
    "resource": {
      "resourceType": "Procedure",
      "id": "5ca5260db8484613a555a99c",
      "meta": {
        "profile": [ "http://hl7.org/fhir/us/qicore/StructureDefinition/qicore-procedure" ]
      },
      "extension": [ {
        "url": "http://hl7.org/fhir/us/qicore/StructureDefinition/qicore-recorded",
        "valueDateTime": "2025-04-20T11:35:00.000Z"
      } ],
      "status": "completed",
      "code": {
        "coding": [ {
          "system": "http://snomed.info/sct",
          "code": "169396008"
        } ]
      },
      "subject": {
        "reference": "Patient/6c1a8557-73be-4026-9ec6-f0699bfcbfda"
      },
      "performedPeriod": {
        "start": "2025-04-20T11:00:00.000Z",
        "end": "2025-04-20T11:00:00.000Z"
      }
    },
    "request": {
      "method": "POST",
      "url": "Procedure/5ca5260db8484613a555a99c"
    }
  }, {
    "fullUrl": "https://madie.cms.gov/Procedure/5ca5260db8484613a555a99e",
    "resource": {
      "resourceType": "Procedure",
      "id": "5ca5260db8484613a555a99e",
      "meta": {
        "profile": [ "http://hl7.org/fhir/us/qicore/StructureDefinition/qicore-procedure" ]
      },
      "extension": [ {
        "url": "http://hl7.org/fhir/us/qicore/StructureDefinition/qicore-recorded",
        "valueDateTime": "2025-06-10T14:50:00.000Z"
      } ],
      "status": "completed",
      "code": {
        "coding": [ {
          "system": "http://snomed.info/sct",
          "code": "169396008"
        } ]
      },
      "subject": {
        "reference": "Patient/6c1a8557-73be-4026-9ec6-f0699bfcbfda"
      },
      "performedPeriod": {
        "start": "2025-06-10T14:45:00.000Z",
        "end": "2025-06-10T14:45:00.000Z"
      }
    },
    "request": {
      "method": "POST",
      "url": "Procedure/5ca5260db8484613a555a99e"
    }
  }, {
    "fullUrl": "https://madie.cms.gov/Organization/123456",
    "resource": {
      "resourceType": "Organization",
      "id": "123456",
      "meta": {
        "profile": [ "http://hl7.org/fhir/us/qicore/StructureDefinition/qicore-organization" ]
      },
      "identifier": [ {
        "use": "temp",
        "system": "urn:oid:2.16.840.1.113883.4.4",
        "value": "21-3259825"
      } ],
      "active": true,
      "type": [ {
        "coding": [ {
          "system": "http://terminology.hl7.org/CodeSystem/organization-type",
          "code": "pay",
          "display": "Payer"
        } ]
      } ],
      "name": "Blue Cross Blue Shield of Texas",
      "telecom": [ {
        "system": "phone",
        "value": "(+1) 972-766-6900"
      } ],
      "address": [ {
        "use": "billing",
        "type": "postal",
        "line": [ "P.O. Box 660044" ],
        "city": "Dallas",
        "state": "TX",
        "postalCode": "75266-0044",
        "country": "USA"
      } ]
    },
    "request": {
      "method": "POST",
      "url": "Organization/123456"
    }
  }, {
    "fullUrl": "https://madie.cms.gov/Practitioner/practitioner-123456",
    "resource": {
      "resourceType": "Practitioner",
      "id": "practitioner-123456",
      "meta": {
        "profile": [ "http://hl7.org/fhir/us/qicore/StructureDefinition/qicore-practitioner" ]
      },
      "identifier": [ {
        "system": "http://hl7.org/fhir/sid/us-npi",
        "value": "123456"
      } ],
      "name": [ {
        "family": "Evil",
        "prefix": [ "Dr" ]
      } ]
    },
    "request": {
      "method": "POST",
      "url": "Practitioner/practitioner-123456"
    }
  }, {
    "fullUrl": "https://madie.cms.gov/MeasureReport/8be566ce-862c-4619-aa46-aa0157e5ef7d",
    "resource": {
      "resourceType": "MeasureReport",
      "id": "8be566ce-862c-4619-aa46-aa0157e5ef7d",
      "meta": {
        "profile": [ "http://hl7.org/fhir/us/cqfmeasures/StructureDefinition/test-case-cqfm" ]
      },
      "contained": [ {
        "resourceType": "Parameters",
        "id": "99c7f63e-f9bf-420d-9d23-481495b1b0b5-parameters",
        "parameter": [ {
          "name": "subject",
          "valueString": "6c1a8557-73be-4026-9ec6-f0699bfcbfda"
        } ]
      } ],
      "extension": [ {
        "url": "http://hl7.org/fhir/us/cqfmeasures/StructureDefinition/cqfm-inputParameters",
        "valueReference": {
          "reference": "#99c7f63e-f9bf-420d-9d23-481495b1b0b5-parameters"
        }
      }, {
        "url": "http://hl7.org/fhir/us/cqfmeasures/StructureDefinition/cqfm-testCaseDescription",
        "valueMarkdown": "Patient with cancer diagnosis that starts after office visit and chemotherapy. \n"
      } ],
      "modifierExtension": [ {
        "url": "http://hl7.org/fhir/us/cqfmeasures/StructureDefinition/cqfm-isTestCase",
        "valueBoolean": true
      } ],
      "status": "complete",
      "type": "individual",
      "measure": "https://madie.cms.gov/Measure/OncologyPainIntensityQuantifiedFHIR",
      "period": {
        "start": "2025-01-01",
        "end": "2025-12-31"
      },
      "group": [ {
        "population": [ {
          "code": {
            "coding": [ {
              "system": "http://terminology.hl7.org/CodeSystem/measure-population",
              "code": "initial-population",
              "display": "Initial Population"
            } ]
          },
          "count": 0
        }, {
          "code": {
            "coding": [ {
              "system": "http://terminology.hl7.org/CodeSystem/measure-population",
              "code": "denominator",
              "display": "Denominator"
            } ]
          },
          "count": 0
        }, {
          "code": {
            "coding": [ {
              "system": "http://terminology.hl7.org/CodeSystem/measure-population",
              "code": "numerator",
              "display": "Numerator"
            } ]
          },
          "count": 0
        } ]
      }, {
        "population": [ {
          "code": {
            "coding": [ {
              "system": "http://terminology.hl7.org/CodeSystem/measure-population",
              "code": "initial-population",
              "display": "Initial Population"
            } ]
          },
          "count": 0
        }, {
          "code": {
            "coding": [ {
              "system": "http://terminology.hl7.org/CodeSystem/measure-population",
              "code": "denominator",
              "display": "Denominator"
            } ]
          },
          "count": 0
        }, {
          "code": {
            "coding": [ {
              "system": "http://terminology.hl7.org/CodeSystem/measure-population",
              "code": "numerator",
              "display": "Numerator"
            } ]
          },
          "count": 0
        } ]
      } ],
      "evaluatedResource": [ {
        "reference": "https://madie.cms.gov/Patient/6c1a8557-73be-4026-9ec6-f0699bfcbfda"
      }, {
        "reference": "https://madie.cms.gov/Condition/5ca5260db8484613a555a99a"
      }, {
        "reference": "https://madie.cms.gov/Encounter/5ca5260db8484613a555a99b"
      }, {
        "reference": "https://madie.cms.gov/Coverage/60099ac51c76ba64612b0628"
      }, {
        "reference": "https://madie.cms.gov/Procedure/5ca5260db8484613a555a99c"
      }, {
        "reference": "https://madie.cms.gov/Procedure/5ca5260db8484613a555a99e"
      }, {
        "reference": "https://madie.cms.gov/Organization/123456"
      }, {
        "reference": "https://madie.cms.gov/Practitioner/practitioner-123456"
      } ]
    },
    "request": {
      "method": "POST",
      "url": "MeasureReport/8be566ce-862c-4619-aa46-aa0157e5ef7d"
    }
  } ]
}