{"resourceType":"Bundle","id":"tests-554c649c-cc35-489d-9216-31ccf349a841-bundle","type":"transaction","entry":[{"fullUrl":"https://madie.cms.gov/Patient/554c649c-cc35-489d-9216-31ccf349a841","resource":{"resourceType":"Patient","id":"554c649c-cc35-489d-9216-31ccf349a841","meta":{"profile":["http://hl7.org/fhir/us/qicore/StructureDefinition/qicore-patient"]},"text":{"status":"generated","div":"<div xmlns=\"http://www.w3.org/1999/xhtml\"><div class=\"hapiHeaderText\">VTE_RiskAsseOnAnesEndTime <b>NUMERPASS </b></div><table class=\"hapiPropertyTable\"><tbody><tr><td>Identifier</td><td>f5d2e33da369b2287bfe6d238bf1cc3e</td></tr><tr><td>Date of birth</td><td><span>02 January 1974</span></td></tr></tbody></table></div>"},"extension":[{"url":"http://hl7.org/fhir/us/core/StructureDefinition/us-core-race","extension":[{"url":"ombCategory","valueCoding":{"system":"urn:oid:2.16.840.1.113883.6.238","code":"1002-5","display":"American Indian or Alaska Native","userSelected":true}},{"url":"text","valueString":"American Indian or Alaska Native"}]},{"url":"http://hl7.org/fhir/us/core/StructureDefinition/us-core-ethnicity","extension":[{"url":"ombCategory","valueCoding":{"system":"urn:oid:2.16.840.1.113883.6.238","code":"2135-2","display":"Hispanic or Latino","userSelected":true}},{"url":"text","valueString":"Hispanic or Latino"}]}],"identifier":[{"type":{"coding":[{"system":"http://terminology.hl7.org/CodeSystem/v2-0203","code":"MR"}]},"system":"https://bonnie-fhir.healthit.gov/","value":"612e6b7a02c62a011f2eddf3"}],"active":true,"name":[{"use":"usual","family":"NUMERPass","given":["VTE_RiskAssesOnAnesEndTime"]}],"gender":"male","birthDate":"1974-01-02"},"request":{"method":"PUT","url":"Patient/554c649c-cc35-489d-9216-31ccf349a841"}},{"fullUrl":"https://madie.cms.gov/Encounter/5ca62963b8484628b8de1f03","resource":{"resourceType":"Encounter","id":"2a67d686-c616-4aa1-bf87-45ffe5d47536","meta":{"profile":["http://hl7.org/fhir/us/qicore/StructureDefinition/qicore-encounter"]},"status":"finished","class":{"system":"http://terminology.hl7.org/CodeSystem/v3-ActCode","code":"IMP","display":"inpatient encounter"},"type":[{"coding":[{"system":"http://snomed.info/sct","code":"8715000"}]}],"subject":{"reference":"Patient/554c649c-cc35-489d-9216-31ccf349a841"},"period":{"start":"2025-11-01T08:00:00+00:00","end":"2025-11-26T08:15:00+00:00"},"length":{"value":25.0,"unit":"days"}},"request":{"method":"PUT","url":"Encounter/2a67d686-c616-4aa1-bf87-45ffe5d47536"}},{"fullUrl":"https://madie.cms.gov/Observation/5ca62963b8484628b8de1f05","resource":{"resourceType":"Observation","id":"468e7a7f-2752-49a1-9563-9ea6855ed57b","meta":{"profile":["http://hl7.org/fhir/us/qicore/StructureDefinition/qicore-observation"]},"status":"final","category":[{"coding":[{"system":"http://terminology.hl7.org/CodeSystem/observation-category","code":"exam","display":"exam"}]}],"code":{"coding":[{"system":"http://loinc.org","code":"72136-5"}]},"subject":{"reference":"Patient/554c649c-cc35-489d-9216-31ccf349a841"},"effectiveDateTime":"2025-11-02T09:15:00+00:00","valueCodeableConcept":{"coding":[{"system":"http://snomed.info/sct","code":"260362008","display":"Very low (qualifier value)","userSelected":true}]}},"request":{"method":"PUT","url":"Observation/468e7a7f-2752-49a1-9563-9ea6855ed57b"}},{"fullUrl":"https://madie.cms.gov/Coverage/5fa0415e1c76ba66d99592e3","resource":{"resourceType":"Coverage","id":"930c4b2e-1de0-4c08-9e09-d4df4b7019ad","status":"active","beneficiary":{"reference":"Patient/554c649c-cc35-489d-9216-31ccf349a841"},"period":{"start":"1974-01-02T08:00:00+00:00"},"payor":[{"reference":"Organization/4b5a882f-1f43-485c-85c6-f5ad2337d5b1"}]},"request":{"method":"PUT","url":"Coverage/930c4b2e-1de0-4c08-9e09-d4df4b7019ad"}},{"fullUrl":"https://madie.cms.gov/Procedure/5ca62963b8484628b8de1f04","resource":{"resourceType":"Procedure","id":"39c1f6a3-15de-45d9-8021-8f0737853dfd","meta":{"profile":["http://hl7.org/fhir/us/qicore/StructureDefinition/qicore-procedure"]},"extension":[{"url":"http://hl7.org/fhir/us/qicore/StructureDefinition/qicore-recorded","valueDateTime":"2025-11-02T09:35:00-04:00"}],"status":"completed","code":{"coding":[{"system":"http://www.icd10data.com/icd10pcs","code":"3E030FZ"},{"system":"http://snomed.info/sct","code":"18946005"}]},"subject":{"reference":"Patient/554c649c-cc35-489d-9216-31ccf349a841"},"performedPeriod":{"start":"2025-11-02T09:00:00+00:00","end":"2025-11-02T09:15:00+00:00"}},"request":{"method":"PUT","url":"Procedure/39c1f6a3-15de-45d9-8021-8f0737853dfd"}},{"fullUrl":"https://madie.cms.gov/Organization/123456","resource":{"resourceType":"Organization","id":"4b5a882f-1f43-485c-85c6-f5ad2337d5b1","meta":{"profile":["http://hl7.org/fhir/us/qicore/StructureDefinition/qicore-organization"]},"identifier":[{"use":"temp","system":"urn:oid:2.16.840.1.113883.4.4","value":"21-3259825"}],"active":true,"type":[{"coding":[{"system":"http://terminology.hl7.org/CodeSystem/organization-type","code":"pay","display":"Payer"}]}],"name":"Blue Cross Blue Shield of Texas","telecom":[{"system":"phone","value":"(+1) 972-766-6900"}],"address":[{"use":"billing","type":"postal","line":["P.O. Box 660044"],"city":"Dallas","state":"TX","postalCode":"75266-0044","country":"USA"}]},"request":{"method":"PUT","url":"Organization/4b5a882f-1f43-485c-85c6-f5ad2337d5b1"}},{"fullUrl":"https://madie.cms.gov/Practitioner/practitioner-123456","resource":{"resourceType":"Practitioner","id":"eedeb3f0-e96d-4a65-a067-1e05d1525a7b","identifier":[{"system":"http://hl7.org/fhir/sid/us-npi","value":"123456"}],"name":[{"family":"Evil","prefix":["Dr"]}]},"request":{"method":"PUT","url":"Practitioner/eedeb3f0-e96d-4a65-a067-1e05d1525a7b"}},{"fullUrl":"https://madie.cms.gov/MeasureReport/087004cd-a9a7-4fd2-afda-b7f3d0e2df7c","resource":{"resourceType":"MeasureReport","id":"087004cd-a9a7-4fd2-afda-b7f3d0e2df7c","meta":{"profile":["http://hl7.org/fhir/us/cqfmeasures/StructureDefinition/test-case-cqfm"]},"contained":[{"resourceType":"Parameters","id":"4e79bc60-aa69-498a-bb9e-4e4b4e55cdc7-parameters","parameter":[{"name":"subject","valueString":"554c649c-cc35-489d-9216-31ccf349a841"}]}],"extension":[{"url":"http://hl7.org/fhir/us/cqfmeasures/StructureDefinition/cqfm-inputParameters","valueReference":{"reference":"#4e79bc60-aa69-498a-bb9e-4e4b4e55cdc7-parameters"}},{"url":"http://hl7.org/fhir/us/cqfmeasures/StructureDefinition/cqfm-testCaseDescription","valueMarkdown":"risk assessment done concurrent with the end of anesthesia\n"}],"modifierExtension":[{"url":"http://hl7.org/fhir/us/cqfmeasures/StructureDefinition/cqfm-isTestCase","valueBoolean":true}],"status":"complete","type":"individual","measure":"https://madie.cms.gov/Measure/VenousThromboembolismProphylaxisFHIR","period":{"start":"2025-01-01","end":"2025-12-31"},"group":[{"population":[{"code":{"coding":[{"system":"http://terminology.hl7.org/CodeSystem/measure-population","code":"initial-population","display":"Initial Population"}]},"count":1},{"code":{"coding":[{"system":"http://terminology.hl7.org/CodeSystem/measure-population","code":"denominator","display":"Denominator"}]},"count":1},{"code":{"coding":[{"system":"http://terminology.hl7.org/CodeSystem/measure-population","code":"denominator-exclusion","display":"Denominator Exclusion"}]},"count":0},{"code":{"coding":[{"system":"http://terminology.hl7.org/CodeSystem/measure-population","code":"numerator","display":"Numerator"}]},"count":1}]}]},"request":{"method":"PUT","url":"MeasureReport/087004cd-a9a7-4fd2-afda-b7f3d0e2df7c"}}]}