{"resourceType":"Bundle","id":"tests-9b105e54-ec6c-4235-a051-ee4da0ee4a40-bundle","type":"transaction","entry":[{"fullUrl":"https://madie.cms.gov/Patient/9b105e54-ec6c-4235-a051-ee4da0ee4a40","resource":{"resourceType":"Patient","id":"9b105e54-ec6c-4235-a051-ee4da0ee4a40","meta":{"profile":["http://hl7.org/fhir/us/qicore/StructureDefinition/qicore-patient"]},"text":{"status":"generated","div":"<div xmlns=\"http://www.w3.org/1999/xhtml\"><div class=\"hapiHeaderText\">DA_VFP_DayOfAdm_BfAdmDT <b>NUMERPASS </b></div><table class=\"hapiPropertyTable\"><tbody><tr><td>Identifier</td><td>af7fb96c408ff8f32d85ce64a563f18b</td></tr><tr><td>Date of birth</td><td><span>02 January 1974</span></td></tr></tbody></table></div>"},"extension":[{"url":"http://hl7.org/fhir/us/core/StructureDefinition/us-core-race","extension":[{"url":"ombCategory","valueCoding":{"system":"urn:oid:2.16.840.1.113883.6.238","code":"1002-5","display":"American Indian or Alaska Native","userSelected":true}},{"url":"text","valueString":"American Indian or Alaska Native"}]},{"url":"http://hl7.org/fhir/us/core/StructureDefinition/us-core-ethnicity","extension":[{"url":"ombCategory","valueCoding":{"system":"urn:oid:2.16.840.1.113883.6.238","code":"2135-2","display":"Hispanic or Latino","userSelected":true}},{"url":"text","valueString":"Hispanic or Latino"}]}],"identifier":[{"type":{"coding":[{"system":"http://terminology.hl7.org/CodeSystem/v2-0203","code":"MR"}]},"system":"https://bonnie-fhir.healthit.gov/","value":"612e6a9002c62a011f2ea5f6"}],"active":true,"name":[{"use":"usual","family":"NUMERPass","given":["DA_VFP_DayOfAdm_BfAdmDT"]}],"gender":"male","birthDate":"1974-01-02"},"request":{"method":"PUT","url":"Patient/9b105e54-ec6c-4235-a051-ee4da0ee4a40"}},{"fullUrl":"https://madie.cms.gov/Encounter/5ca6295fb8484628b8de1dcf","resource":{"resourceType":"Encounter","id":"2cf38878-0f98-4e8e-8848-10f77afa1395","meta":{"profile":["http://hl7.org/fhir/us/qicore/StructureDefinition/qicore-encounter"]},"status":"finished","class":{"system":"http://terminology.hl7.org/CodeSystem/v3-ActCode","code":"IMP","display":"inpatient encounter"},"type":[{"coding":[{"system":"http://snomed.info/sct","code":"8715000"}]}],"subject":{"reference":"Patient/9b105e54-ec6c-4235-a051-ee4da0ee4a40"},"period":{"start":"2025-11-01T08:00:00+00:00","end":"2025-11-26T08:15:00+00:00"},"length":{"value":25.0,"unit":"days"}},"request":{"method":"PUT","url":"Encounter/2cf38878-0f98-4e8e-8848-10f77afa1395"}},{"fullUrl":"https://madie.cms.gov/Coverage/5fa041501c76ba66d99591ed","resource":{"resourceType":"Coverage","id":"1e22d744-f546-4c4b-a7e5-16059e7d3716","status":"active","beneficiary":{"reference":"Patient/9b105e54-ec6c-4235-a051-ee4da0ee4a40"},"period":{"start":"1974-01-02T08:00:00+00:00"},"payor":[{"reference":"Organization/4b5a882f-1f43-485c-85c6-f5ad2337d5b1"}]},"request":{"method":"PUT","url":"Coverage/1e22d744-f546-4c4b-a7e5-16059e7d3716"}},{"fullUrl":"https://madie.cms.gov/Procedure/5ca6295fb8484628b8de1dd1","resource":{"resourceType":"Procedure","id":"b4d92fb5-aca1-4b20-bf9a-0e0f51a7c263","meta":{"profile":["http://hl7.org/fhir/us/qicore/StructureDefinition/qicore-procedure"]},"extension":[{"url":"http://hl7.org/fhir/us/qicore/StructureDefinition/qicore-recorded","valueDateTime":"2012-11-19T09:35:00-04:00"}],"status":"completed","code":{"coding":[{"system":"http://snomed.info/sct","code":"18946005"}]},"subject":{"reference":"Patient/9b105e54-ec6c-4235-a051-ee4da0ee4a40"},"performedPeriod":{"start":"2025-11-01T09:00:00+00:00","end":"2025-11-01T09:15:00+00:00"}},"request":{"method":"PUT","url":"Procedure/b4d92fb5-aca1-4b20-bf9a-0e0f51a7c263"}},{"fullUrl":"https://madie.cms.gov/Procedure/device-application-f808","resource":{"resourceType":"Procedure","id":"4db03903-e20f-4c17-adc5-28b4d93905ed","meta":{"profile":["http://hl7.org/fhir/us/qicore/StructureDefinition/qicore-procedure"]},"extension":[{"url":"http://hl7.org/fhir/us/qicore/StructureDefinition/qicore-recorded","valueDateTime":"2012-11-01T09:35:00-04:00"}],"status":"completed","code":{"coding":[{"system":"http://snomed.info/sct","code":"442410008","display":"Application of venous foot pump (procedure)"}]},"subject":{"reference":"Patient/9b105e54-ec6c-4235-a051-ee4da0ee4a40"},"performedDateTime":"2025-11-02T07:00:00.000+00:00","usedCode":[{"coding":[{"system":"http://snomed.info/sct","code":"442023007","display":"Venous foot pump, device (physical object)","userSelected":true}]}]},"request":{"method":"PUT","url":"Procedure/4db03903-e20f-4c17-adc5-28b4d93905ed"}},{"fullUrl":"https://madie.cms.gov/Organization/123456","resource":{"resourceType":"Organization","id":"4b5a882f-1f43-485c-85c6-f5ad2337d5b1","meta":{"profile":["http://hl7.org/fhir/us/qicore/StructureDefinition/qicore-organization"]},"identifier":[{"use":"temp","system":"urn:oid:2.16.840.1.113883.4.4","value":"21-3259825"}],"active":true,"type":[{"coding":[{"system":"http://terminology.hl7.org/CodeSystem/organization-type","code":"pay","display":"Payer"}]}],"name":"Blue Cross Blue Shield of Texas","telecom":[{"system":"phone","value":"(+1) 972-766-6900"}],"address":[{"use":"billing","type":"postal","line":["P.O. Box 660044"],"city":"Dallas","state":"TX","postalCode":"75266-0044","country":"USA"}]},"request":{"method":"PUT","url":"Organization/4b5a882f-1f43-485c-85c6-f5ad2337d5b1"}},{"fullUrl":"https://madie.cms.gov/Practitioner/practitioner-123456","resource":{"resourceType":"Practitioner","id":"07167f5a-ab5c-48cf-8a68-6bf7e46bc74a","identifier":[{"system":"http://hl7.org/fhir/sid/us-npi","value":"123456"}],"name":[{"family":"Evil","prefix":["Dr"]}]},"request":{"method":"PUT","url":"Practitioner/07167f5a-ab5c-48cf-8a68-6bf7e46bc74a"}},{"fullUrl":"https://madie.cms.gov/MeasureReport/6ac0567f-eb97-40ca-a5d3-33657c1d1e63","resource":{"resourceType":"MeasureReport","id":"6ac0567f-eb97-40ca-a5d3-33657c1d1e63","meta":{"profile":["http://hl7.org/fhir/us/cqfmeasures/StructureDefinition/test-case-cqfm"]},"contained":[{"resourceType":"Parameters","id":"f452a53f-5e63-4542-b93b-31934dcbfe15-parameters","parameter":[{"name":"subject","valueString":"9b105e54-ec6c-4235-a051-ee4da0ee4a40"}]}],"extension":[{"url":"http://hl7.org/fhir/us/cqfmeasures/StructureDefinition/cqfm-inputParameters","valueReference":{"reference":"#f452a53f-5e63-4542-b93b-31934dcbfe15-parameters"}},{"url":"http://hl7.org/fhir/us/cqfmeasures/StructureDefinition/cqfm-testCaseDescription","valueMarkdown":"vfp applied on the same day of admission date but it was before adm time"}],"modifierExtension":[{"url":"http://hl7.org/fhir/us/cqfmeasures/StructureDefinition/cqfm-isTestCase","valueBoolean":true}],"status":"complete","type":"individual","measure":"https://madie.cms.gov/Measure/VenousThromboembolismProphylaxisFHIR","period":{"start":"2025-01-01","end":"2025-12-31"},"group":[{"population":[{"code":{"coding":[{"system":"http://terminology.hl7.org/CodeSystem/measure-population","code":"initial-population","display":"Initial Population"}]},"count":1},{"code":{"coding":[{"system":"http://terminology.hl7.org/CodeSystem/measure-population","code":"denominator","display":"Denominator"}]},"count":1},{"code":{"coding":[{"system":"http://terminology.hl7.org/CodeSystem/measure-population","code":"denominator-exclusion","display":"Denominator Exclusion"}]},"count":0},{"code":{"coding":[{"system":"http://terminology.hl7.org/CodeSystem/measure-population","code":"numerator","display":"Numerator"}]},"count":1}]}]},"request":{"method":"PUT","url":"MeasureReport/6ac0567f-eb97-40ca-a5d3-33657c1d1e63"}}]}