{"resourceType":"Bundle","id":"tests-40c49d47-dc24-406a-8551-8b3890cf3be4-bundle","type":"transaction","entry":[{"fullUrl":"https://madie.cms.gov/Patient/40c49d47-dc24-406a-8551-8b3890cf3be4","resource":{"resourceType":"Patient","id":"40c49d47-dc24-406a-8551-8b3890cf3be4","meta":{"profile":["http://hl7.org/fhir/us/qicore/StructureDefinition/qicore-patient"]},"text":{"status":"generated","div":"<div xmlns=\"http://www.w3.org/1999/xhtml\"><div class=\"hapiHeaderText\">SCIP_GenSurgAfterEncEnds <b>DENEXFAIL </b></div><table class=\"hapiPropertyTable\"><tbody><tr><td>Identifier</td><td>66c70c125db369967b4b164e75338304</td></tr><tr><td>Date of birth</td><td><span>01 September 2000</span></td></tr></tbody></table></div>"},"extension":[{"url":"http://hl7.org/fhir/us/core/StructureDefinition/us-core-race","extension":[{"url":"ombCategory","valueCoding":{"system":"urn:oid:2.16.840.1.113883.6.238","code":"1002-5","display":"American Indian or Alaska Native","userSelected":true}},{"url":"text","valueString":"American Indian or Alaska Native"}]},{"url":"http://hl7.org/fhir/us/core/StructureDefinition/us-core-ethnicity","extension":[{"url":"ombCategory","valueCoding":{"system":"urn:oid:2.16.840.1.113883.6.238","code":"2135-2","display":"Hispanic or Latino","userSelected":true}},{"url":"text","valueString":"Hispanic or Latino"}]}],"identifier":[{"type":{"coding":[{"system":"http://terminology.hl7.org/CodeSystem/v2-0203","code":"MR"}]},"system":"https://bonnie-fhir.healthit.gov/","value":"612e6b0c02c62a011f2ec368"}],"active":true,"name":[{"use":"usual","family":"DENEXFail ","given":["SCIP_GenSurgAfterEncEnds"]}],"gender":"male","birthDate":"2000-09-01"},"request":{"method":"PUT","url":"Patient/40c49d47-dc24-406a-8551-8b3890cf3be4"}},{"fullUrl":"https://madie.cms.gov/Encounter/5ca62965b8484628b8de1fae","resource":{"resourceType":"Encounter","id":"255c40e3-5bcd-42bd-8c1e-24dc3fd087ae","meta":{"profile":["http://hl7.org/fhir/us/qicore/StructureDefinition/qicore-encounter"]},"extension":[{"url":"http://hl7.org/fhir/us/qicore/StructureDefinition/qicore-encounter-procedure","extension":[{"url":"type","valueCodeableConcept":{"coding":[{"system":"http://www.cms.gov/Medicare/Coding/ICD10","code":"008Q0ZZ"}]}},{"url":"rank","valuePositiveInt":1},{"url":"procedure","valueReference":{"reference":"Procedure/general-surgery-37fd"}}]}],"status":"finished","class":{"system":"http://terminology.hl7.org/CodeSystem/v3-ActCode","code":"IMP","display":"inpatient encounter"},"type":[{"coding":[{"system":"http://snomed.info/sct","code":"183452005"}]}],"subject":{"reference":"Patient/40c49d47-dc24-406a-8551-8b3890cf3be4"},"period":{"start":"2025-09-02T06:00:00+00:00","end":"2025-12-31T10:00:00+00:00"},"length":{"value":120.0,"unit":"days"}},"request":{"method":"PUT","url":"Encounter/255c40e3-5bcd-42bd-8c1e-24dc3fd087ae"}},{"fullUrl":"https://madie.cms.gov/Coverage/5fa041671c76ba66d9959388","resource":{"resourceType":"Coverage","id":"34e1dfda-e075-446e-bb7c-e2069090a5be","status":"active","beneficiary":{"reference":"Patient/40c49d47-dc24-406a-8551-8b3890cf3be4"},"period":{"start":"2000-09-01T08:00:00+00:00"},"payor":[{"reference":"Organization/4b5a882f-1f43-485c-85c6-f5ad2337d5b1"}]},"request":{"method":"PUT","url":"Coverage/34e1dfda-e075-446e-bb7c-e2069090a5be"}},{"fullUrl":"https://madie.cms.gov/Procedure/general-surgery-37fd","resource":{"resourceType":"Procedure","id":"51711aa2-cd20-4f3f-bd78-190c70b83752","meta":{"profile":["http://hl7.org/fhir/us/qicore/StructureDefinition/qicore-procedure"]},"extension":[{"url":"http://hl7.org/fhir/us/qicore/StructureDefinition/qicore-recorded","valueDateTime":"2012-12-04T09:35:00-04:00"}],"status":"completed","code":{"coding":[{"system":"http://www.cms.gov/Medicare/Coding/ICD10","code":"008Q0ZZ","display":"Division of Vagus Nerve, Open Approach","userSelected":true}]},"subject":{"reference":"Patient/40c49d47-dc24-406a-8551-8b3890cf3be4"},"performedPeriod":{"start":"2025-12-31T10:30:00.000+00:00","end":"2025-12-31T11:15:00.000+00:00"}},"request":{"method":"PUT","url":"Procedure/51711aa2-cd20-4f3f-bd78-190c70b83752"}},{"fullUrl":"https://madie.cms.gov/Organization/123456","resource":{"resourceType":"Organization","id":"4b5a882f-1f43-485c-85c6-f5ad2337d5b1","meta":{"profile":["http://hl7.org/fhir/us/qicore/StructureDefinition/qicore-organization"]},"identifier":[{"use":"temp","system":"urn:oid:2.16.840.1.113883.4.4","value":"21-3259825"}],"active":true,"type":[{"coding":[{"system":"http://terminology.hl7.org/CodeSystem/organization-type","code":"pay","display":"Payer"}]}],"name":"Blue Cross Blue Shield of Texas","telecom":[{"system":"phone","value":"(+1) 972-766-6900"}],"address":[{"use":"billing","type":"postal","line":["P.O. Box 660044"],"city":"Dallas","state":"TX","postalCode":"75266-0044","country":"USA"}]},"request":{"method":"PUT","url":"Organization/4b5a882f-1f43-485c-85c6-f5ad2337d5b1"}},{"fullUrl":"https://madie.cms.gov/Practitioner/practitioner-123456","resource":{"resourceType":"Practitioner","id":"ad73c7c8-338a-4d47-b938-5c6883409208","identifier":[{"system":"http://hl7.org/fhir/sid/us-npi","value":"123456"}],"name":[{"family":"Evil","prefix":["Dr"]}]},"request":{"method":"PUT","url":"Practitioner/ad73c7c8-338a-4d47-b938-5c6883409208"}},{"fullUrl":"https://madie.cms.gov/MeasureReport/a8a88fef-0215-4d35-a97d-37c7e836a076","resource":{"resourceType":"MeasureReport","id":"a8a88fef-0215-4d35-a97d-37c7e836a076","meta":{"profile":["http://hl7.org/fhir/us/cqfmeasures/StructureDefinition/test-case-cqfm"]},"contained":[{"resourceType":"Parameters","id":"73cb848f-8c8f-4a33-a9a0-07de9a2a127f-parameters","parameter":[{"name":"subject","valueString":"40c49d47-dc24-406a-8551-8b3890cf3be4"}]}],"extension":[{"url":"http://hl7.org/fhir/us/cqfmeasures/StructureDefinition/cqfm-inputParameters","valueReference":{"reference":"#73cb848f-8c8f-4a33-a9a0-07de9a2a127f-parameters"}},{"url":"http://hl7.org/fhir/us/cqfmeasures/StructureDefinition/cqfm-testCaseDescription","valueMarkdown":"Patient had SCIP -GenSurg ends 1 hour after Encounter and Rank =1\n"}],"modifierExtension":[{"url":"http://hl7.org/fhir/us/cqfmeasures/StructureDefinition/cqfm-isTestCase","valueBoolean":true}],"status":"complete","type":"individual","measure":"https://madie.cms.gov/Measure/VenousThromboembolismProphylaxisFHIR","period":{"start":"2025-01-01","end":"2025-12-31"},"group":[{"population":[{"code":{"coding":[{"system":"http://terminology.hl7.org/CodeSystem/measure-population","code":"initial-population","display":"Initial Population"}]},"count":1},{"code":{"coding":[{"system":"http://terminology.hl7.org/CodeSystem/measure-population","code":"denominator","display":"Denominator"}]},"count":1},{"code":{"coding":[{"system":"http://terminology.hl7.org/CodeSystem/measure-population","code":"denominator-exclusion","display":"Denominator Exclusion"}]},"count":0},{"code":{"coding":[{"system":"http://terminology.hl7.org/CodeSystem/measure-population","code":"numerator","display":"Numerator"}]},"count":0}]}]},"request":{"method":"PUT","url":"MeasureReport/a8a88fef-0215-4d35-a97d-37c7e836a076"}}]}