{"resourceType":"Bundle","id":"tests-1f59fbfd-286a-4d4e-bd11-17769e86e872-bundle","type":"transaction","entry":[{"fullUrl":"https://madie.cms.gov/Patient/1f59fbfd-286a-4d4e-bd11-17769e86e872","resource":{"resourceType":"Patient","id":"1f59fbfd-286a-4d4e-bd11-17769e86e872","meta":{"profile":["http://hl7.org/fhir/us/qicore/StructureDefinition/qicore-patient"]},"text":{"status":"generated","div":"<div xmlns=\"http://www.w3.org/1999/xhtml\"><div class=\"hapiHeaderText\">CMPerfRvltStartNULLEndDayAfAdm <b>DENEXFAIL </b></div><table class=\"hapiPropertyTable\"><tbody><tr><td>Identifier</td><td>8e120c670e34f79f329b985203cc966e</td></tr><tr><td>Date of birth</td><td><span>02 January 1974</span></td></tr></tbody></table></div>"},"extension":[{"url":"http://hl7.org/fhir/us/core/StructureDefinition/us-core-race","extension":[{"url":"ombCategory","valueCoding":{"system":"urn:oid:2.16.840.1.113883.6.238","code":"1002-5","display":"American Indian or Alaska Native","userSelected":true}},{"url":"text","valueString":"American Indian or Alaska Native"}]},{"url":"http://hl7.org/fhir/us/core/StructureDefinition/us-core-ethnicity","extension":[{"url":"ombCategory","valueCoding":{"system":"urn:oid:2.16.840.1.113883.6.238","code":"2135-2","display":"Hispanic or Latino","userSelected":true}},{"url":"text","valueString":"Hispanic or Latino"}]}],"identifier":[{"type":{"coding":[{"system":"http://terminology.hl7.org/CodeSystem/v2-0203","code":"MR"}]},"system":"https://bonnie-fhir.healthit.gov/","value":"612e6b2002c62a011f2ec907"}],"active":true,"name":[{"use":"usual","family":"DENEXFail","given":["CMPerfRvltStartNULLEndDayAfAdm"]}],"gender":"male","birthDate":"1974-01-02"},"request":{"method":"PUT","url":"Patient/1f59fbfd-286a-4d4e-bd11-17769e86e872"}},{"fullUrl":"https://madie.cms.gov/Encounter/5ca6295eb8484628b8de1d9c","resource":{"resourceType":"Encounter","id":"2b8dcb20-dd9e-495c-ac1a-b634c5d3ec6d","meta":{"profile":["http://hl7.org/fhir/us/qicore/StructureDefinition/qicore-encounter"]},"status":"finished","class":{"system":"http://terminology.hl7.org/CodeSystem/v3-ActCode","code":"IMP","display":"inpatient encounter"},"type":[{"coding":[{"system":"http://snomed.info/sct","code":"8715000"}]}],"subject":{"reference":"Patient/1f59fbfd-286a-4d4e-bd11-17769e86e872"},"period":{"start":"2025-11-01T08:00:00+00:00","end":"2025-11-26T08:15:00+00:00"},"length":{"value":25.0,"unit":"days"}},"request":{"method":"PUT","url":"Encounter/2b8dcb20-dd9e-495c-ac1a-b634c5d3ec6d"}},{"fullUrl":"https://madie.cms.gov/Procedure/5ca6295eb8484628b8de1d9d","resource":{"resourceType":"Procedure","id":"f40a3ffc-c617-4465-9770-9a624f7b5070","meta":{"profile":["http://hl7.org/fhir/us/qicore/StructureDefinition/qicore-procedure"]},"extension":[{"url":"http://hl7.org/fhir/us/qicore/StructureDefinition/qicore-recorded","valueDateTime":"2012-12-04T09:35:00-04:00"}],"status":"completed","code":{"coding":[{"system":"http://snomed.info/sct","code":"133918004"}]},"subject":{"reference":"Patient/1f59fbfd-286a-4d4e-bd11-17769e86e872"},"performedPeriod":{"end":"2025-11-02T08:15:00+00:00"}},"request":{"method":"PUT","url":"Procedure/f40a3ffc-c617-4465-9770-9a624f7b5070"}},{"fullUrl":"https://madie.cms.gov/Coverage/5fa0414d1c76ba66d99591c3","resource":{"resourceType":"Coverage","id":"2b70e310-7ddf-4c8c-ab94-34d943e6836c","status":"active","beneficiary":{"reference":"Patient/1f59fbfd-286a-4d4e-bd11-17769e86e872"},"period":{"start":"1974-01-02T08:00:00+00:00"},"payor":[{"reference":"Organization/4b5a882f-1f43-485c-85c6-f5ad2337d5b1"}]},"request":{"method":"PUT","url":"Coverage/2b70e310-7ddf-4c8c-ab94-34d943e6836c"}},{"fullUrl":"https://madie.cms.gov/Organization/123456","resource":{"resourceType":"Organization","id":"4b5a882f-1f43-485c-85c6-f5ad2337d5b1","meta":{"profile":["http://hl7.org/fhir/us/qicore/StructureDefinition/qicore-organization"]},"identifier":[{"use":"temp","system":"urn:oid:2.16.840.1.113883.4.4","value":"21-3259825"}],"active":true,"type":[{"coding":[{"system":"http://terminology.hl7.org/CodeSystem/organization-type","code":"pay","display":"Payer"}]}],"name":"Blue Cross Blue Shield of Texas","telecom":[{"system":"phone","value":"(+1) 972-766-6900"}],"address":[{"use":"billing","type":"postal","line":["P.O. Box 660044"],"city":"Dallas","state":"TX","postalCode":"75266-0044","country":"USA"}]},"request":{"method":"PUT","url":"Organization/4b5a882f-1f43-485c-85c6-f5ad2337d5b1"}},{"fullUrl":"https://madie.cms.gov/Practitioner/practitioner-123456","resource":{"resourceType":"Practitioner","id":"be613db6-f2f6-4a33-a494-0c613d25ee46","identifier":[{"system":"http://hl7.org/fhir/sid/us-npi","value":"123456"}],"name":[{"family":"Evil","prefix":["Dr"]}]},"request":{"method":"PUT","url":"Practitioner/be613db6-f2f6-4a33-a494-0c613d25ee46"}},{"fullUrl":"https://madie.cms.gov/MeasureReport/49329701-9504-412f-8b99-d1280ae24f11","resource":{"resourceType":"MeasureReport","id":"49329701-9504-412f-8b99-d1280ae24f11","meta":{"profile":["http://hl7.org/fhir/us/cqfmeasures/StructureDefinition/test-case-cqfm"]},"contained":[{"resourceType":"Parameters","id":"618f4435-9db2-48ee-a8fb-c2a911d482a7-parameters","parameter":[{"name":"subject","valueString":"1f59fbfd-286a-4d4e-bd11-17769e86e872"}]}],"extension":[{"url":"http://hl7.org/fhir/us/cqfmeasures/StructureDefinition/cqfm-inputParameters","valueReference":{"reference":"#618f4435-9db2-48ee-a8fb-c2a911d482a7-parameters"}},{"url":"http://hl7.org/fhir/us/cqfmeasures/StructureDefinition/cqfm-testCaseDescription","valueMarkdown":"comfort measures performed relevantPeriod start is null. end with day after IP encounter start\n"}],"modifierExtension":[{"url":"http://hl7.org/fhir/us/cqfmeasures/StructureDefinition/cqfm-isTestCase","valueBoolean":true}],"status":"complete","type":"individual","measure":"https://madie.cms.gov/Measure/VenousThromboembolismProphylaxisFHIR","period":{"start":"2025-01-01","end":"2025-12-31"},"group":[{"population":[{"code":{"coding":[{"system":"http://terminology.hl7.org/CodeSystem/measure-population","code":"initial-population","display":"Initial Population"}]},"count":1},{"code":{"coding":[{"system":"http://terminology.hl7.org/CodeSystem/measure-population","code":"denominator","display":"Denominator"}]},"count":1},{"code":{"coding":[{"system":"http://terminology.hl7.org/CodeSystem/measure-population","code":"denominator-exclusion","display":"Denominator Exclusion"}]},"count":0},{"code":{"coding":[{"system":"http://terminology.hl7.org/CodeSystem/measure-population","code":"numerator","display":"Numerator"}]},"count":0}]}]},"request":{"method":"PUT","url":"MeasureReport/49329701-9504-412f-8b99-d1280ae24f11"}}]}