{"resourceType":"Bundle","id":"tests-a7a685d8-d95a-489a-a3ae-a461d945bcb3-bundle","type":"transaction","entry":[{"fullUrl":"https://madie.cms.gov/Patient/a7a685d8-d95a-489a-a3ae-a461d945bcb3","resource":{"resourceType":"Patient","id":"a7a685d8-d95a-489a-a3ae-a461d945bcb3","meta":{"profile":["http://hl7.org/fhir/us/qicore/StructureDefinition/qicore-patient"]},"text":{"status":"generated","div":"<div xmlns=\"http://www.w3.org/1999/xhtml\"><div class=\"hapiHeaderText\">EncEndsAfterMP <b>IPPFAIL </b></div><table class=\"hapiPropertyTable\"><tbody><tr><td>Identifier</td><td>3f7ac674da24e00d267fc86596c4ed0e</td></tr><tr><td>Date of birth</td><td><span>01 January 2003</span></td></tr></tbody></table></div>"},"extension":[{"url":"http://hl7.org/fhir/us/core/StructureDefinition/us-core-race","extension":[{"url":"ombCategory","valueCoding":{"system":"urn:oid:2.16.840.1.113883.6.238","code":"1002-5","display":"American Indian or Alaska Native","userSelected":true}},{"url":"text","valueString":"American Indian or Alaska Native"}]},{"url":"http://hl7.org/fhir/us/core/StructureDefinition/us-core-ethnicity","extension":[{"url":"ombCategory","valueCoding":{"system":"urn:oid:2.16.840.1.113883.6.238","code":"2135-2","display":"Hispanic or Latino","userSelected":true}},{"url":"text","valueString":"Hispanic or Latino"}]}],"identifier":[{"type":{"coding":[{"system":"http://terminology.hl7.org/CodeSystem/v2-0203","code":"MR"}]},"system":"https://bonnie-fhir.healthit.gov/","value":"612e6b6802c62a011f2eda22"}],"active":true,"name":[{"use":"usual","family":"IPPFail","given":["EncEndsAfterMP"]}],"gender":"male","birthDate":"2003-01-01"},"request":{"method":"PUT","url":"Patient/a7a685d8-d95a-489a-a3ae-a461d945bcb3"}},{"fullUrl":"https://madie.cms.gov/Encounter/5ca62962b8484628b8de1eb2","resource":{"resourceType":"Encounter","id":"c6618724-ec29-4fd3-8b00-584b9e20dcd1","meta":{"profile":["http://hl7.org/fhir/us/qicore/StructureDefinition/qicore-encounter"]},"status":"finished","class":{"system":"http://terminology.hl7.org/CodeSystem/v3-ActCode","code":"IMP","display":"inpatient encounter"},"type":[{"coding":[{"system":"http://snomed.info/sct","code":"8715000"}]}],"subject":{"reference":"Patient/a7a685d8-d95a-489a-a3ae-a461d945bcb3"},"period":{"start":"2025-12-01T00:00:00+00:00","end":"2026-01-01T00:00:00+00:00"},"length":{"value":31.0,"unit":"days"}},"request":{"method":"PUT","url":"Encounter/c6618724-ec29-4fd3-8b00-584b9e20dcd1"}},{"fullUrl":"https://madie.cms.gov/Coverage/5fa0415c1c76ba66d99592bf","resource":{"resourceType":"Coverage","id":"89bf59bf-520c-48ce-bab7-0dd9e2feddd8","status":"active","beneficiary":{"reference":"Patient/a7a685d8-d95a-489a-a3ae-a461d945bcb3"},"period":{"start":"2003-01-01T08:00:00+00:00"},"payor":[{"reference":"Organization/4b5a882f-1f43-485c-85c6-f5ad2337d5b1"}]},"request":{"method":"PUT","url":"Coverage/89bf59bf-520c-48ce-bab7-0dd9e2feddd8"}},{"fullUrl":"https://madie.cms.gov/Organization/123456","resource":{"resourceType":"Organization","id":"4b5a882f-1f43-485c-85c6-f5ad2337d5b1","meta":{"profile":["http://hl7.org/fhir/us/qicore/StructureDefinition/qicore-organization"]},"identifier":[{"use":"temp","system":"urn:oid:2.16.840.1.113883.4.4","value":"21-3259825"}],"active":true,"type":[{"coding":[{"system":"http://terminology.hl7.org/CodeSystem/organization-type","code":"pay","display":"Payer"}]}],"name":"Blue Cross Blue Shield of Texas","telecom":[{"system":"phone","value":"(+1) 972-766-6900"}],"address":[{"use":"billing","type":"postal","line":["P.O. Box 660044"],"city":"Dallas","state":"TX","postalCode":"75266-0044","country":"USA"}]},"request":{"method":"PUT","url":"Organization/4b5a882f-1f43-485c-85c6-f5ad2337d5b1"}},{"fullUrl":"https://madie.cms.gov/Practitioner/practitioner-123456","resource":{"resourceType":"Practitioner","id":"22d25fd8-b11b-4172-a4bf-5b454cad7dd6","identifier":[{"system":"http://hl7.org/fhir/sid/us-npi","value":"123456"}],"name":[{"family":"Evil","prefix":["Dr"]}]},"request":{"method":"PUT","url":"Practitioner/22d25fd8-b11b-4172-a4bf-5b454cad7dd6"}},{"fullUrl":"https://madie.cms.gov/MeasureReport/ac97f6fa-7017-4bdd-8a58-b2d8e2217b1a","resource":{"resourceType":"MeasureReport","id":"ac97f6fa-7017-4bdd-8a58-b2d8e2217b1a","meta":{"profile":["http://hl7.org/fhir/us/cqfmeasures/StructureDefinition/test-case-cqfm"]},"contained":[{"resourceType":"Parameters","id":"358fe14b-6471-4386-86d4-9678f3b72379-parameters","parameter":[{"name":"subject","valueString":"a7a685d8-d95a-489a-a3ae-a461d945bcb3"}]}],"extension":[{"url":"http://hl7.org/fhir/us/cqfmeasures/StructureDefinition/cqfm-inputParameters","valueReference":{"reference":"#358fe14b-6471-4386-86d4-9678f3b72379-parameters"}},{"url":"http://hl7.org/fhir/us/cqfmeasures/StructureDefinition/cqfm-testCaseDescription","valueMarkdown":"Inp.end 1 min after MP.end\n"}],"modifierExtension":[{"url":"http://hl7.org/fhir/us/cqfmeasures/StructureDefinition/cqfm-isTestCase","valueBoolean":true}],"status":"complete","type":"individual","measure":"https://madie.cms.gov/Measure/VenousThromboembolismProphylaxisFHIR","period":{"start":"2025-01-01","end":"2025-12-31"},"group":[{"population":[{"code":{"coding":[{"system":"http://terminology.hl7.org/CodeSystem/measure-population","code":"initial-population","display":"Initial Population"}]},"count":0},{"code":{"coding":[{"system":"http://terminology.hl7.org/CodeSystem/measure-population","code":"denominator","display":"Denominator"}]},"count":0},{"code":{"coding":[{"system":"http://terminology.hl7.org/CodeSystem/measure-population","code":"denominator-exclusion","display":"Denominator Exclusion"}]},"count":0},{"code":{"coding":[{"system":"http://terminology.hl7.org/CodeSystem/measure-population","code":"numerator","display":"Numerator"}]},"count":0}]}]},"request":{"method":"PUT","url":"MeasureReport/ac97f6fa-7017-4bdd-8a58-b2d8e2217b1a"}}]}