{"resourceType":"Bundle","id":"tests-9cdfcfb1-e204-459d-85f1-407a792ca5d8-bundle","type":"transaction","entry":[{"fullUrl":"https://madie.cms.gov/Patient/9cdfcfb1-e204-459d-85f1-407a792ca5d8","resource":{"resourceType":"Patient","id":"9cdfcfb1-e204-459d-85f1-407a792ca5d8","meta":{"profile":["http://hl7.org/fhir/us/qicore/StructureDefinition/qicore-patient"]},"text":{"status":"generated","div":"<div xmlns=\"http://www.w3.org/1999/xhtml\"><div class=\"hapiHeaderText\">CMOPerf_DayofAnes <b>DENEXPASS </b></div><table class=\"hapiPropertyTable\"><tbody><tr><td>Identifier</td><td>ee7153b84916a96927e2b346d9ea62ff</td></tr><tr><td>Date of birth</td><td><span>02 January 1974</span></td></tr></tbody></table></div>"},"extension":[{"url":"http://hl7.org/fhir/us/core/StructureDefinition/us-core-race","extension":[{"url":"ombCategory","valueCoding":{"system":"urn:oid:2.16.840.1.113883.6.238","code":"1002-5","display":"American Indian or Alaska Native","userSelected":true}},{"url":"text","valueString":"American Indian or Alaska Native"}]},{"url":"http://hl7.org/fhir/us/core/StructureDefinition/us-core-ethnicity","extension":[{"url":"ombCategory","valueCoding":{"system":"urn:oid:2.16.840.1.113883.6.238","code":"2135-2","display":"Hispanic or Latino","userSelected":true}},{"url":"text","valueString":"Hispanic or Latino"}]}],"identifier":[{"type":{"coding":[{"system":"http://terminology.hl7.org/CodeSystem/v2-0203","code":"MR"}]},"system":"https://bonnie-fhir.healthit.gov/","value":"612e6b4102c62a011f2ed12f"}],"active":true,"name":[{"use":"usual","family":"DENEXPass","given":["CMOPerf_DayofAnes"]}],"gender":"male","birthDate":"1974-01-02"},"request":{"method":"PUT","url":"Patient/9cdfcfb1-e204-459d-85f1-407a792ca5d8"}},{"fullUrl":"https://madie.cms.gov/Encounter/5ca62963b8484628b8de1f0f","resource":{"resourceType":"Encounter","id":"7f938b1f-18f5-4c8f-adbf-239260467359","meta":{"profile":["http://hl7.org/fhir/us/qicore/StructureDefinition/qicore-encounter"]},"status":"finished","class":{"system":"http://terminology.hl7.org/CodeSystem/v3-ActCode","code":"IMP","display":"inpatient encounter"},"type":[{"coding":[{"system":"http://snomed.info/sct","code":"8715000"}]}],"subject":{"reference":"Patient/9cdfcfb1-e204-459d-85f1-407a792ca5d8"},"period":{"start":"2025-11-01T08:00:00+00:00","end":"2025-11-26T08:15:00+00:00"},"length":{"value":25.0,"unit":"days"}},"request":{"method":"PUT","url":"Encounter/7f938b1f-18f5-4c8f-adbf-239260467359"}},{"fullUrl":"https://madie.cms.gov/Procedure/5ca62963b8484628b8de1f11","resource":{"resourceType":"Procedure","id":"6e262749-720b-418b-9640-289f443bd7f5","meta":{"profile":["http://hl7.org/fhir/us/qicore/StructureDefinition/qicore-procedure"]},"extension":[{"url":"http://hl7.org/fhir/us/qicore/StructureDefinition/qicore-recorded","valueDateTime":"2012-11-02T09:35:00-04:00"}],"status":"completed","code":{"coding":[{"system":"http://snomed.info/sct","code":"133918004","display":"Comfort measures (regime/therapy)"}]},"subject":{"reference":"Patient/9cdfcfb1-e204-459d-85f1-407a792ca5d8"},"performedPeriod":{"start":"2025-11-02T11:00:00+00:00"}},"request":{"method":"PUT","url":"Procedure/6e262749-720b-418b-9640-289f443bd7f5"}},{"fullUrl":"https://madie.cms.gov/Coverage/5fa0414b1c76ba66d9959193","resource":{"resourceType":"Coverage","id":"0b1eeb96-5d42-418b-9164-a9d2e46ec5ee","status":"active","beneficiary":{"reference":"Patient/9cdfcfb1-e204-459d-85f1-407a792ca5d8"},"period":{"start":"1974-01-02T08:00:00+00:00"},"payor":[{"reference":"Organization/4b5a882f-1f43-485c-85c6-f5ad2337d5b1"}]},"request":{"method":"PUT","url":"Coverage/0b1eeb96-5d42-418b-9164-a9d2e46ec5ee"}},{"fullUrl":"https://madie.cms.gov/Procedure/5ca62963b8484628b8de1f10","resource":{"resourceType":"Procedure","id":"106387fc-d0dc-4a26-ba2e-c4d8e310e3a5","meta":{"profile":["http://hl7.org/fhir/us/qicore/StructureDefinition/qicore-procedure"]},"extension":[{"url":"http://hl7.org/fhir/us/qicore/StructureDefinition/qicore-recorded","valueDateTime":"2012-11-19T09:35:00-04:00"}],"status":"completed","code":{"coding":[{"system":"http://www.cms.gov/Medicare/Coding/ICD10","code":"3E030FZ"},{"system":"http://snomed.info/sct","code":"18946005"}]},"subject":{"reference":"Patient/9cdfcfb1-e204-459d-85f1-407a792ca5d8"},"performedPeriod":{"start":"2025-11-02T09:00:00+00:00","end":"2025-11-02T09:15:00+00:00"}},"request":{"method":"PUT","url":"Procedure/106387fc-d0dc-4a26-ba2e-c4d8e310e3a5"}},{"fullUrl":"https://madie.cms.gov/Organization/123456","resource":{"resourceType":"Organization","id":"4b5a882f-1f43-485c-85c6-f5ad2337d5b1","meta":{"profile":["http://hl7.org/fhir/us/qicore/StructureDefinition/qicore-organization"]},"identifier":[{"use":"temp","system":"urn:oid:2.16.840.1.113883.4.4","value":"21-3259825"}],"active":true,"type":[{"coding":[{"system":"http://terminology.hl7.org/CodeSystem/organization-type","code":"pay","display":"Payer"}]}],"name":"Blue Cross Blue Shield of Texas","telecom":[{"system":"phone","value":"(+1) 972-766-6900"}],"address":[{"use":"billing","type":"postal","line":["P.O. Box 660044"],"city":"Dallas","state":"TX","postalCode":"75266-0044","country":"USA"}]},"request":{"method":"PUT","url":"Organization/4b5a882f-1f43-485c-85c6-f5ad2337d5b1"}},{"fullUrl":"https://madie.cms.gov/Practitioner/practitioner-123456","resource":{"resourceType":"Practitioner","id":"56b70d3b-5702-42a5-8081-8b7435364d34","identifier":[{"system":"http://hl7.org/fhir/sid/us-npi","value":"123456"}],"name":[{"family":"Evil","prefix":["Dr"]}]},"request":{"method":"PUT","url":"Practitioner/56b70d3b-5702-42a5-8081-8b7435364d34"}},{"fullUrl":"https://madie.cms.gov/MeasureReport/de8add21-04a4-4209-8236-50c4bcd1418a","resource":{"resourceType":"MeasureReport","id":"de8add21-04a4-4209-8236-50c4bcd1418a","meta":{"profile":["http://hl7.org/fhir/us/cqfmeasures/StructureDefinition/test-case-cqfm"]},"contained":[{"resourceType":"Parameters","id":"d99d40b0-5697-468b-b447-b96a8274b7ef-parameters","parameter":[{"name":"subject","valueString":"9cdfcfb1-e204-459d-85f1-407a792ca5d8"}]}],"extension":[{"url":"http://hl7.org/fhir/us/cqfmeasures/StructureDefinition/cqfm-inputParameters","valueReference":{"reference":"#d99d40b0-5697-468b-b447-b96a8274b7ef-parameters"}},{"url":"http://hl7.org/fhir/us/cqfmeasures/StructureDefinition/cqfm-testCaseDescription","valueMarkdown":"comfort measures performed =0 day after end of anesthesia\n"}],"modifierExtension":[{"url":"http://hl7.org/fhir/us/cqfmeasures/StructureDefinition/cqfm-isTestCase","valueBoolean":true}],"status":"complete","type":"individual","measure":"https://madie.cms.gov/Measure/VenousThromboembolismProphylaxisFHIR","period":{"start":"2025-01-01","end":"2025-12-31"},"group":[{"population":[{"code":{"coding":[{"system":"http://terminology.hl7.org/CodeSystem/measure-population","code":"initial-population","display":"Initial Population"}]},"count":1},{"code":{"coding":[{"system":"http://terminology.hl7.org/CodeSystem/measure-population","code":"denominator","display":"Denominator"}]},"count":1},{"code":{"coding":[{"system":"http://terminology.hl7.org/CodeSystem/measure-population","code":"denominator-exclusion","display":"Denominator Exclusion"}]},"count":1},{"code":{"coding":[{"system":"http://terminology.hl7.org/CodeSystem/measure-population","code":"numerator","display":"Numerator"}]},"count":0}]}]},"request":{"method":"PUT","url":"MeasureReport/de8add21-04a4-4209-8236-50c4bcd1418a"}}]}