{"resourceType":"Bundle","id":"tests-e3ec8d52-9b22-4b4d-8dad-a411a1053e83-bundle","type":"transaction","entry":[{"fullUrl":"https://madie.cms.gov/Patient/e3ec8d52-9b22-4b4d-8dad-a411a1053e83","resource":{"resourceType":"Patient","id":"e3ec8d52-9b22-4b4d-8dad-a411a1053e83","meta":{"profile":["http://hl7.org/fhir/us/qicore/StructureDefinition/qicore-patient"]},"text":{"status":"generated","div":"<div xmlns=\"http://www.w3.org/1999/xhtml\"><div class=\"hapiHeaderText\">EncDx=VTE <b>IPPFAIL </b></div><table class=\"hapiPropertyTable\"><tbody><tr><td>Identifier</td><td>da1a5545aa68e1ac51ebdbfee0df4b4e</td></tr><tr><td>Date of birth</td><td><span>02 January 1974</span></td></tr></tbody></table></div>"},"extension":[{"url":"http://hl7.org/fhir/us/core/StructureDefinition/us-core-race","extension":[{"url":"ombCategory","valueCoding":{"system":"urn:oid:2.16.840.1.113883.6.238","code":"1002-5","display":"American Indian or Alaska Native","userSelected":true}},{"url":"text","valueString":"American Indian or Alaska Native"}]},{"url":"http://hl7.org/fhir/us/core/StructureDefinition/us-core-ethnicity","extension":[{"url":"ombCategory","valueCoding":{"system":"urn:oid:2.16.840.1.113883.6.238","code":"2135-2","display":"Hispanic or Latino","userSelected":true}},{"url":"text","valueString":"Hispanic or Latino"}]}],"identifier":[{"type":{"coding":[{"system":"http://terminology.hl7.org/CodeSystem/v2-0203","code":"MR"}]},"system":"https://bonnie-fhir.healthit.gov/","value":"612e6ab802c62a011f2eb11c"}],"active":true,"name":[{"use":"usual","family":"IPPFail","given":["EncDxVTE"]}],"gender":"male","birthDate":"1974-01-02"},"request":{"method":"PUT","url":"Patient/e3ec8d52-9b22-4b4d-8dad-a411a1053e83"}},{"fullUrl":"https://madie.cms.gov/Encounter/5ca62960b8484628b8de1e5e","resource":{"resourceType":"Encounter","id":"64ac706b-0471-4403-a18d-a96652401820","meta":{"profile":["http://hl7.org/fhir/us/qicore/StructureDefinition/qicore-encounter"]},"status":"finished","class":{"system":"http://terminology.hl7.org/CodeSystem/v3-ActCode","code":"IMP","display":"inpatient encounter"},"type":[{"coding":[{"system":"http://snomed.info/sct","code":"8715000"}]}],"subject":{"reference":"Patient/e3ec8d52-9b22-4b4d-8dad-a411a1053e83"},"period":{"start":"2025-11-01T08:00:00+00:00","end":"2025-11-26T08:15:00+00:00"},"length":{"value":25.0,"unit":"days"},"diagnosis":[{"condition":{"reference":"Condition/venous-thromboembolism-37f9"},"use":{"coding":[{"system":"http://snomed.info/sct","code":"1001000119102","display":"Venous Thromboembolism"}]}}]},"request":{"method":"PUT","url":"Encounter/64ac706b-0471-4403-a18d-a96652401820"}},{"fullUrl":"https://madie.cms.gov/Coverage/5fa041581c76ba66d9959268","resource":{"resourceType":"Coverage","id":"d5ee655d-2a53-4de3-aefa-c424d38cf377","status":"active","beneficiary":{"reference":"Patient/e3ec8d52-9b22-4b4d-8dad-a411a1053e83"},"period":{"start":"1974-01-02T08:00:00+00:00"},"payor":[{"reference":"Organization/4b5a882f-1f43-485c-85c6-f5ad2337d5b1"}]},"request":{"method":"PUT","url":"Coverage/d5ee655d-2a53-4de3-aefa-c424d38cf377"}},{"fullUrl":"https://madie.cms.gov/MedicationAdministration/5ca62960b8484628b8de1e5f","resource":{"resourceType":"MedicationAdministration","id":"0969c4b9-71bf-45fc-81ec-94d7d55142c1","status":"unknown","medicationCodeableConcept":{"coding":[{"system":"http://www.nlm.nih.gov/research/umls/rxnorm","code":"855288"}]},"subject":{"reference":"Patient/e3ec8d52-9b22-4b4d-8dad-a411a1053e83"},"effectivePeriod":{"start":"2025-11-01T09:00:00+00:00","end":"2025-11-01T09:15:00+00:00"}},"request":{"method":"PUT","url":"MedicationAdministration/0969c4b9-71bf-45fc-81ec-94d7d55142c1"}},{"fullUrl":"https://madie.cms.gov/Condition/venous-thromboembolism-37f9","resource":{"resourceType":"Condition","id":"28b0d2d3-660e-4677-83f0-e1ce428f3936","meta":{"profile":["http://hl7.org/fhir/us/qicore/StructureDefinition/qicore-condition"]},"category":[{"coding":[{"system":"http://terminology.hl7.org/CodeSystem/condition-category","code":"encounter-diagnosis","display":"Encounter Diagnosis"}]}],"code":{"coding":[{"system":"http://snomed.info/sct","version":"2025-03","code":"1001000119102","display":"Pulmonary embolism with pulmonary infarction (disorder)","userSelected":true}]},"subject":{"reference":"Patient/e3ec8d52-9b22-4b4d-8dad-a411a1053e83"},"recordedDate":"2025-11-02T08:00:00.000+00:00"},"request":{"method":"PUT","url":"Condition/28b0d2d3-660e-4677-83f0-e1ce428f3936"}},{"fullUrl":"https://madie.cms.gov/Organization/123456","resource":{"resourceType":"Organization","id":"4b5a882f-1f43-485c-85c6-f5ad2337d5b1","meta":{"profile":["http://hl7.org/fhir/us/qicore/StructureDefinition/qicore-organization"]},"identifier":[{"use":"temp","system":"urn:oid:2.16.840.1.113883.4.4","value":"21-3259825"}],"active":true,"type":[{"coding":[{"system":"http://terminology.hl7.org/CodeSystem/organization-type","code":"pay","display":"Payer"}]}],"name":"Blue Cross Blue Shield of Texas","telecom":[{"system":"phone","value":"(+1) 972-766-6900"}],"address":[{"use":"billing","type":"postal","line":["P.O. Box 660044"],"city":"Dallas","state":"TX","postalCode":"75266-0044","country":"USA"}]},"request":{"method":"PUT","url":"Organization/4b5a882f-1f43-485c-85c6-f5ad2337d5b1"}},{"fullUrl":"https://madie.cms.gov/Practitioner/practitioner-123456","resource":{"resourceType":"Practitioner","id":"5a23c2af-c63c-465e-ad37-8ad691918e9c","identifier":[{"system":"http://hl7.org/fhir/sid/us-npi","value":"123456"}],"name":[{"family":"Evil","prefix":["Dr"]}]},"request":{"method":"PUT","url":"Practitioner/5a23c2af-c63c-465e-ad37-8ad691918e9c"}},{"fullUrl":"https://madie.cms.gov/MeasureReport/1a9295a5-087c-4c36-b60a-44e1e841f756","resource":{"resourceType":"MeasureReport","id":"1a9295a5-087c-4c36-b60a-44e1e841f756","meta":{"profile":["http://hl7.org/fhir/us/cqfmeasures/StructureDefinition/test-case-cqfm"]},"contained":[{"resourceType":"Parameters","id":"e4808a3e-fa4b-4750-9067-79e23eebe844-parameters","parameter":[{"name":"subject","valueString":"e3ec8d52-9b22-4b4d-8dad-a411a1053e83"}]}],"extension":[{"url":"http://hl7.org/fhir/us/cqfmeasures/StructureDefinition/cqfm-inputParameters","valueReference":{"reference":"#e4808a3e-fa4b-4750-9067-79e23eebe844-parameters"}},{"url":"http://hl7.org/fhir/us/cqfmeasures/StructureDefinition/cqfm-testCaseDescription","valueMarkdown":"patient is > 18 years, LOS < 120 days during MP with dx of VTE and warfarin administered\n"}],"modifierExtension":[{"url":"http://hl7.org/fhir/us/cqfmeasures/StructureDefinition/cqfm-isTestCase","valueBoolean":true}],"status":"complete","type":"individual","measure":"https://madie.cms.gov/Measure/VenousThromboembolismProphylaxisFHIR","period":{"start":"2025-01-01","end":"2025-12-31"},"group":[{"population":[{"code":{"coding":[{"system":"http://terminology.hl7.org/CodeSystem/measure-population","code":"initial-population","display":"Initial Population"}]},"count":0},{"code":{"coding":[{"system":"http://terminology.hl7.org/CodeSystem/measure-population","code":"denominator","display":"Denominator"}]},"count":0},{"code":{"coding":[{"system":"http://terminology.hl7.org/CodeSystem/measure-population","code":"denominator-exclusion","display":"Denominator Exclusion"}]},"count":0},{"code":{"coding":[{"system":"http://terminology.hl7.org/CodeSystem/measure-population","code":"numerator","display":"Numerator"}]},"count":0}]}]},"request":{"method":"PUT","url":"MeasureReport/1a9295a5-087c-4c36-b60a-44e1e841f756"}}]}