{"resourceType":"Bundle","id":"tests-bc83eb4d-4953-4995-9a14-5e2a764a6728-bundle","type":"transaction","entry":[{"fullUrl":"https://madie.cms.gov/Patient/bc83eb4d-4953-4995-9a14-5e2a764a6728","resource":{"resourceType":"Patient","id":"bc83eb4d-4953-4995-9a14-5e2a764a6728","meta":{"profile":["http://hl7.org/fhir/us/qicore/StructureDefinition/qicore-patient"]},"text":{"status":"generated","div":"<div xmlns=\"http://www.w3.org/1999/xhtml\"><div class=\"hapiHeaderText\">TestMultipleOccur_1inExcl1inNum <b>NUMERPASS </b></div><table class=\"hapiPropertyTable\"><tbody><tr><td>Identifier</td><td>c25140d0e4b4dc40f8f038d62a9837e3e354787555978149ab2cc0d8c8c47525</td></tr><tr><td>Date of birth</td><td><span>02 January 1974</span></td></tr></tbody></table></div>"},"extension":[{"url":"http://hl7.org/fhir/us/core/StructureDefinition/us-core-race","extension":[{"url":"ombCategory","valueCoding":{"system":"urn:oid:2.16.840.1.113883.6.238","code":"1002-5","display":"American Indian or Alaska Native","userSelected":true}},{"url":"text","valueString":"American Indian or Alaska Native"}]},{"url":"http://hl7.org/fhir/us/core/StructureDefinition/us-core-ethnicity","extension":[{"url":"ombCategory","valueCoding":{"system":"urn:oid:2.16.840.1.113883.6.238","code":"2135-2","display":"Hispanic or Latino","userSelected":true}},{"url":"text","valueString":"Hispanic or Latino"}]}],"identifier":[{"type":{"coding":[{"system":"http://terminology.hl7.org/CodeSystem/v2-0203","code":"MR"}]},"system":"https://bonnie-fhir.healthit.gov/","value":"612e6aef02c62a011f2ebd2e"}],"active":true,"name":[{"use":"usual","family":"NUMERPass","given":["TestMultipleOccur_1inExcl1inNum"]}],"gender":"male","birthDate":"1974-01-02"},"request":{"method":"PUT","url":"Patient/bc83eb4d-4953-4995-9a14-5e2a764a6728"}},{"fullUrl":"https://madie.cms.gov/Encounter/5ca62965b8484628b8de1fd9","resource":{"resourceType":"Encounter","id":"8f129f63-2a68-450f-99dc-08e32763d8b4","meta":{"profile":["http://hl7.org/fhir/us/qicore/StructureDefinition/qicore-encounter"]},"status":"finished","class":{"system":"http://terminology.hl7.org/CodeSystem/v3-ActCode","code":"IMP","display":"inpatient encounter"},"type":[{"coding":[{"system":"http://snomed.info/sct","code":"183452005"}]}],"subject":{"reference":"Patient/bc83eb4d-4953-4995-9a14-5e2a764a6728"},"period":{"start":"2025-04-01T08:00:00+00:00","end":"2025-04-05T08:15:00+00:00"},"length":{"value":4.0,"unit":"days"}},"request":{"method":"PUT","url":"Encounter/8f129f63-2a68-450f-99dc-08e32763d8b4"}},{"fullUrl":"https://madie.cms.gov/Encounter/5ca62965b8484628b8de1fda","resource":{"resourceType":"Encounter","id":"a2733ee7-7c7f-41af-b4e8-80773852fba2","meta":{"profile":["http://hl7.org/fhir/us/qicore/StructureDefinition/qicore-encounter"]},"status":"finished","class":{"system":"http://terminology.hl7.org/CodeSystem/v3-ActCode","code":"IMP","display":"inpatient encounter"},"type":[{"coding":[{"system":"http://snomed.info/sct","code":"8715000"}]}],"subject":{"reference":"Patient/bc83eb4d-4953-4995-9a14-5e2a764a6728"},"period":{"start":"2025-11-01T08:00:00+00:00","end":"2025-11-26T08:15:00+00:00"},"length":{"value":25.0,"unit":"days"}},"request":{"method":"PUT","url":"Encounter/a2733ee7-7c7f-41af-b4e8-80773852fba2"}},{"fullUrl":"https://madie.cms.gov/Procedure/5ca62965b8484628b8de1fdd","resource":{"resourceType":"Procedure","id":"0daa15cb-03f1-4053-bc2b-3a68d602b542","meta":{"profile":["http://hl7.org/fhir/us/qicore/StructureDefinition/qicore-procedure"]},"extension":[{"url":"http://hl7.org/fhir/us/qicore/StructureDefinition/qicore-recorded","valueDateTime":"2012-04-03T09:35:00-04:00"}],"status":"completed","code":{"coding":[{"system":"http://snomed.info/sct","code":"133918004"}]},"subject":{"reference":"Patient/bc83eb4d-4953-4995-9a14-5e2a764a6728"},"performedPeriod":{"start":"2025-04-01T08:00:00+00:00","end":"2025-04-01T08:15:00+00:00"}},"request":{"method":"PUT","url":"Procedure/0daa15cb-03f1-4053-bc2b-3a68d602b542"}},{"fullUrl":"https://madie.cms.gov/Coverage/5fa041641c76ba66d9959343","resource":{"resourceType":"Coverage","id":"2cc76bfd-8fca-445d-b95c-5fd43c4c8065","status":"active","beneficiary":{"reference":"Patient/bc83eb4d-4953-4995-9a14-5e2a764a6728"},"period":{"start":"1974-01-02T08:00:00+00:00"},"payor":[{"reference":"Organization/4b5a882f-1f43-485c-85c6-f5ad2337d5b1"}]},"request":{"method":"PUT","url":"Coverage/2cc76bfd-8fca-445d-b95c-5fd43c4c8065"}},{"fullUrl":"https://madie.cms.gov/MedicationAdministration/warfarin-2500","resource":{"resourceType":"MedicationAdministration","id":"4fb3df28-403d-4dc5-aa1f-d316f5171272","meta":{"profile":["http://hl7.org/fhir/us/qicore/StructureDefinition/qicore-medicationadministration"]},"status":"completed","medicationCodeableConcept":{"coding":[{"system":"http://www.nlm.nih.gov/research/umls/rxnorm","code":"855288","display":"warfarin sodium 1 MG Oral Tablet","userSelected":true}]},"subject":{"reference":"Patient/bc83eb4d-4953-4995-9a14-5e2a764a6728"},"effectiveDateTime":"2025-11-01T10:00:00.000+00:00"},"request":{"method":"PUT","url":"MedicationAdministration/4fb3df28-403d-4dc5-aa1f-d316f5171272"}},{"fullUrl":"https://madie.cms.gov/Organization/123456","resource":{"resourceType":"Organization","id":"4b5a882f-1f43-485c-85c6-f5ad2337d5b1","meta":{"profile":["http://hl7.org/fhir/us/qicore/StructureDefinition/qicore-organization"]},"identifier":[{"use":"temp","system":"urn:oid:2.16.840.1.113883.4.4","value":"21-3259825"}],"active":true,"type":[{"coding":[{"system":"http://terminology.hl7.org/CodeSystem/organization-type","code":"pay","display":"Payer"}]}],"name":"Blue Cross Blue Shield of Texas","telecom":[{"system":"phone","value":"(+1) 972-766-6900"}],"address":[{"use":"billing","type":"postal","line":["P.O. Box 660044"],"city":"Dallas","state":"TX","postalCode":"75266-0044","country":"USA"}]},"request":{"method":"PUT","url":"Organization/4b5a882f-1f43-485c-85c6-f5ad2337d5b1"}},{"fullUrl":"https://madie.cms.gov/Practitioner/practitioner-123456","resource":{"resourceType":"Practitioner","id":"13add29f-6b0a-4127-886d-7826812aff2d","identifier":[{"system":"http://hl7.org/fhir/sid/us-npi","value":"123456"}],"name":[{"family":"Evil","prefix":["Dr"]}]},"request":{"method":"PUT","url":"Practitioner/13add29f-6b0a-4127-886d-7826812aff2d"}},{"fullUrl":"https://madie.cms.gov/MeasureReport/0021f2c2-9196-4dca-8fc6-584c904581b1","resource":{"resourceType":"MeasureReport","id":"0021f2c2-9196-4dca-8fc6-584c904581b1","meta":{"profile":["http://hl7.org/fhir/us/cqfmeasures/StructureDefinition/test-case-cqfm"]},"contained":[{"resourceType":"Parameters","id":"33d81974-9cf3-4b76-a02d-e8b03f423301-parameters","parameter":[{"name":"subject","valueString":"bc83eb4d-4953-4995-9a14-5e2a764a6728"}]}],"extension":[{"url":"http://hl7.org/fhir/us/cqfmeasures/StructureDefinition/cqfm-inputParameters","valueReference":{"reference":"#33d81974-9cf3-4b76-a02d-e8b03f423301-parameters"}},{"url":"http://hl7.org/fhir/us/cqfmeasures/StructureDefinition/cqfm-testCaseDescription","valueMarkdown":"TestMultipleOccur - 2 occurrences one is excluded due to COMP and one pass numerator\n"}],"modifierExtension":[{"url":"http://hl7.org/fhir/us/cqfmeasures/StructureDefinition/cqfm-isTestCase","valueBoolean":true}],"status":"complete","type":"individual","measure":"https://madie.cms.gov/Measure/VenousThromboembolismProphylaxisFHIR","period":{"start":"2025-01-01","end":"2025-12-31"},"group":[{"population":[{"code":{"coding":[{"system":"http://terminology.hl7.org/CodeSystem/measure-population","code":"initial-population","display":"Initial Population"}]},"count":2},{"code":{"coding":[{"system":"http://terminology.hl7.org/CodeSystem/measure-population","code":"denominator","display":"Denominator"}]},"count":2},{"code":{"coding":[{"system":"http://terminology.hl7.org/CodeSystem/measure-population","code":"denominator-exclusion","display":"Denominator Exclusion"}]},"count":1},{"code":{"coding":[{"system":"http://terminology.hl7.org/CodeSystem/measure-population","code":"numerator","display":"Numerator"}]},"count":1}]}]},"request":{"method":"PUT","url":"MeasureReport/0021f2c2-9196-4dca-8fc6-584c904581b1"}}]}