{"resourceType":"Bundle","id":"tests-04048fd6-1b9a-4061-a8a9-9a4879c42b04-bundle","type":"transaction","entry":[{"fullUrl":"https://madie.cms.gov/Patient/04048fd6-1b9a-4061-a8a9-9a4879c42b04","resource":{"resourceType":"Patient","id":"04048fd6-1b9a-4061-a8a9-9a4879c42b04","meta":{"profile":["http://hl7.org/fhir/us/qicore/StructureDefinition/qicore-patient"]},"text":{"status":"generated","div":"<div xmlns=\"http://www.w3.org/1999/xhtml\"><div class=\"hapiHeaderText\">INR=3_0 <b>NUMERFAIL </b></div><table class=\"hapiPropertyTable\"><tbody><tr><td>Identifier</td><td>d09a5f6238a0a6a7a798f82976fcd198</td></tr><tr><td>Date of birth</td><td><span>02 January 1974</span></td></tr></tbody></table></div>"},"extension":[{"url":"http://hl7.org/fhir/us/core/StructureDefinition/us-core-race","extension":[{"url":"ombCategory","valueCoding":{"system":"urn:oid:2.16.840.1.113883.6.238","code":"1002-5","display":"American Indian or Alaska Native","userSelected":true}},{"url":"text","valueString":"American Indian or Alaska Native"}]},{"url":"http://hl7.org/fhir/us/core/StructureDefinition/us-core-ethnicity","extension":[{"url":"ombCategory","valueCoding":{"system":"urn:oid:2.16.840.1.113883.6.238","code":"2135-2","display":"Hispanic or Latino","userSelected":true}},{"url":"text","valueString":"Hispanic or Latino"}]}],"identifier":[{"type":{"coding":[{"system":"http://terminology.hl7.org/CodeSystem/v2-0203","code":"MR"}]},"system":"https://bonnie-fhir.healthit.gov/","value":"612e6b4602c62a011f2ed217"}],"active":true,"name":[{"use":"usual","family":"NUMERFail","given":["INR3_0"]}],"gender":"male","birthDate":"1974-01-02"},"request":{"method":"PUT","url":"Patient/04048fd6-1b9a-4061-a8a9-9a4879c42b04"}},{"fullUrl":"https://madie.cms.gov/Encounter/5ca62960b8484628b8de1e6a","resource":{"resourceType":"Encounter","id":"5bcbf8df-fcb7-470d-817b-04d85f42cf3a","meta":{"profile":["http://hl7.org/fhir/us/qicore/StructureDefinition/qicore-encounter"]},"status":"finished","class":{"system":"http://terminology.hl7.org/CodeSystem/v3-ActCode","code":"IMP","display":"inpatient encounter"},"type":[{"coding":[{"system":"http://snomed.info/sct","code":"8715000"}]}],"subject":{"reference":"Patient/04048fd6-1b9a-4061-a8a9-9a4879c42b04"},"period":{"start":"2025-11-01T08:00:00+00:00","end":"2025-11-26T08:15:00+00:00"},"length":{"value":25.0,"unit":"days"}},"request":{"method":"PUT","url":"Encounter/5bcbf8df-fcb7-470d-817b-04d85f42cf3a"}},{"fullUrl":"https://madie.cms.gov/Coverage/5fa041581c76ba66d9959277","resource":{"resourceType":"Coverage","id":"9adc7ae8-32fd-44b6-94d9-76b82b18c3f3","status":"active","beneficiary":{"reference":"Patient/04048fd6-1b9a-4061-a8a9-9a4879c42b04"},"period":{"start":"1974-01-02T08:00:00+00:00"},"payor":[{"reference":"Organization/4b5a882f-1f43-485c-85c6-f5ad2337d5b1"}]},"request":{"method":"PUT","url":"Coverage/9adc7ae8-32fd-44b6-94d9-76b82b18c3f3"}},{"fullUrl":"https://madie.cms.gov/Observation/5ca62960b8484628b8de1e6b","resource":{"resourceType":"Observation","id":"0340fbe9-e43d-4561-8ed0-664a43d3d41e","meta":{"profile":["http://hl7.org/fhir/us/core/StructureDefinition/us-core-observation-lab"]},"status":"final","category":[{"coding":[{"system":"http://terminology.hl7.org/CodeSystem/observation-category","code":"laboratory","display":"Laboratory"}]}],"code":{"coding":[{"system":"http://loinc.org","code":"34714-6"}]},"subject":{"reference":"Patient/04048fd6-1b9a-4061-a8a9-9a4879c42b04"},"issued":"2025-11-01T09:00:00.000+00:00","valueQuantity":{"value":3.0,"unit":"{INR}"}},"request":{"method":"PUT","url":"Observation/0340fbe9-e43d-4561-8ed0-664a43d3d41e"}},{"fullUrl":"https://madie.cms.gov/Organization/123456","resource":{"resourceType":"Organization","id":"4b5a882f-1f43-485c-85c6-f5ad2337d5b1","meta":{"profile":["http://hl7.org/fhir/us/qicore/StructureDefinition/qicore-organization"]},"identifier":[{"use":"temp","system":"urn:oid:2.16.840.1.113883.4.4","value":"21-3259825"}],"active":true,"type":[{"coding":[{"system":"http://terminology.hl7.org/CodeSystem/organization-type","code":"pay","display":"Payer"}]}],"name":"Blue Cross Blue Shield of Texas","telecom":[{"system":"phone","value":"(+1) 972-766-6900"}],"address":[{"use":"billing","type":"postal","line":["P.O. Box 660044"],"city":"Dallas","state":"TX","postalCode":"75266-0044","country":"USA"}]},"request":{"method":"PUT","url":"Organization/4b5a882f-1f43-485c-85c6-f5ad2337d5b1"}},{"fullUrl":"https://madie.cms.gov/Practitioner/practitioner-123456","resource":{"resourceType":"Practitioner","id":"7401641c-5c00-4514-ac79-7eec3b9d52bf","identifier":[{"system":"http://hl7.org/fhir/sid/us-npi","value":"123456"}],"name":[{"family":"Evil","prefix":["Dr"]}]},"request":{"method":"PUT","url":"Practitioner/7401641c-5c00-4514-ac79-7eec3b9d52bf"}},{"fullUrl":"https://madie.cms.gov/MeasureReport/3e24a146-290d-43e4-addb-1d4fd14b9f77","resource":{"resourceType":"MeasureReport","id":"3e24a146-290d-43e4-addb-1d4fd14b9f77","meta":{"profile":["http://hl7.org/fhir/us/cqfmeasures/StructureDefinition/test-case-cqfm"]},"contained":[{"resourceType":"Parameters","id":"43837e6b-fc44-48b1-b92a-a28c97dbc53b-parameters","parameter":[{"name":"subject","valueString":"04048fd6-1b9a-4061-a8a9-9a4879c42b04"}]}],"extension":[{"url":"http://hl7.org/fhir/us/cqfmeasures/StructureDefinition/cqfm-inputParameters","valueReference":{"reference":"#43837e6b-fc44-48b1-b92a-a28c97dbc53b-parameters"}},{"url":"http://hl7.org/fhir/us/cqfmeasures/StructureDefinition/cqfm-testCaseDescription","valueMarkdown":">18, LOS<120 day.Lab INR=3.0\n"}],"modifierExtension":[{"url":"http://hl7.org/fhir/us/cqfmeasures/StructureDefinition/cqfm-isTestCase","valueBoolean":true}],"status":"complete","type":"individual","measure":"https://madie.cms.gov/Measure/VenousThromboembolismProphylaxisFHIR","period":{"start":"2025-01-01","end":"2025-12-31"},"group":[{"population":[{"code":{"coding":[{"system":"http://terminology.hl7.org/CodeSystem/measure-population","code":"initial-population","display":"Initial Population"}]},"count":1},{"code":{"coding":[{"system":"http://terminology.hl7.org/CodeSystem/measure-population","code":"denominator","display":"Denominator"}]},"count":1},{"code":{"coding":[{"system":"http://terminology.hl7.org/CodeSystem/measure-population","code":"denominator-exclusion","display":"Denominator Exclusion"}]},"count":0},{"code":{"coding":[{"system":"http://terminology.hl7.org/CodeSystem/measure-population","code":"numerator","display":"Numerator"}]},"count":0}]}]},"request":{"method":"PUT","url":"MeasureReport/3e24a146-290d-43e4-addb-1d4fd14b9f77"}}]}