{"resourceType":"Bundle","id":"tests-d170a0a8-b5ad-4303-b6df-e304dd5f92ad-bundle","type":"transaction","entry":[{"fullUrl":"https://madie.cms.gov/Patient/d170a0a8-b5ad-4303-b6df-e304dd5f92ad","resource":{"resourceType":"Patient","id":"d170a0a8-b5ad-4303-b6df-e304dd5f92ad","meta":{"profile":["http://hl7.org/fhir/us/qicore/StructureDefinition/qicore-patient"]},"text":{"status":"generated","div":"<div xmlns=\"http://www.w3.org/1999/xhtml\"><div class=\"hapiHeaderText\">PrincDxIschStroke <b>DENEXPASS </b></div><table class=\"hapiPropertyTable\"><tbody><tr><td>Identifier</td><td>29c9716eb5f48b54d7b337bf497e0e5e</td></tr><tr><td>Date of birth</td><td><span>01 December 2003</span></td></tr></tbody></table></div>"},"extension":[{"url":"http://hl7.org/fhir/us/core/StructureDefinition/us-core-race","extension":[{"url":"ombCategory","valueCoding":{"system":"urn:oid:2.16.840.1.113883.6.238","code":"1002-5","display":"American Indian or Alaska Native","userSelected":true}},{"url":"text","valueString":"American Indian or Alaska Native"}]},{"url":"http://hl7.org/fhir/us/core/StructureDefinition/us-core-ethnicity","extension":[{"url":"ombCategory","valueCoding":{"system":"urn:oid:2.16.840.1.113883.6.238","code":"2135-2","display":"Hispanic or Latino","userSelected":true}},{"url":"text","valueString":"Hispanic or Latino"}]}],"identifier":[{"type":{"coding":[{"system":"http://terminology.hl7.org/CodeSystem/v2-0203","code":"MR"}]},"system":"https://bonnie-fhir.healthit.gov/","value":"612e6afd02c62a011f2ec06f"}],"active":true,"name":[{"use":"usual","family":"DENEXPass","given":["PrincDxIschStroke"]}],"gender":"male","birthDate":"2002-12-01"},"request":{"method":"PUT","url":"Patient/d170a0a8-b5ad-4303-b6df-e304dd5f92ad"}},{"fullUrl":"https://madie.cms.gov/Encounter/5ca62962b8484628b8de1eb4","resource":{"resourceType":"Encounter","id":"f010d1c7-e07d-4af6-a105-c93d73ee947f","meta":{"profile":["http://hl7.org/fhir/us/qicore/StructureDefinition/qicore-encounter"]},"status":"finished","class":{"system":"http://terminology.hl7.org/CodeSystem/v3-ActCode","code":"IMP","display":"inpatient encounter"},"type":[{"coding":[{"system":"http://snomed.info/sct","code":"183452005"}]}],"subject":{"reference":"Patient/d170a0a8-b5ad-4303-b6df-e304dd5f92ad"},"period":{"start":"2025-12-01T00:00:00+00:00","end":"2025-12-31T23:59:00+00:00"},"length":{"value":30,"unit":"days"},"diagnosis":[{"condition":{"reference":"Condition/ischemic-stroke-1c3c"},"use":{"coding":[{"system":"http://terminology.hl7.org/CodeSystem/diagnosis-role","code":"billing"}]},"rank":1}]},"request":{"method":"PUT","url":"Encounter/f010d1c7-e07d-4af6-a105-c93d73ee947f"}},{"fullUrl":"https://madie.cms.gov/Coverage/5fa041661c76ba66d9959367","resource":{"resourceType":"Coverage","id":"7faa719a-2ec5-4303-b068-d47636806adc","status":"active","beneficiary":{"reference":"Patient/d170a0a8-b5ad-4303-b6df-e304dd5f92ad"},"period":{"start":"2003-12-01T01:00:00+00:00"},"payor":[{"reference":"Organization/4b5a882f-1f43-485c-85c6-f5ad2337d5b1"}]},"request":{"method":"PUT","url":"Coverage/7faa719a-2ec5-4303-b068-d47636806adc"}},{"fullUrl":"https://madie.cms.gov/Condition/ischemic-stroke-1c3c","resource":{"resourceType":"Condition","id":"e538d4e6-8eeb-4662-979a-0bbed4990bf8","meta":{"profile":["http://hl7.org/fhir/us/qicore/StructureDefinition/qicore-condition"]},"category":[{"coding":[{"system":"http://terminology.hl7.org/CodeSystem/condition-category","code":"encounter-diagnosis","display":"Encounter Diagnosis"}]}],"code":{"coding":[{"system":"http://snomed.info/sct","version":"2025-03","code":"111297002","display":"Nonparalytic stroke (disorder)","userSelected":true}]},"subject":{"reference":"Patient/d170a0a8-b5ad-4303-b6df-e304dd5f92ad"},"recordedDate":"2025-07-13T08:00:00.000+00:00"},"request":{"method":"PUT","url":"Condition/e538d4e6-8eeb-4662-979a-0bbed4990bf8"}},{"fullUrl":"https://madie.cms.gov/Organization/123456","resource":{"resourceType":"Organization","id":"4b5a882f-1f43-485c-85c6-f5ad2337d5b1","meta":{"profile":["http://hl7.org/fhir/us/qicore/StructureDefinition/qicore-organization"]},"identifier":[{"use":"temp","system":"urn:oid:2.16.840.1.113883.4.4","value":"21-3259825"}],"active":true,"type":[{"coding":[{"system":"http://terminology.hl7.org/CodeSystem/organization-type","code":"pay","display":"Payer"}]}],"name":"Blue Cross Blue Shield of Texas","telecom":[{"system":"phone","value":"(+1) 972-766-6900"}],"address":[{"use":"billing","type":"postal","line":["P.O. Box 660044"],"city":"Dallas","state":"TX","postalCode":"75266-0044","country":"USA"}]},"request":{"method":"PUT","url":"Organization/4b5a882f-1f43-485c-85c6-f5ad2337d5b1"}},{"fullUrl":"https://madie.cms.gov/Practitioner/practitioner-123456","resource":{"resourceType":"Practitioner","id":"6f6ebd31-4c06-4da6-85d4-d3bcbbf36d9a","identifier":[{"system":"http://hl7.org/fhir/sid/us-npi","value":"123456"}],"name":[{"family":"Evil","prefix":["Dr"]}]},"request":{"method":"PUT","url":"Practitioner/6f6ebd31-4c06-4da6-85d4-d3bcbbf36d9a"}},{"fullUrl":"https://madie.cms.gov/MeasureReport/1d9db2dc-5d8f-40b0-bfbc-9e8d05dc997c","resource":{"resourceType":"MeasureReport","id":"1d9db2dc-5d8f-40b0-bfbc-9e8d05dc997c","meta":{"profile":["http://hl7.org/fhir/us/cqfmeasures/StructureDefinition/test-case-cqfm"]},"contained":[{"resourceType":"Parameters","id":"259e1d22-fe80-4397-ba3b-531be99c5e77-parameters","parameter":[{"name":"subject","valueString":"d170a0a8-b5ad-4303-b6df-e304dd5f92ad"}]}],"extension":[{"url":"http://hl7.org/fhir/us/cqfmeasures/StructureDefinition/cqfm-inputParameters","valueReference":{"reference":"#259e1d22-fe80-4397-ba3b-531be99c5e77-parameters"}},{"url":"http://hl7.org/fhir/us/cqfmeasures/StructureDefinition/cqfm-testCaseDescription","valueMarkdown":"Principal Dx of IschStroke, also test Race and Gender\n"}],"modifierExtension":[{"url":"http://hl7.org/fhir/us/cqfmeasures/StructureDefinition/cqfm-isTestCase","valueBoolean":true}],"status":"complete","type":"individual","measure":"https://madie.cms.gov/Measure/VenousThromboembolismProphylaxisFHIR","period":{"start":"2025-01-01","end":"2025-12-31"},"group":[{"population":[{"code":{"coding":[{"system":"http://terminology.hl7.org/CodeSystem/measure-population","code":"initial-population","display":"Initial Population"}]},"count":1},{"code":{"coding":[{"system":"http://terminology.hl7.org/CodeSystem/measure-population","code":"denominator","display":"Denominator"}]},"count":1},{"code":{"coding":[{"system":"http://terminology.hl7.org/CodeSystem/measure-population","code":"denominator-exclusion","display":"Denominator Exclusion"}]},"count":1},{"code":{"coding":[{"system":"http://terminology.hl7.org/CodeSystem/measure-population","code":"numerator","display":"Numerator"}]},"count":0}]}]},"request":{"method":"PUT","url":"MeasureReport/1d9db2dc-5d8f-40b0-bfbc-9e8d05dc997c"}}]}