{"resourceType":"Bundle","id":"tests-5da7c3c7-9663-47f5-90b8-b1e754127a6f-bundle","type":"transaction","entry":[{"fullUrl":"https://madie.cms.gov/Patient/5da7c3c7-9663-47f5-90b8-b1e754127a6f","resource":{"resourceType":"Patient","id":"5da7c3c7-9663-47f5-90b8-b1e754127a6f","meta":{"profile":["http://hl7.org/fhir/us/qicore/StructureDefinition/qicore-patient"]},"text":{"status":"generated","div":"<div xmlns=\"http://www.w3.org/1999/xhtml\"><div class=\"hapiHeaderText\">DA_IPC_DayOfAnes_ProcRvltDT <b>NUMERPASS </b></div><table class=\"hapiPropertyTable\"><tbody><tr><td>Identifier</td><td>1961fbe2390b043fd8bdab11cc421834</td></tr><tr><td>Date of birth</td><td><span>02 January 1974</span></td></tr></tbody></table></div>"},"extension":[{"url":"http://hl7.org/fhir/us/core/StructureDefinition/us-core-race","extension":[{"url":"ombCategory","valueCoding":{"system":"urn:oid:2.16.840.1.113883.6.238","code":"1002-5","display":"American Indian or Alaska Native","userSelected":true}},{"url":"text","valueString":"American Indian or Alaska Native"}]},{"url":"http://hl7.org/fhir/us/core/StructureDefinition/us-core-ethnicity","extension":[{"url":"ombCategory","valueCoding":{"system":"urn:oid:2.16.840.1.113883.6.238","code":"2135-2","display":"Hispanic or Latino","userSelected":true}},{"url":"text","valueString":"Hispanic or Latino"}]}],"identifier":[{"type":{"coding":[{"system":"http://terminology.hl7.org/CodeSystem/v2-0203","code":"MR"}]},"system":"https://bonnie-fhir.healthit.gov/","value":"612e6a5902c62a011f2e9c30"}],"active":true,"name":[{"use":"usual","family":"NUMERPass","given":["DA_IPC_DayOfAnes_ProcRvltDT"]}],"gender":"male","birthDate":"1974-01-02"},"request":{"method":"PUT","url":"Patient/5da7c3c7-9663-47f5-90b8-b1e754127a6f"}},{"fullUrl":"https://madie.cms.gov/Encounter/5ca6295cb8484628b8de1d2f","resource":{"resourceType":"Encounter","id":"5c03cbe2-997b-4790-a27c-7597a0b021f3","meta":{"profile":["http://hl7.org/fhir/us/qicore/StructureDefinition/qicore-encounter"]},"status":"finished","class":{"system":"http://terminology.hl7.org/CodeSystem/v3-ActCode","code":"IMP","display":"inpatient encounter"},"type":[{"coding":[{"system":"http://snomed.info/sct","code":"8715000"}]}],"subject":{"reference":"Patient/5da7c3c7-9663-47f5-90b8-b1e754127a6f"},"period":{"start":"2025-11-01T08:00:00+00:00","end":"2025-11-26T08:15:00+00:00"},"length":{"value":25.0,"unit":"days"}},"request":{"method":"PUT","url":"Encounter/5c03cbe2-997b-4790-a27c-7597a0b021f3"}},{"fullUrl":"https://madie.cms.gov/Coverage/5fa041481c76ba66d9959163","resource":{"resourceType":"Coverage","id":"863aef47-7c3b-4c86-be39-7218968d3690","status":"active","beneficiary":{"reference":"Patient/5da7c3c7-9663-47f5-90b8-b1e754127a6f"},"period":{"start":"1974-01-02T08:00:00+00:00"},"payor":[{"reference":"Organization/4b5a882f-1f43-485c-85c6-f5ad2337d5b1"}]},"request":{"method":"PUT","url":"Coverage/863aef47-7c3b-4c86-be39-7218968d3690"}},{"fullUrl":"https://madie.cms.gov/Procedure/5ca6295cb8484628b8de1d30","resource":{"resourceType":"Procedure","id":"be8159bf-0144-4ecd-9ebd-b40842e9364d","meta":{"profile":["http://hl7.org/fhir/us/qicore/StructureDefinition/qicore-procedure"]},"extension":[{"url":"http://hl7.org/fhir/us/qicore/StructureDefinition/qicore-recorded","valueDateTime":"2012-11-02T09:35:00-04:00"}],"status":"completed","code":{"coding":[{"system":"http://snomed.info/sct","code":"443448006","display":"Application of intermittent pneumatic compression device (procedure)"}]},"subject":{"reference":"Patient/5da7c3c7-9663-47f5-90b8-b1e754127a6f"},"performedDateTime":"2025-11-01T11:00:00+00:00"},"request":{"method":"PUT","url":"Procedure/be8159bf-0144-4ecd-9ebd-b40842e9364d"}},{"fullUrl":"https://madie.cms.gov/Procedure/5ca6295cb8484628b8de1d31","resource":{"resourceType":"Procedure","id":"eaefb564-cf03-43f7-9c68-3e5c841d74a8","meta":{"profile":["http://hl7.org/fhir/us/qicore/StructureDefinition/qicore-procedure"]},"extension":[{"url":"http://hl7.org/fhir/us/qicore/StructureDefinition/qicore-recorded","valueDateTime":"2012-11-02T09:35:00-04:00"}],"status":"completed","code":{"coding":[{"system":"http://snomed.info/sct","code":"18946005"}]},"subject":{"reference":"Patient/5da7c3c7-9663-47f5-90b8-b1e754127a6f"},"performedPeriod":{"start":"2025-11-01T09:00:00+00:00","end":"2025-11-01T09:15:00+00:00"}},"request":{"method":"PUT","url":"Procedure/eaefb564-cf03-43f7-9c68-3e5c841d74a8"}},{"fullUrl":"https://madie.cms.gov/Procedure/device-application-f805","resource":{"resourceType":"Procedure","id":"7b079cca-ab97-4d7a-8ac3-eee7dc44c4a6","status":"completed","code":{"coding":[{"system":"http://snomed.info/sct","version":"2025-03","code":"360030002","display":"Application of device (procedure)","userSelected":true}]},"subject":{"reference":"Patient/5da7c3c7-9663-47f5-90b8-b1e754127a6f"},"performedDateTime":"2025-11-01T11:00:00.000+00:00","usedCode":[{"coding":[{"system":"http://snomed.info/sct","code":"428411000124104","display":"Intermittent pneumatic compression boot (physical object)","userSelected":true}]}]},"request":{"method":"PUT","url":"Procedure/7b079cca-ab97-4d7a-8ac3-eee7dc44c4a6"}},{"fullUrl":"https://madie.cms.gov/Organization/123456","resource":{"resourceType":"Organization","id":"4b5a882f-1f43-485c-85c6-f5ad2337d5b1","meta":{"profile":["http://hl7.org/fhir/us/qicore/StructureDefinition/qicore-organization"]},"identifier":[{"use":"temp","system":"urn:oid:2.16.840.1.113883.4.4","value":"21-3259825"}],"active":true,"type":[{"coding":[{"system":"http://terminology.hl7.org/CodeSystem/organization-type","code":"pay","display":"Payer"}]}],"name":"Blue Cross Blue Shield of Texas","telecom":[{"system":"phone","value":"(+1) 972-766-6900"}],"address":[{"use":"billing","type":"postal","line":["P.O. Box 660044"],"city":"Dallas","state":"TX","postalCode":"75266-0044","country":"USA"}]},"request":{"method":"PUT","url":"Organization/4b5a882f-1f43-485c-85c6-f5ad2337d5b1"}},{"fullUrl":"https://madie.cms.gov/Practitioner/practitioner-123456","resource":{"resourceType":"Practitioner","id":"da320d44-170e-4aa8-8410-77bd20efb3fe","identifier":[{"system":"http://hl7.org/fhir/sid/us-npi","value":"123456"}],"name":[{"family":"Evil","prefix":["Dr"]}]},"request":{"method":"PUT","url":"Practitioner/da320d44-170e-4aa8-8410-77bd20efb3fe"}},{"fullUrl":"https://madie.cms.gov/MeasureReport/0f13a1e0-2bd1-4552-abaf-932c080c5c6d","resource":{"resourceType":"MeasureReport","id":"0f13a1e0-2bd1-4552-abaf-932c080c5c6d","meta":{"profile":["http://hl7.org/fhir/us/cqfmeasures/StructureDefinition/test-case-cqfm"]},"contained":[{"resourceType":"Parameters","id":"2b3db4bb-0387-4ac2-baae-be3105edf0a1-parameters","parameter":[{"name":"subject","valueString":"5da7c3c7-9663-47f5-90b8-b1e754127a6f"}]}],"extension":[{"url":"http://hl7.org/fhir/us/cqfmeasures/StructureDefinition/cqfm-inputParameters","valueReference":{"reference":"#2b3db4bb-0387-4ac2-baae-be3105edf0a1-parameters"}},{"url":"http://hl7.org/fhir/us/cqfmeasures/StructureDefinition/cqfm-testCaseDescription","valueMarkdown":"IPC =0 day after end of anesthesia\n"}],"modifierExtension":[{"url":"http://hl7.org/fhir/us/cqfmeasures/StructureDefinition/cqfm-isTestCase","valueBoolean":true}],"status":"complete","type":"individual","measure":"https://madie.cms.gov/Measure/VenousThromboembolismProphylaxisFHIR","period":{"start":"2025-01-01","end":"2025-12-31"},"group":[{"population":[{"code":{"coding":[{"system":"http://terminology.hl7.org/CodeSystem/measure-population","code":"initial-population","display":"Initial Population"}]},"count":1},{"code":{"coding":[{"system":"http://terminology.hl7.org/CodeSystem/measure-population","code":"denominator","display":"Denominator"}]},"count":1},{"code":{"coding":[{"system":"http://terminology.hl7.org/CodeSystem/measure-population","code":"denominator-exclusion","display":"Denominator Exclusion"}]},"count":0},{"code":{"coding":[{"system":"http://terminology.hl7.org/CodeSystem/measure-population","code":"numerator","display":"Numerator"}]},"count":1}]}]},"request":{"method":"PUT","url":"MeasureReport/0f13a1e0-2bd1-4552-abaf-932c080c5c6d"}}]}