{"resourceType":"Bundle","id":"tests-265998f3-4ef6-4345-8ae1-fb6ab204318e-bundle","type":"transaction","entry":[{"fullUrl":"https://madie.cms.gov/Patient/265998f3-4ef6-4345-8ae1-fb6ab204318e","resource":{"resourceType":"Patient","id":"265998f3-4ef6-4345-8ae1-fb6ab204318e","meta":{"profile":["http://hl7.org/fhir/us/qicore/StructureDefinition/qicore-patient"]},"text":{"status":"generated","div":"<div xmlns=\"http://www.w3.org/1999/xhtml\"><div class=\"hapiHeaderText\">MAOralXaApixabanNoSurg<b>NUMERFAIL </b></div><table class=\"hapiPropertyTable\"><tbody><tr><td>Identifier</td><td>b81b91feb2f1861f7a98223048a9e521</td></tr><tr><td>Date of birth</td><td><span>02 January 1974</span></td></tr></tbody></table></div>"},"extension":[{"url":"http://hl7.org/fhir/us/core/StructureDefinition/us-core-race","extension":[{"url":"ombCategory","valueCoding":{"system":"urn:oid:2.16.840.1.113883.6.238","code":"1002-5","display":"American Indian or Alaska Native","userSelected":true}},{"url":"text","valueString":"American Indian or Alaska Native"}]},{"url":"http://hl7.org/fhir/us/core/StructureDefinition/us-core-ethnicity","extension":[{"url":"ombCategory","valueCoding":{"system":"urn:oid:2.16.840.1.113883.6.238","code":"2135-2","display":"Hispanic or Latino","userSelected":true}},{"url":"text","valueString":"Hispanic or Latino"}]}],"identifier":[{"type":{"coding":[{"system":"http://terminology.hl7.org/CodeSystem/v2-0203","code":"MR"}]},"system":"https://bonnie-fhir.healthit.gov/","value":"612e6b5402c62a011f2ed56f"}],"active":true,"name":[{"use":"usual","family":"NUMERFail","given":["MAOralXaApixabanNoSurg"]}],"gender":"male","birthDate":"1974-01-02"},"request":{"method":"PUT","url":"Patient/265998f3-4ef6-4345-8ae1-fb6ab204318e"}},{"fullUrl":"https://madie.cms.gov/Encounter/5ca62961b8484628b8de1e93","resource":{"resourceType":"Encounter","id":"aa5c3c0c-0114-4f49-a970-0c381a8c2b94","meta":{"profile":["http://hl7.org/fhir/us/qicore/StructureDefinition/qicore-encounter"]},"status":"finished","class":{"system":"http://terminology.hl7.org/CodeSystem/v3-ActCode","code":"IMP","display":"inpatient encounter"},"type":[{"coding":[{"system":"http://snomed.info/sct","code":"8715000"}]}],"subject":{"reference":"Patient/265998f3-4ef6-4345-8ae1-fb6ab204318e"},"period":{"start":"2025-11-01T08:00:00+00:00","end":"2025-11-26T08:15:00+00:00"},"length":{"value":25.0,"unit":"days"}},"request":{"method":"PUT","url":"Encounter/aa5c3c0c-0114-4f49-a970-0c381a8c2b94"}},{"fullUrl":"https://madie.cms.gov/Coverage/5fa0415a1c76ba66d9959295","resource":{"resourceType":"Coverage","id":"4a838508-8637-458f-a82d-77d43393dcc9","status":"active","beneficiary":{"reference":"Patient/265998f3-4ef6-4345-8ae1-fb6ab204318e"},"period":{"start":"1974-01-02T08:00:00+00:00"},"payor":[{"reference":"Organization/4b5a882f-1f43-485c-85c6-f5ad2337d5b1"}]},"request":{"method":"PUT","url":"Coverage/4a838508-8637-458f-a82d-77d43393dcc9"}},{"fullUrl":"https://madie.cms.gov/MedicationAdministration/5ca62961b8484628b8de1e94","resource":{"resourceType":"MedicationAdministration","id":"1492b830-c65d-4a9b-adf4-606ca4f0be44","meta":{"profile":["http://hl7.org/fhir/us/qicore/StructureDefinition/qicore-medicationadministration"]},"status":"completed","medicationCodeableConcept":{"coding":[{"system":"http://www.nlm.nih.gov/research/umls/rxnorm","code":"1364435"}]},"subject":{"reference":"Patient/265998f3-4ef6-4345-8ae1-fb6ab204318e"},"effectivePeriod":{"start":"2025-11-01T09:00:00+00:00"}},"request":{"method":"PUT","url":"MedicationAdministration/1492b830-c65d-4a9b-adf4-606ca4f0be44"}},{"fullUrl":"https://madie.cms.gov/Organization/123456","resource":{"resourceType":"Organization","id":"4b5a882f-1f43-485c-85c6-f5ad2337d5b1","meta":{"profile":["http://hl7.org/fhir/us/qicore/StructureDefinition/qicore-organization"]},"identifier":[{"use":"temp","system":"urn:oid:2.16.840.1.113883.4.4","value":"21-3259825"}],"active":true,"type":[{"coding":[{"system":"http://terminology.hl7.org/CodeSystem/organization-type","code":"pay","display":"Payer"}]}],"name":"Blue Cross Blue Shield of Texas","telecom":[{"system":"phone","value":"(+1) 972-766-6900"}],"address":[{"use":"billing","type":"postal","line":["P.O. Box 660044"],"city":"Dallas","state":"TX","postalCode":"75266-0044","country":"USA"}]},"request":{"method":"PUT","url":"Organization/4b5a882f-1f43-485c-85c6-f5ad2337d5b1"}},{"fullUrl":"https://madie.cms.gov/Practitioner/practitioner-123456","resource":{"resourceType":"Practitioner","id":"cfb311e9-0b99-4923-832b-d3a2dfc65684","identifier":[{"system":"http://hl7.org/fhir/sid/us-npi","value":"123456"}],"name":[{"family":"Evil","prefix":["Dr"]}]},"request":{"method":"PUT","url":"Practitioner/cfb311e9-0b99-4923-832b-d3a2dfc65684"}},{"fullUrl":"https://madie.cms.gov/MeasureReport/6985c3cc-4a98-456a-89a4-e419aa5bb524","resource":{"resourceType":"MeasureReport","id":"6985c3cc-4a98-456a-89a4-e419aa5bb524","meta":{"profile":["http://hl7.org/fhir/us/cqfmeasures/StructureDefinition/test-case-cqfm"]},"contained":[{"resourceType":"Parameters","id":"9f8943d5-edc9-498d-bc45-1f68609f2e25-parameters","parameter":[{"name":"subject","valueString":"265998f3-4ef6-4345-8ae1-fb6ab204318e"}]}],"extension":[{"url":"http://hl7.org/fhir/us/cqfmeasures/StructureDefinition/cqfm-inputParameters","valueReference":{"reference":"#9f8943d5-edc9-498d-bc45-1f68609f2e25-parameters"}},{"url":"http://hl7.org/fhir/us/cqfmeasures/StructureDefinition/cqfm-testCaseDescription","valueMarkdown":">18, LOS<120 day. received Oral FactorXa (apixaban)but does not have a paired diagnosis or procedure required to meet the numerator logic\n"}],"modifierExtension":[{"url":"http://hl7.org/fhir/us/cqfmeasures/StructureDefinition/cqfm-isTestCase","valueBoolean":true}],"status":"complete","type":"individual","measure":"https://madie.cms.gov/Measure/VenousThromboembolismProphylaxisFHIR","period":{"start":"2025-01-01","end":"2025-12-31"},"group":[{"population":[{"code":{"coding":[{"system":"http://terminology.hl7.org/CodeSystem/measure-population","code":"initial-population","display":"Initial Population"}]},"count":1},{"code":{"coding":[{"system":"http://terminology.hl7.org/CodeSystem/measure-population","code":"denominator","display":"Denominator"}]},"count":1},{"code":{"coding":[{"system":"http://terminology.hl7.org/CodeSystem/measure-population","code":"denominator-exclusion","display":"Denominator Exclusion"}]},"count":0},{"code":{"coding":[{"system":"http://terminology.hl7.org/CodeSystem/measure-population","code":"numerator","display":"Numerator"}]},"count":0}]}]},"request":{"method":"PUT","url":"MeasureReport/6985c3cc-4a98-456a-89a4-e419aa5bb524"}}]}