{"resourceType":"Bundle","id":"tests-810ee9c4-bb4d-43b6-a552-d7326e9e7a7b-bundle","type":"transaction","entry":[{"fullUrl":"https://madie.cms.gov/Patient/810ee9c4-bb4d-43b6-a552-d7326e9e7a7b","resource":{"resourceType":"Patient","id":"810ee9c4-bb4d-43b6-a552-d7326e9e7a7b","meta":{"profile":["http://hl7.org/fhir/us/qicore/StructureDefinition/qicore-patient"]},"text":{"status":"generated","div":"<div xmlns=\"http://www.w3.org/1999/xhtml\"><div class=\"hapiHeaderText\">VTE_RiskAssess_IPEnc <b>NUMERPASS </b></div><table class=\"hapiPropertyTable\"><tbody><tr><td>Identifier</td><td>a62a5b0e4cff99540c5cc7035df016ac</td></tr><tr><td>Date of birth</td><td><span>02 January 1974</span></td></tr></tbody></table></div>"},"extension":[{"url":"http://hl7.org/fhir/us/core/StructureDefinition/us-core-race","extension":[{"url":"ombCategory","valueCoding":{"system":"urn:oid:2.16.840.1.113883.6.238","code":"1002-5","display":"American Indian or Alaska Native","userSelected":true}},{"url":"text","valueString":"American Indian or Alaska Native"}]},{"url":"http://hl7.org/fhir/us/core/StructureDefinition/us-core-ethnicity","extension":[{"url":"ombCategory","valueCoding":{"system":"urn:oid:2.16.840.1.113883.6.238","code":"2135-2","display":"Hispanic or Latino","userSelected":true}},{"url":"text","valueString":"Hispanic or Latino"}]}],"identifier":[{"type":{"coding":[{"system":"http://terminology.hl7.org/CodeSystem/v2-0203","code":"MR"}]},"system":"https://bonnie-fhir.healthit.gov/","value":"612e6a6702c62a011f2e9fb5"}],"active":true,"name":[{"use":"usual","family":"NUMERPass","given":["VTE_RiskAssess_IPEnc"]}],"gender":"male","birthDate":"1974-01-02"},"request":{"method":"PUT","url":"Patient/810ee9c4-bb4d-43b6-a552-d7326e9e7a7b"}},{"fullUrl":"https://madie.cms.gov/Encounter/5ca6295cb8484628b8de1d10","resource":{"resourceType":"Encounter","id":"44fe96ab-d53b-4b08-bf2c-9e56533aa244","meta":{"profile":["http://hl7.org/fhir/us/qicore/StructureDefinition/qicore-encounter"]},"status":"finished","class":{"system":"http://terminology.hl7.org/CodeSystem/v3-ActCode","code":"IMP","display":"inpatient encounter"},"type":[{"coding":[{"system":"http://snomed.info/sct","code":"8715000"}]}],"subject":{"reference":"Patient/810ee9c4-bb4d-43b6-a552-d7326e9e7a7b"},"period":{"start":"2025-11-01T08:00:00+00:00","end":"2025-11-26T08:15:00+00:00"},"length":{"value":25.0,"unit":"days"}},"request":{"method":"PUT","url":"Encounter/44fe96ab-d53b-4b08-bf2c-9e56533aa244"}},{"fullUrl":"https://madie.cms.gov/Observation/5ca6295cb8484628b8de1d11","resource":{"resourceType":"Observation","id":"ba63065c-0835-48c3-a041-83fd6ef7420e","meta":{"profile":["http://hl7.org/fhir/us/qicore/StructureDefinition/qicore-observation"]},"status":"final","category":[{"coding":[{"system":"http://terminology.hl7.org/CodeSystem/observation-category","code":"exam","display":"exam"}]}],"code":{"coding":[{"system":"http://loinc.org","code":"72136-5"}]},"subject":{"reference":"Patient/810ee9c4-bb4d-43b6-a552-d7326e9e7a7b"},"effectiveDateTime":"2025-11-01T09:00:00+00:00","valueCodeableConcept":{"coding":[{"system":"http://snomed.info/sct","code":"260362008","display":"Low Risk"}]}},"request":{"method":"PUT","url":"Observation/ba63065c-0835-48c3-a041-83fd6ef7420e"}},{"fullUrl":"https://madie.cms.gov/Coverage/5fa0414c1c76ba66d99591a8","resource":{"resourceType":"Coverage","id":"ef2d5320-f1a2-46c5-a260-98c25d42c22a","status":"active","beneficiary":{"reference":"Patient/810ee9c4-bb4d-43b6-a552-d7326e9e7a7b"},"period":{"start":"1974-01-02T08:00:00+00:00"},"payor":[{"reference":"Organization/4b5a882f-1f43-485c-85c6-f5ad2337d5b1"}]},"request":{"method":"PUT","url":"Coverage/ef2d5320-f1a2-46c5-a260-98c25d42c22a"}},{"fullUrl":"https://madie.cms.gov/Organization/123456","resource":{"resourceType":"Organization","id":"4b5a882f-1f43-485c-85c6-f5ad2337d5b1","meta":{"profile":["http://hl7.org/fhir/us/qicore/StructureDefinition/qicore-organization"]},"identifier":[{"use":"temp","system":"urn:oid:2.16.840.1.113883.4.4","value":"21-3259825"}],"active":true,"type":[{"coding":[{"system":"http://terminology.hl7.org/CodeSystem/organization-type","code":"pay","display":"Payer"}]}],"name":"Blue Cross Blue Shield of Texas","telecom":[{"system":"phone","value":"(+1) 972-766-6900"}],"address":[{"use":"billing","type":"postal","line":["P.O. Box 660044"],"city":"Dallas","state":"TX","postalCode":"75266-0044","country":"USA"}]},"request":{"method":"PUT","url":"Organization/4b5a882f-1f43-485c-85c6-f5ad2337d5b1"}},{"fullUrl":"https://madie.cms.gov/Practitioner/practitioner-123456","resource":{"resourceType":"Practitioner","id":"09761065-fedc-41f7-be85-1a5cc471b253","identifier":[{"system":"http://hl7.org/fhir/sid/us-npi","value":"123456"}],"name":[{"family":"Evil","prefix":["Dr"]}]},"request":{"method":"PUT","url":"Practitioner/09761065-fedc-41f7-be85-1a5cc471b253"}},{"fullUrl":"https://madie.cms.gov/MeasureReport/6e7e1134-d45d-4175-b6e4-331eff4bcdb9","resource":{"resourceType":"MeasureReport","id":"6e7e1134-d45d-4175-b6e4-331eff4bcdb9","meta":{"profile":["http://hl7.org/fhir/us/cqfmeasures/StructureDefinition/test-case-cqfm"]},"contained":[{"resourceType":"Parameters","id":"b2677dc6-a8fc-4e8a-9a8f-802b355244d3-parameters","parameter":[{"name":"subject","valueString":"810ee9c4-bb4d-43b6-a552-d7326e9e7a7b"}]}],"extension":[{"url":"http://hl7.org/fhir/us/cqfmeasures/StructureDefinition/cqfm-inputParameters","valueReference":{"reference":"#b2677dc6-a8fc-4e8a-9a8f-802b355244d3-parameters"}},{"url":"http://hl7.org/fhir/us/cqfmeasures/StructureDefinition/cqfm-testCaseDescription","valueMarkdown":"vte risk assessment low risk < = 1 day after start of IP encounter\n"}],"modifierExtension":[{"url":"http://hl7.org/fhir/us/cqfmeasures/StructureDefinition/cqfm-isTestCase","valueBoolean":true}],"status":"complete","type":"individual","measure":"https://madie.cms.gov/Measure/VenousThromboembolismProphylaxisFHIR","period":{"start":"2025-01-01","end":"2025-12-31"},"group":[{"population":[{"code":{"coding":[{"system":"http://terminology.hl7.org/CodeSystem/measure-population","code":"initial-population","display":"Initial Population"}]},"count":1},{"code":{"coding":[{"system":"http://terminology.hl7.org/CodeSystem/measure-population","code":"denominator","display":"Denominator"}]},"count":1},{"code":{"coding":[{"system":"http://terminology.hl7.org/CodeSystem/measure-population","code":"denominator-exclusion","display":"Denominator Exclusion"}]},"count":0},{"code":{"coding":[{"system":"http://terminology.hl7.org/CodeSystem/measure-population","code":"numerator","display":"Numerator"}]},"count":1}]}]},"request":{"method":"PUT","url":"MeasureReport/6e7e1134-d45d-4175-b6e4-331eff4bcdb9"}}]}