{"resourceType":"Bundle","id":"tests-4c2e4fec-cf58-4a6e-be40-af9b9e4232c9-bundle","type":"transaction","entry":[{"fullUrl":"https://madie.cms.gov/Patient/4c2e4fec-cf58-4a6e-be40-af9b9e4232c9","resource":{"resourceType":"Patient","id":"4c2e4fec-cf58-4a6e-be40-af9b9e4232c9","meta":{"profile":["http://hl7.org/fhir/us/qicore/StructureDefinition/qicore-patient"]},"text":{"status":"generated","div":"<div xmlns=\"http://www.w3.org/1999/xhtml\"><div class=\"hapiHeaderText\">DA_GSC1DayAFAnes <b>NUMERPASS </b></div><table class=\"hapiPropertyTable\"><tbody><tr><td>Identifier</td><td>081503312e821de786b971069bc2afb0</td></tr><tr><td>Date of birth</td><td><span>02 January 1974</span></td></tr></tbody></table></div>"},"extension":[{"url":"http://hl7.org/fhir/us/core/StructureDefinition/us-core-race","extension":[{"url":"ombCategory","valueCoding":{"system":"urn:oid:2.16.840.1.113883.6.238","code":"1002-5","display":"American Indian or Alaska Native","userSelected":true}},{"url":"text","valueString":"American Indian or Alaska Native"}]},{"url":"http://hl7.org/fhir/us/core/StructureDefinition/us-core-ethnicity","extension":[{"url":"ombCategory","valueCoding":{"system":"urn:oid:2.16.840.1.113883.6.238","code":"2135-2","display":"Hispanic or Latino","userSelected":true}},{"url":"text","valueString":"Hispanic or Latino"}]}],"identifier":[{"type":{"coding":[{"system":"http://terminology.hl7.org/CodeSystem/v2-0203","code":"MR"}]},"system":"https://bonnie-fhir.healthit.gov/","value":"612e6a8202c62a011f2ea365"}],"active":true,"name":[{"use":"usual","family":"NUMERPass","given":["DA_GSC1DayAFAnes"]}],"gender":"male","birthDate":"1974-01-02"},"request":{"method":"PUT","url":"Patient/4c2e4fec-cf58-4a6e-be40-af9b9e4232c9"}},{"fullUrl":"https://madie.cms.gov/Encounter/5ca6295fb8484628b8de1da5","resource":{"resourceType":"Encounter","id":"edb5455b-efa8-4142-9334-eaa2471762b9","meta":{"profile":["http://hl7.org/fhir/us/qicore/StructureDefinition/qicore-encounter"]},"status":"finished","class":{"system":"http://terminology.hl7.org/CodeSystem/v3-ActCode","code":"IMP","display":"inpatient encounter"},"type":[{"coding":[{"system":"http://snomed.info/sct","code":"8715000"}]}],"subject":{"reference":"Patient/4c2e4fec-cf58-4a6e-be40-af9b9e4232c9"},"period":{"start":"2025-11-01T08:00:00+00:00","end":"2025-11-26T08:15:00+00:00"},"length":{"value":25.0,"unit":"days"}},"request":{"method":"PUT","url":"Encounter/edb5455b-efa8-4142-9334-eaa2471762b9"}},{"fullUrl":"https://madie.cms.gov/Coverage/5fa0414e1c76ba66d99591cc","resource":{"resourceType":"Coverage","id":"2fbe5ce6-4724-4445-99da-4f403e370c39","status":"active","beneficiary":{"reference":"Patient/4c2e4fec-cf58-4a6e-be40-af9b9e4232c9"},"period":{"start":"1974-01-02T08:00:00+00:00"},"payor":[{"reference":"Organization/4b5a882f-1f43-485c-85c6-f5ad2337d5b1"}]},"request":{"method":"PUT","url":"Coverage/2fbe5ce6-4724-4445-99da-4f403e370c39"}},{"fullUrl":"https://madie.cms.gov/Procedure/5ca6295fb8484628b8de1da6","resource":{"resourceType":"Procedure","id":"f9c6e6c9-596c-49b5-b3df-558a5ab9c1ac","meta":{"profile":["http://hl7.org/fhir/us/qicore/StructureDefinition/qicore-procedure"]},"extension":[{"url":"http://hl7.org/fhir/us/qicore/StructureDefinition/qicore-recorded","valueDateTime":"2012-11-01T09:35:00-04:00"}],"status":"completed","code":{"coding":[{"system":"http://snomed.info/sct","code":"229511001"}]},"subject":{"reference":"Patient/4c2e4fec-cf58-4a6e-be40-af9b9e4232c9"},"performedPeriod":{"start":"2025-11-02T14:00:00+00:00","end":"2025-11-02T14:15:00+00:00"}},"request":{"method":"PUT","url":"Procedure/f9c6e6c9-596c-49b5-b3df-558a5ab9c1ac"}},{"fullUrl":"https://madie.cms.gov/Procedure/5ca6295fb8484628b8de1da7","resource":{"resourceType":"Procedure","id":"69b87a8f-ebd9-4d05-890c-de983d2ea7b3","meta":{"profile":["http://hl7.org/fhir/us/qicore/StructureDefinition/qicore-procedure"]},"extension":[{"url":"http://hl7.org/fhir/us/qicore/StructureDefinition/qicore-recorded","valueDateTime":"2012-11-01T09:35:00-04:00"}],"status":"completed","code":{"coding":[{"system":"http://snomed.info/sct","code":"18946005"}]},"subject":{"reference":"Patient/4c2e4fec-cf58-4a6e-be40-af9b9e4232c9"},"performedPeriod":{"start":"2025-11-01T09:00:00+00:00","end":"2025-11-01T11:15:00+00:00"}},"request":{"method":"PUT","url":"Procedure/69b87a8f-ebd9-4d05-890c-de983d2ea7b3"}},{"fullUrl":"https://madie.cms.gov/Organization/123456","resource":{"resourceType":"Organization","id":"4b5a882f-1f43-485c-85c6-f5ad2337d5b1","meta":{"profile":["http://hl7.org/fhir/us/qicore/StructureDefinition/qicore-organization"]},"identifier":[{"use":"temp","system":"urn:oid:2.16.840.1.113883.4.4","value":"21-3259825"}],"active":true,"type":[{"coding":[{"system":"http://terminology.hl7.org/CodeSystem/organization-type","code":"pay","display":"Payer"}]}],"name":"Blue Cross Blue Shield of Texas","telecom":[{"system":"phone","value":"(+1) 972-766-6900"}],"address":[{"use":"billing","type":"postal","line":["P.O. Box 660044"],"city":"Dallas","state":"TX","postalCode":"75266-0044","country":"USA"}]},"request":{"method":"PUT","url":"Organization/4b5a882f-1f43-485c-85c6-f5ad2337d5b1"}},{"fullUrl":"https://madie.cms.gov/Practitioner/practitioner-123456","resource":{"resourceType":"Practitioner","id":"a1902911-9f31-4e36-a1e6-9137068ae63c","identifier":[{"system":"http://hl7.org/fhir/sid/us-npi","value":"123456"}],"name":[{"family":"Evil","prefix":["Dr"]}]},"request":{"method":"PUT","url":"Practitioner/a1902911-9f31-4e36-a1e6-9137068ae63c"}},{"fullUrl":"https://madie.cms.gov/MeasureReport/2d23c395-fd06-4c31-b83e-97fa81f5f785","resource":{"resourceType":"MeasureReport","id":"2d23c395-fd06-4c31-b83e-97fa81f5f785","meta":{"profile":["http://hl7.org/fhir/us/cqfmeasures/StructureDefinition/test-case-cqfm"]},"contained":[{"resourceType":"Parameters","id":"bbb423b1-dff8-46ad-bd91-be560bc86ee3-parameters","parameter":[{"name":"subject","valueString":"4c2e4fec-cf58-4a6e-be40-af9b9e4232c9"}]}],"extension":[{"url":"http://hl7.org/fhir/us/cqfmeasures/StructureDefinition/cqfm-inputParameters","valueReference":{"reference":"#bbb423b1-dff8-46ad-bd91-be560bc86ee3-parameters"}},{"url":"http://hl7.org/fhir/us/cqfmeasures/StructureDefinition/cqfm-testCaseDescription","valueMarkdown":"Patient has GCS applied 1 day after anesthesia\n"}],"modifierExtension":[{"url":"http://hl7.org/fhir/us/cqfmeasures/StructureDefinition/cqfm-isTestCase","valueBoolean":true}],"status":"complete","type":"individual","measure":"https://madie.cms.gov/Measure/VenousThromboembolismProphylaxisFHIR","period":{"start":"2025-01-01","end":"2025-12-31"},"group":[{"population":[{"code":{"coding":[{"system":"http://terminology.hl7.org/CodeSystem/measure-population","code":"initial-population","display":"Initial Population"}]},"count":1},{"code":{"coding":[{"system":"http://terminology.hl7.org/CodeSystem/measure-population","code":"denominator","display":"Denominator"}]},"count":1},{"code":{"coding":[{"system":"http://terminology.hl7.org/CodeSystem/measure-population","code":"denominator-exclusion","display":"Denominator Exclusion"}]},"count":0},{"code":{"coding":[{"system":"http://terminology.hl7.org/CodeSystem/measure-population","code":"numerator","display":"Numerator"}]},"count":1}]}]},"request":{"method":"PUT","url":"MeasureReport/2d23c395-fd06-4c31-b83e-97fa81f5f785"}}]}