{"resourceType":"Bundle","id":"tests-dc0dcb01-87f0-4e65-9c36-8cf6174abef1-bundle","type":"transaction","entry":[{"fullUrl":"https://madie.cms.gov/Patient/dc0dcb01-87f0-4e65-9c36-8cf6174abef1","resource":{"resourceType":"Patient","id":"dc0dcb01-87f0-4e65-9c36-8cf6174abef1","meta":{"profile":["http://hl7.org/fhir/us/qicore/StructureDefinition/qicore-patient"]},"text":{"status":"generated","div":"<div xmlns=\"http://www.w3.org/1999/xhtml\"><div class=\"hapiHeaderText\">INR4WOdecimal_AfterEndOfAnes <b>NUMERPASS </b></div><table class=\"hapiPropertyTable\"><tbody><tr><td>Identifier</td><td>63ba0f1cce38276422ef5807decdf655</td></tr><tr><td>Date of birth</td><td><span>02 January 1974</span></td></tr></tbody></table></div>"},"extension":[{"url":"http://hl7.org/fhir/us/core/StructureDefinition/us-core-race","extension":[{"url":"ombCategory","valueCoding":{"system":"urn:oid:2.16.840.1.113883.6.238","code":"1002-5","display":"American Indian or Alaska Native","userSelected":true}},{"url":"text","valueString":"American Indian or Alaska Native"}]},{"url":"http://hl7.org/fhir/us/core/StructureDefinition/us-core-ethnicity","extension":[{"url":"ombCategory","valueCoding":{"system":"urn:oid:2.16.840.1.113883.6.238","code":"2135-2","display":"Hispanic or Latino","userSelected":true}},{"url":"text","valueString":"Hispanic or Latino"}]}],"identifier":[{"type":{"coding":[{"system":"http://terminology.hl7.org/CodeSystem/v2-0203","code":"MR"}]},"system":"https://bonnie-fhir.healthit.gov/","value":"612e6ad402c62a011f2eb5f5"}],"active":true,"name":[{"use":"usual","family":"NUMERPass","given":["INR4WOdecimal_AfterEndOfAnes"]}],"gender":"male","birthDate":"1974-01-02"},"request":{"method":"PUT","url":"Patient/dc0dcb01-87f0-4e65-9c36-8cf6174abef1"}},{"fullUrl":"https://madie.cms.gov/Encounter/5ca62964b8484628b8de1f2b","resource":{"resourceType":"Encounter","id":"a7a65535-1332-4efb-97cc-f5469dac914a","meta":{"profile":["http://hl7.org/fhir/us/qicore/StructureDefinition/qicore-encounter"]},"status":"finished","class":{"system":"http://terminology.hl7.org/CodeSystem/v3-ActCode","code":"IMP","display":"inpatient encounter"},"type":[{"coding":[{"system":"http://snomed.info/sct","code":"8715000"}]}],"subject":{"reference":"Patient/dc0dcb01-87f0-4e65-9c36-8cf6174abef1"},"period":{"start":"2025-11-01T08:00:00+00:00","end":"2025-11-26T08:15:00+00:00"},"length":{"value":25.0,"unit":"days"}},"request":{"method":"PUT","url":"Encounter/a7a65535-1332-4efb-97cc-f5469dac914a"}},{"fullUrl":"https://madie.cms.gov/Coverage/5fa041601c76ba66d9959304","resource":{"resourceType":"Coverage","id":"f491c46a-814c-45be-a4a5-afaa40f503c1","status":"active","beneficiary":{"reference":"Patient/dc0dcb01-87f0-4e65-9c36-8cf6174abef1"},"period":{"start":"1974-01-02T08:00:00+00:00"},"payor":[{"reference":"Organization/4b5a882f-1f43-485c-85c6-f5ad2337d5b1"}]},"request":{"method":"PUT","url":"Coverage/f491c46a-814c-45be-a4a5-afaa40f503c1"}},{"fullUrl":"https://madie.cms.gov/Observation/5ca62964b8484628b8de1f2d","resource":{"resourceType":"Observation","id":"90ac6a15-ed60-40e4-b037-a70aed35c526","meta":{"profile":["http://hl7.org/fhir/us/core/StructureDefinition/us-core-observation-lab"]},"status":"final","category":[{"coding":[{"system":"http://terminology.hl7.org/CodeSystem/observation-category","code":"laboratory","display":"Laboratory"}]}],"code":{"coding":[{"system":"http://loinc.org","code":"34714-6"}]},"subject":{"reference":"Patient/dc0dcb01-87f0-4e65-9c36-8cf6174abef1"},"effectiveDateTime":"2025-11-01T09:15:00+00:00","issued":"2025-11-01T10:00:00.000+00:00","valueQuantity":{"value":4,"unit":"{INR}"}},"request":{"method":"PUT","url":"Observation/90ac6a15-ed60-40e4-b037-a70aed35c526"}},{"fullUrl":"https://madie.cms.gov/Procedure/5ca62964b8484628b8de1f2c","resource":{"resourceType":"Procedure","id":"01386c10-cbc6-417b-b281-057083370668","meta":{"profile":["http://hl7.org/fhir/us/qicore/StructureDefinition/qicore-procedure"]},"extension":[{"url":"http://hl7.org/fhir/us/qicore/StructureDefinition/qicore-recorded","valueDateTime":"2012-11-01T09:35:00-04:00"}],"status":"completed","code":{"coding":[{"system":"http://www.icd10data.com/icd10pcs","code":"3E030FZ"},{"system":"http://snomed.info/sct","code":"18946005"}]},"subject":{"reference":"Patient/dc0dcb01-87f0-4e65-9c36-8cf6174abef1"},"performedPeriod":{"start":"2025-11-01T09:00:00+00:00","end":"2025-11-01T09:15:00+00:00"}},"request":{"method":"PUT","url":"Procedure/01386c10-cbc6-417b-b281-057083370668"}},{"fullUrl":"https://madie.cms.gov/Organization/123456","resource":{"resourceType":"Organization","id":"4b5a882f-1f43-485c-85c6-f5ad2337d5b1","meta":{"profile":["http://hl7.org/fhir/us/qicore/StructureDefinition/qicore-organization"]},"identifier":[{"use":"temp","system":"urn:oid:2.16.840.1.113883.4.4","value":"21-3259825"}],"active":true,"type":[{"coding":[{"system":"http://terminology.hl7.org/CodeSystem/organization-type","code":"pay","display":"Payer"}]}],"name":"Blue Cross Blue Shield of Texas","telecom":[{"system":"phone","value":"(+1) 972-766-6900"}],"address":[{"use":"billing","type":"postal","line":["P.O. Box 660044"],"city":"Dallas","state":"TX","postalCode":"75266-0044","country":"USA"}]},"request":{"method":"PUT","url":"Organization/4b5a882f-1f43-485c-85c6-f5ad2337d5b1"}},{"fullUrl":"https://madie.cms.gov/Practitioner/practitioner-123456","resource":{"resourceType":"Practitioner","id":"edfae7cf-1d35-4233-a3c8-2f8acc8978e5","identifier":[{"system":"http://hl7.org/fhir/sid/us-npi","value":"123456"}],"name":[{"family":"Evil","prefix":["Dr"]}]},"request":{"method":"PUT","url":"Practitioner/edfae7cf-1d35-4233-a3c8-2f8acc8978e5"}},{"fullUrl":"https://madie.cms.gov/MeasureReport/320013f9-05f2-426e-9138-95e5b2fada17","resource":{"resourceType":"MeasureReport","id":"320013f9-05f2-426e-9138-95e5b2fada17","meta":{"profile":["http://hl7.org/fhir/us/cqfmeasures/StructureDefinition/test-case-cqfm"]},"contained":[{"resourceType":"Parameters","id":"4c2c637d-c2b7-4d47-b59f-f2a70f394b35-parameters","parameter":[{"name":"subject","valueString":"dc0dcb01-87f0-4e65-9c36-8cf6174abef1"}]}],"extension":[{"url":"http://hl7.org/fhir/us/cqfmeasures/StructureDefinition/cqfm-inputParameters","valueReference":{"reference":"#4c2c637d-c2b7-4d47-b59f-f2a70f394b35-parameters"}},{"url":"http://hl7.org/fhir/us/cqfmeasures/StructureDefinition/cqfm-testCaseDescription","valueMarkdown":">18, dx VTE, LOS<120 day,   LabResult INR>3 no decimal,  on surgery end datetime\n"}],"modifierExtension":[{"url":"http://hl7.org/fhir/us/cqfmeasures/StructureDefinition/cqfm-isTestCase","valueBoolean":true}],"status":"complete","type":"individual","measure":"https://madie.cms.gov/Measure/VenousThromboembolismProphylaxisFHIR","period":{"start":"2025-01-01","end":"2025-12-31"},"group":[{"population":[{"code":{"coding":[{"system":"http://terminology.hl7.org/CodeSystem/measure-population","code":"initial-population","display":"Initial Population"}]},"count":1},{"code":{"coding":[{"system":"http://terminology.hl7.org/CodeSystem/measure-population","code":"denominator","display":"Denominator"}]},"count":1},{"code":{"coding":[{"system":"http://terminology.hl7.org/CodeSystem/measure-population","code":"denominator-exclusion","display":"Denominator Exclusion"}]},"count":0},{"code":{"coding":[{"system":"http://terminology.hl7.org/CodeSystem/measure-population","code":"numerator","display":"Numerator"}]},"count":1}]}]},"request":{"method":"PUT","url":"MeasureReport/320013f9-05f2-426e-9138-95e5b2fada17"}}]}