{"resourceType":"Bundle","id":"tests-3ca65cc7-2f5b-4d0b-987f-dfd9a26fd0ea-bundle","type":"transaction","entry":[{"fullUrl":"https://madie.cms.gov/Patient/3ca65cc7-2f5b-4d0b-987f-dfd9a26fd0ea","resource":{"resourceType":"Patient","id":"3ca65cc7-2f5b-4d0b-987f-dfd9a26fd0ea","meta":{"profile":["http://hl7.org/fhir/us/qicore/StructureDefinition/qicore-patient"]},"text":{"status":"generated","div":"<div xmlns=\"http://www.w3.org/1999/xhtml\"><div class=\"hapiHeaderText\">CMOPerf_RvltDTDayofAnesRvltDT <b>DENEXPASS </b></div><table class=\"hapiPropertyTable\"><tbody><tr><td>Identifier</td><td>ee7153b84916a96927e2b346d9ea62ff</td></tr><tr><td>Date of birth</td><td><span>02 January 1974</span></td></tr></tbody></table></div>"},"extension":[{"url":"http://hl7.org/fhir/us/core/StructureDefinition/us-core-race","extension":[{"url":"ombCategory","valueCoding":{"system":"urn:oid:2.16.840.1.113883.6.238","code":"1002-5","display":"American Indian or Alaska Native","userSelected":true}},{"url":"text","valueString":"American Indian or Alaska Native"}]},{"url":"http://hl7.org/fhir/us/core/StructureDefinition/us-core-ethnicity","extension":[{"url":"ombCategory","valueCoding":{"system":"urn:oid:2.16.840.1.113883.6.238","code":"2135-2","display":"Hispanic or Latino","userSelected":true}},{"url":"text","valueString":"Hispanic or Latino"}]}],"identifier":[{"type":{"coding":[{"system":"http://terminology.hl7.org/CodeSystem/v2-0203","code":"MR"}]},"system":"https://bonnie-fhir.healthit.gov/","value":"612e6b2102c62a011f2ec95b"}],"active":true,"name":[{"use":"usual","family":"DENEXPass","given":["CMOPerf_RvltDTDayofAnesRvltDT"]}],"gender":"male","birthDate":"1974-01-02"},"request":{"method":"PUT","url":"Patient/3ca65cc7-2f5b-4d0b-987f-dfd9a26fd0ea"}},{"fullUrl":"https://madie.cms.gov/Encounter/5ca62963b8484628b8de1f0f","resource":{"resourceType":"Encounter","id":"81558280-8f75-49fc-8aa6-42591dc99d74","meta":{"profile":["http://hl7.org/fhir/us/qicore/StructureDefinition/qicore-encounter"]},"status":"finished","class":{"system":"http://terminology.hl7.org/CodeSystem/v3-ActCode","code":"IMP","display":"inpatient encounter"},"type":[{"coding":[{"system":"http://snomed.info/sct","code":"8715000"}]}],"subject":{"reference":"Patient/3ca65cc7-2f5b-4d0b-987f-dfd9a26fd0ea"},"period":{"start":"2025-11-01T08:00:00+00:00","end":"2025-11-26T08:15:00+00:00"},"length":{"value":25.0,"unit":"days"}},"request":{"method":"PUT","url":"Encounter/81558280-8f75-49fc-8aa6-42591dc99d74"}},{"fullUrl":"https://madie.cms.gov/Procedure/5ca62963b8484628b8de1f11","resource":{"resourceType":"Procedure","id":"22b90490-fce8-4bbf-800d-05e2f3d03764","meta":{"profile":["http://hl7.org/fhir/us/qicore/StructureDefinition/qicore-procedure"]},"extension":[{"url":"http://hl7.org/fhir/us/qicore/StructureDefinition/qicore-recorded","valueDateTime":"2012-11-02T09:35:00-04:00"}],"status":"completed","code":{"coding":[{"system":"http://snomed.info/sct","code":"133918004"}]},"subject":{"reference":"Patient/3ca65cc7-2f5b-4d0b-987f-dfd9a26fd0ea"},"performedDateTime":"2025-11-02T08:00:00.000+00:00"},"request":{"method":"PUT","url":"Procedure/22b90490-fce8-4bbf-800d-05e2f3d03764"}},{"fullUrl":"https://madie.cms.gov/Coverage/5fa0414b1c76ba66d9959193","resource":{"resourceType":"Coverage","id":"457bd136-90bd-4592-b2db-1129f10ad6c3","status":"active","beneficiary":{"reference":"Patient/3ca65cc7-2f5b-4d0b-987f-dfd9a26fd0ea"},"period":{"start":"1974-01-02T08:00:00+00:00"},"payor":[{"reference":"Organization/4b5a882f-1f43-485c-85c6-f5ad2337d5b1"}]},"request":{"method":"PUT","url":"Coverage/457bd136-90bd-4592-b2db-1129f10ad6c3"}},{"fullUrl":"https://madie.cms.gov/Procedure/5ca62963b8484628b8de1f10","resource":{"resourceType":"Procedure","id":"994a4c09-49b7-418c-9070-18266649e543","meta":{"profile":["http://hl7.org/fhir/us/qicore/StructureDefinition/qicore-procedure"]},"extension":[{"url":"http://hl7.org/fhir/us/qicore/StructureDefinition/qicore-recorded","valueDateTime":"2012-11-03T09:35:00-04:00"}],"status":"completed","code":{"coding":[{"system":"http://www.cms.gov/Medicare/Coding/ICD10","code":"3E030FZ"}]},"subject":{"reference":"Patient/3ca65cc7-2f5b-4d0b-987f-dfd9a26fd0ea"},"performedDateTime":"2025-11-02T09:15:00+00:00"},"request":{"method":"PUT","url":"Procedure/994a4c09-49b7-418c-9070-18266649e543"}},{"fullUrl":"https://madie.cms.gov/Organization/123456","resource":{"resourceType":"Organization","id":"4b5a882f-1f43-485c-85c6-f5ad2337d5b1","meta":{"profile":["http://hl7.org/fhir/us/qicore/StructureDefinition/qicore-organization"]},"identifier":[{"use":"temp","system":"urn:oid:2.16.840.1.113883.4.4","value":"21-3259825"}],"active":true,"type":[{"coding":[{"system":"http://terminology.hl7.org/CodeSystem/organization-type","code":"pay","display":"Payer"}]}],"name":"Blue Cross Blue Shield of Texas","telecom":[{"system":"phone","value":"(+1) 972-766-6900"}],"address":[{"use":"billing","type":"postal","line":["P.O. Box 660044"],"city":"Dallas","state":"TX","postalCode":"75266-0044","country":"USA"}]},"request":{"method":"PUT","url":"Organization/4b5a882f-1f43-485c-85c6-f5ad2337d5b1"}},{"fullUrl":"https://madie.cms.gov/Practitioner/practitioner-123456","resource":{"resourceType":"Practitioner","id":"65b75e0b-2833-4ba6-bea9-61bd4bd8b228","identifier":[{"system":"http://hl7.org/fhir/sid/us-npi","value":"123456"}],"name":[{"family":"Evil","prefix":["Dr"]}]},"request":{"method":"PUT","url":"Practitioner/65b75e0b-2833-4ba6-bea9-61bd4bd8b228"}},{"fullUrl":"https://madie.cms.gov/MeasureReport/d33f57ac-bbf9-4233-b99c-c181a771375d","resource":{"resourceType":"MeasureReport","id":"d33f57ac-bbf9-4233-b99c-c181a771375d","meta":{"profile":["http://hl7.org/fhir/us/cqfmeasures/StructureDefinition/test-case-cqfm"]},"contained":[{"resourceType":"Parameters","id":"5ed9caad-ad6e-4653-8597-82c1c3d7ff02-parameters","parameter":[{"name":"subject","valueString":"3ca65cc7-2f5b-4d0b-987f-dfd9a26fd0ea"}]}],"extension":[{"url":"http://hl7.org/fhir/us/cqfmeasures/StructureDefinition/cqfm-inputParameters","valueReference":{"reference":"#5ed9caad-ad6e-4653-8597-82c1c3d7ff02-parameters"}},{"url":"http://hl7.org/fhir/us/cqfmeasures/StructureDefinition/cqfm-testCaseDescription","valueMarkdown":"comfort measures performed revelantdatetime =0 day after end of anesthesia end revelantDatetime\n"}],"modifierExtension":[{"url":"http://hl7.org/fhir/us/cqfmeasures/StructureDefinition/cqfm-isTestCase","valueBoolean":true}],"status":"complete","type":"individual","measure":"https://madie.cms.gov/Measure/VenousThromboembolismProphylaxisFHIR","period":{"start":"2025-01-01","end":"2025-12-31"},"group":[{"population":[{"code":{"coding":[{"system":"http://terminology.hl7.org/CodeSystem/measure-population","code":"initial-population","display":"Initial Population"}]},"count":1},{"code":{"coding":[{"system":"http://terminology.hl7.org/CodeSystem/measure-population","code":"denominator","display":"Denominator"}]},"count":1},{"code":{"coding":[{"system":"http://terminology.hl7.org/CodeSystem/measure-population","code":"denominator-exclusion","display":"Denominator Exclusion"}]},"count":1},{"code":{"coding":[{"system":"http://terminology.hl7.org/CodeSystem/measure-population","code":"numerator","display":"Numerator"}]},"count":0}]}]},"request":{"method":"PUT","url":"MeasureReport/d33f57ac-bbf9-4233-b99c-c181a771375d"}}]}