{"resourceType":"Bundle","id":"tests-d9317b8a-ccf3-4fdb-bcee-da027b403708-bundle","type":"transaction","entry":[{"fullUrl":"https://madie.cms.gov/Patient/d9317b8a-ccf3-4fdb-bcee-da027b403708","resource":{"resourceType":"Patient","id":"d9317b8a-ccf3-4fdb-bcee-da027b403708","meta":{"profile":["http://hl7.org/fhir/us/qicore/StructureDefinition/qicore-patient"]},"text":{"status":"generated","div":"<div xmlns=\"http://www.w3.org/1999/xhtml\"><div class=\"hapiHeaderText\">CMO2DayAfterAnesthesia <b>DENEXFAIL </b></div><table class=\"hapiPropertyTable\"><tbody><tr><td>Identifier</td><td>eae8d1af3e172cab969568063cd70f67</td></tr><tr><td>Date of birth</td><td><span>02 January 1974</span></td></tr></tbody></table></div>"},"extension":[{"url":"http://hl7.org/fhir/us/core/StructureDefinition/us-core-race","extension":[{"url":"ombCategory","valueCoding":{"system":"urn:oid:2.16.840.1.113883.6.238","code":"1002-5","display":"American Indian or Alaska Native","userSelected":true}},{"url":"text","valueString":"American Indian or Alaska Native"}]},{"url":"http://hl7.org/fhir/us/core/StructureDefinition/us-core-ethnicity","extension":[{"url":"ombCategory","valueCoding":{"system":"urn:oid:2.16.840.1.113883.6.238","code":"2135-2","display":"Hispanic or Latino","userSelected":true}},{"url":"text","valueString":"Hispanic or Latino"}]}],"identifier":[{"type":{"coding":[{"system":"http://terminology.hl7.org/CodeSystem/v2-0203","code":"MR"}]},"system":"https://bonnie-fhir.healthit.gov/","value":"612e6ab402c62a011f2eb007"}],"active":true,"name":[{"use":"usual","family":"DENEXFail","given":["CMO2DayAfterAnesthesia"]}],"gender":"male","birthDate":"1974-01-02"},"request":{"method":"PUT","url":"Patient/d9317b8a-ccf3-4fdb-bcee-da027b403708"}},{"fullUrl":"https://madie.cms.gov/Encounter/5ca62960b8484628b8de1e53","resource":{"resourceType":"Encounter","id":"e78a4aed-e1db-41f4-a3cd-169a4373e925","meta":{"profile":["http://hl7.org/fhir/us/qicore/StructureDefinition/qicore-encounter"]},"status":"finished","class":{"system":"http://terminology.hl7.org/CodeSystem/v3-ActCode","code":"IMP","display":"inpatient encounter"},"type":[{"coding":[{"system":"http://snomed.info/sct","code":"8715000"}]}],"subject":{"reference":"Patient/d9317b8a-ccf3-4fdb-bcee-da027b403708"},"period":{"start":"2025-11-01T08:00:00+00:00","end":"2025-11-26T08:15:00+00:00"},"length":{"value":25.0,"unit":"days"}},"request":{"method":"PUT","url":"Encounter/e78a4aed-e1db-41f4-a3cd-169a4373e925"}},{"fullUrl":"https://madie.cms.gov/ServiceRequest/5ca62960b8484628b8de1e55","resource":{"resourceType":"ServiceRequest","id":"72b69005-4577-4935-9af9-decf674ad844","meta":{"profile":["http://hl7.org/fhir/us/qicore/StructureDefinition/qicore-servicerequest"]},"status":"active","intent":"order","code":{"coding":[{"system":"http://snomed.info/sct","code":"133918004"}]},"subject":{"reference":"Patient/d9317b8a-ccf3-4fdb-bcee-da027b403708"},"authoredOn":"2025-11-04T11:00:00.000+00:00"},"request":{"method":"PUT","url":"ServiceRequest/72b69005-4577-4935-9af9-decf674ad844"}},{"fullUrl":"https://madie.cms.gov/Coverage/5fa041561c76ba66d995925c","resource":{"resourceType":"Coverage","id":"37c8cbeb-2945-4a60-bf74-06442cebb2ca","status":"active","beneficiary":{"reference":"Patient/d9317b8a-ccf3-4fdb-bcee-da027b403708"},"period":{"start":"1974-01-02T08:00:00+00:00"},"payor":[{"reference":"Organization/4b5a882f-1f43-485c-85c6-f5ad2337d5b1"}]},"request":{"method":"PUT","url":"Coverage/37c8cbeb-2945-4a60-bf74-06442cebb2ca"}},{"fullUrl":"https://madie.cms.gov/Procedure/5ca62960b8484628b8de1e54","resource":{"resourceType":"Procedure","id":"200b926d-a3f3-4106-9f29-51ac3cdef79e","meta":{"profile":["http://hl7.org/fhir/us/qicore/StructureDefinition/qicore-procedure"]},"extension":[{"url":"http://hl7.org/fhir/us/qicore/StructureDefinition/qicore-recorded","valueDateTime":"2012-12-04T09:35:00-04:00"}],"status":"completed","code":{"coding":[{"system":"http://www.icd10data.com/icd10pcs","code":"3E030FZ"},{"system":"http://snomed.info/sct","code":"18946005"}]},"subject":{"reference":"Patient/d9317b8a-ccf3-4fdb-bcee-da027b403708"},"performedPeriod":{"start":"2025-11-02T09:00:00+00:00","end":"2025-11-02T09:15:00+00:00"}},"request":{"method":"PUT","url":"Procedure/200b926d-a3f3-4106-9f29-51ac3cdef79e"}},{"fullUrl":"https://madie.cms.gov/Organization/123456","resource":{"resourceType":"Organization","id":"4b5a882f-1f43-485c-85c6-f5ad2337d5b1","meta":{"profile":["http://hl7.org/fhir/us/qicore/StructureDefinition/qicore-organization"]},"identifier":[{"use":"temp","system":"urn:oid:2.16.840.1.113883.4.4","value":"21-3259825"}],"active":true,"type":[{"coding":[{"system":"http://terminology.hl7.org/CodeSystem/organization-type","code":"pay","display":"Payer"}]}],"name":"Blue Cross Blue Shield of Texas","telecom":[{"system":"phone","value":"(+1) 972-766-6900"}],"address":[{"use":"billing","type":"postal","line":["P.O. Box 660044"],"city":"Dallas","state":"TX","postalCode":"75266-0044","country":"USA"}]},"request":{"method":"PUT","url":"Organization/4b5a882f-1f43-485c-85c6-f5ad2337d5b1"}},{"fullUrl":"https://madie.cms.gov/Practitioner/practitioner-123456","resource":{"resourceType":"Practitioner","id":"916b386c-97d1-4c67-8897-7f18fd5f303d","identifier":[{"system":"http://hl7.org/fhir/sid/us-npi","value":"123456"}],"name":[{"family":"Evil","prefix":["Dr"]}]},"request":{"method":"PUT","url":"Practitioner/916b386c-97d1-4c67-8897-7f18fd5f303d"}},{"fullUrl":"https://madie.cms.gov/MeasureReport/50c6dd7a-611d-42fe-b001-92ea6ea6af26","resource":{"resourceType":"MeasureReport","id":"50c6dd7a-611d-42fe-b001-92ea6ea6af26","meta":{"profile":["http://hl7.org/fhir/us/cqfmeasures/StructureDefinition/test-case-cqfm"]},"contained":[{"resourceType":"Parameters","id":"95e791ea-8869-4bae-91eb-510a1cd0342b-parameters","parameter":[{"name":"subject","valueString":"d9317b8a-ccf3-4fdb-bcee-da027b403708"}]}],"extension":[{"url":"http://hl7.org/fhir/us/cqfmeasures/StructureDefinition/cqfm-inputParameters","valueReference":{"reference":"#95e791ea-8869-4bae-91eb-510a1cd0342b-parameters"}},{"url":"http://hl7.org/fhir/us/cqfmeasures/StructureDefinition/cqfm-testCaseDescription","valueMarkdown":"comfort measures order 2 day after end of  anesthesia\n"}],"modifierExtension":[{"url":"http://hl7.org/fhir/us/cqfmeasures/StructureDefinition/cqfm-isTestCase","valueBoolean":true}],"status":"complete","type":"individual","measure":"https://madie.cms.gov/Measure/VenousThromboembolismProphylaxisFHIR","period":{"start":"2025-01-01","end":"2025-12-31"},"group":[{"population":[{"code":{"coding":[{"system":"http://terminology.hl7.org/CodeSystem/measure-population","code":"initial-population","display":"Initial Population"}]},"count":1},{"code":{"coding":[{"system":"http://terminology.hl7.org/CodeSystem/measure-population","code":"denominator","display":"Denominator"}]},"count":1},{"code":{"coding":[{"system":"http://terminology.hl7.org/CodeSystem/measure-population","code":"denominator-exclusion","display":"Denominator Exclusion"}]},"count":0},{"code":{"coding":[{"system":"http://terminology.hl7.org/CodeSystem/measure-population","code":"numerator","display":"Numerator"}]},"count":0}]}]},"request":{"method":"PUT","url":"MeasureReport/50c6dd7a-611d-42fe-b001-92ea6ea6af26"}}]}