{"resourceType":"Bundle","id":"tests-a6abc191-21b3-4a69-9555-9c2cdff6feef-bundle","type":"transaction","entry":[{"fullUrl":"https://madie.cms.gov/Patient/a6abc191-21b3-4a69-9555-9c2cdff6feef","resource":{"resourceType":"Patient","id":"a6abc191-21b3-4a69-9555-9c2cdff6feef","meta":{"profile":["http://hl7.org/fhir/us/qicore/StructureDefinition/qicore-patient"]},"text":{"status":"generated","div":"<div xmlns=\"http://www.w3.org/1999/xhtml\"><div class=\"hapiHeaderText\">MAGlycEDGT1HrB4SameDayOfAdm <b>NUMERPASS </b></div><table class=\"hapiPropertyTable\"><tbody><tr><td>Identifier</td><td>8fb4cd40974dea5010f77239e5dacead</td></tr><tr><td>Date of birth</td><td><span>02 January 1974</span></td></tr></tbody></table></div>"},"extension":[{"url":"http://hl7.org/fhir/us/core/StructureDefinition/us-core-race","extension":[{"url":"ombCategory","valueCoding":{"system":"urn:oid:2.16.840.1.113883.6.238","code":"1002-5","display":"American Indian or Alaska Native","userSelected":true}},{"url":"text","valueString":"American Indian or Alaska Native"}]},{"url":"http://hl7.org/fhir/us/core/StructureDefinition/us-core-ethnicity","extension":[{"url":"ombCategory","valueCoding":{"system":"urn:oid:2.16.840.1.113883.6.238","code":"2135-2","display":"Hispanic or Latino","userSelected":true}},{"url":"text","valueString":"Hispanic or Latino"}]}],"identifier":[{"type":{"coding":[{"system":"http://terminology.hl7.org/CodeSystem/v2-0203","code":"MR"}]},"system":"https://bonnie-fhir.healthit.gov/","value":"612e6b6102c62a011f2ed8da"}],"active":true,"name":[{"use":"usual","family":"NUMERPass","given":["MAGlycEDGT1HrB4SameDayOfAdm"]}],"gender":"male","birthDate":"1974-01-02"},"request":{"method":"PUT","url":"Patient/a6abc191-21b3-4a69-9555-9c2cdff6feef"}},{"fullUrl":"https://madie.cms.gov/Encounter/5ca62963b8484628b8de1eff","resource":{"resourceType":"Encounter","id":"56e55d4e-c15c-4945-a5a4-0d8563b58078","meta":{"profile":["http://hl7.org/fhir/us/qicore/StructureDefinition/qicore-encounter"]},"status":"finished","class":{"system":"http://terminology.hl7.org/CodeSystem/v3-ActCode","code":"EMER","display":"emergency"},"type":[{"coding":[{"system":"http://snomed.info/sct","code":"4525004"}]}],"subject":{"reference":"Patient/a6abc191-21b3-4a69-9555-9c2cdff6feef"},"period":{"start":"2025-11-01T02:00:00+00:00","end":"2025-11-01T06:00:00+00:00"},"length":{"value":0.0,"unit":"days"}},"request":{"method":"PUT","url":"Encounter/56e55d4e-c15c-4945-a5a4-0d8563b58078"}},{"fullUrl":"https://madie.cms.gov/Encounter/5ca62963b8484628b8de1f00","resource":{"resourceType":"Encounter","id":"15e0e9d2-6664-4c6d-9482-cc07a1f5c9d2","meta":{"profile":["http://hl7.org/fhir/us/qicore/StructureDefinition/qicore-encounter"]},"status":"finished","class":{"system":"http://terminology.hl7.org/CodeSystem/v3-ActCode","code":"IMP","display":"inpatient encounter"},"type":[{"coding":[{"system":"http://snomed.info/sct","code":"8715000"}]}],"subject":{"reference":"Patient/a6abc191-21b3-4a69-9555-9c2cdff6feef"},"period":{"start":"2025-11-01T08:00:00+00:00","end":"2025-11-26T08:15:00+00:00"},"length":{"value":25.0,"unit":"days"}},"request":{"method":"PUT","url":"Encounter/15e0e9d2-6664-4c6d-9482-cc07a1f5c9d2"}},{"fullUrl":"https://madie.cms.gov/Coverage/5fa0415b1c76ba66d99592b0","resource":{"resourceType":"Coverage","id":"5b8afd08-1d3a-4c76-b1fa-aad50670af7b","status":"active","beneficiary":{"reference":"Patient/a6abc191-21b3-4a69-9555-9c2cdff6feef"},"period":{"start":"1974-01-02T08:00:00+00:00"},"payor":[{"reference":"Organization/4b5a882f-1f43-485c-85c6-f5ad2337d5b1"}]},"request":{"method":"PUT","url":"Coverage/5b8afd08-1d3a-4c76-b1fa-aad50670af7b"}},{"fullUrl":"https://madie.cms.gov/MedicationAdministration/5ca62963b8484628b8de1f01","resource":{"resourceType":"MedicationAdministration","id":"ebe38a6a-427e-4324-a646-00cf19e89ee6","meta":{"profile":["http://hl7.org/fhir/us/qicore/StructureDefinition/qicore-medicationadministration"]},"status":"completed","medicationCodeableConcept":{"coding":[{"system":"http://www.nlm.nih.gov/research/umls/rxnorm","code":"200349"}]},"subject":{"reference":"Patient/a6abc191-21b3-4a69-9555-9c2cdff6feef"},"effectivePeriod":{"start":"2025-11-01T06:00:00+00:00","end":"2025-11-01T06:10:00+00:00"}},"request":{"method":"PUT","url":"MedicationAdministration/ebe38a6a-427e-4324-a646-00cf19e89ee6"}},{"fullUrl":"https://madie.cms.gov/Organization/123456","resource":{"resourceType":"Organization","id":"4b5a882f-1f43-485c-85c6-f5ad2337d5b1","meta":{"profile":["http://hl7.org/fhir/us/qicore/StructureDefinition/qicore-organization"]},"identifier":[{"use":"temp","system":"urn:oid:2.16.840.1.113883.4.4","value":"21-3259825"}],"active":true,"type":[{"coding":[{"system":"http://terminology.hl7.org/CodeSystem/organization-type","code":"pay","display":"Payer"}]}],"name":"Blue Cross Blue Shield of Texas","telecom":[{"system":"phone","value":"(+1) 972-766-6900"}],"address":[{"use":"billing","type":"postal","line":["P.O. Box 660044"],"city":"Dallas","state":"TX","postalCode":"75266-0044","country":"USA"}]},"request":{"method":"PUT","url":"Organization/4b5a882f-1f43-485c-85c6-f5ad2337d5b1"}},{"fullUrl":"https://madie.cms.gov/Practitioner/practitioner-123456","resource":{"resourceType":"Practitioner","id":"82a8942d-5eed-4a2b-a65b-3f61e3c8fbcb","identifier":[{"system":"http://hl7.org/fhir/sid/us-npi","value":"123456"}],"name":[{"family":"Evil","prefix":["Dr"]}]},"request":{"method":"PUT","url":"Practitioner/82a8942d-5eed-4a2b-a65b-3f61e3c8fbcb"}},{"fullUrl":"https://madie.cms.gov/MeasureReport/dbe3e16e-8fe9-4283-8b7a-a0e6fe9bfe0a","resource":{"resourceType":"MeasureReport","id":"dbe3e16e-8fe9-4283-8b7a-a0e6fe9bfe0a","meta":{"profile":["http://hl7.org/fhir/us/cqfmeasures/StructureDefinition/test-case-cqfm"]},"contained":[{"resourceType":"Parameters","id":"0873d8d2-883e-44ed-a8fc-11c102f780e0-parameters","parameter":[{"name":"subject","valueString":"a6abc191-21b3-4a69-9555-9c2cdff6feef"}]}],"extension":[{"url":"http://hl7.org/fhir/us/cqfmeasures/StructureDefinition/cqfm-inputParameters","valueReference":{"reference":"#0873d8d2-883e-44ed-a8fc-11c102f780e0-parameters"}},{"url":"http://hl7.org/fhir/us/cqfmeasures/StructureDefinition/cqfm-testCaseDescription","valueMarkdown":">18, LOS<120 day, Glycoprotein during ED, EDend >1hr EncInp start. But this case passes because Med was adm on the same day of adm\n"}],"modifierExtension":[{"url":"http://hl7.org/fhir/us/cqfmeasures/StructureDefinition/cqfm-isTestCase","valueBoolean":true}],"status":"complete","type":"individual","measure":"https://madie.cms.gov/Measure/VenousThromboembolismProphylaxisFHIR","period":{"start":"2025-01-01","end":"2025-12-31"},"group":[{"population":[{"code":{"coding":[{"system":"http://terminology.hl7.org/CodeSystem/measure-population","code":"initial-population","display":"Initial Population"}]},"count":1},{"code":{"coding":[{"system":"http://terminology.hl7.org/CodeSystem/measure-population","code":"denominator","display":"Denominator"}]},"count":1},{"code":{"coding":[{"system":"http://terminology.hl7.org/CodeSystem/measure-population","code":"denominator-exclusion","display":"Denominator Exclusion"}]},"count":0},{"code":{"coding":[{"system":"http://terminology.hl7.org/CodeSystem/measure-population","code":"numerator","display":"Numerator"}]},"count":1}]}]},"request":{"method":"PUT","url":"MeasureReport/dbe3e16e-8fe9-4283-8b7a-a0e6fe9bfe0a"}}]}