{"resourceType":"Bundle","id":"tests-543248c8-b6af-407d-b435-7e867c4770b4-bundle","type":"transaction","entry":[{"fullUrl":"https://madie.cms.gov/Patient/543248c8-b6af-407d-b435-7e867c4770b4","resource":{"resourceType":"Patient","id":"543248c8-b6af-407d-b435-7e867c4770b4","meta":{"profile":["http://hl7.org/fhir/us/qicore/StructureDefinition/qicore-patient"]},"text":{"status":"generated","div":"<div xmlns=\"http://www.w3.org/1999/xhtml\"><div class=\"hapiHeaderText\">Dx=AFibStartsOnEncEndTime <b>NUMERPASS </b></div><table class=\"hapiPropertyTable\"><tbody><tr><td>Identifier</td><td>fca51eeec53d2cb77f423c38feec332b</td></tr><tr><td>Date of birth</td><td><span>02 January 1974</span></td></tr></tbody></table></div>"},"extension":[{"url":"http://hl7.org/fhir/us/core/StructureDefinition/us-core-race","extension":[{"url":"ombCategory","valueCoding":{"system":"urn:oid:2.16.840.1.113883.6.238","code":"1002-5","display":"American Indian or Alaska Native","userSelected":true}},{"url":"text","valueString":"American Indian or Alaska Native"}]},{"url":"http://hl7.org/fhir/us/core/StructureDefinition/us-core-ethnicity","extension":[{"url":"ombCategory","valueCoding":{"system":"urn:oid:2.16.840.1.113883.6.238","code":"2135-2","display":"Hispanic or Latino","userSelected":true}},{"url":"text","valueString":"Hispanic or Latino"}]}],"identifier":[{"type":{"coding":[{"system":"http://terminology.hl7.org/CodeSystem/v2-0203","code":"MR"}]},"system":"https://bonnie-fhir.healthit.gov/","value":"612e6ac202c62a011f2eb282"}],"active":true,"name":[{"use":"usual","family":"NUMERPass","given":["DxAFibStartsOnEncEndTime"]}],"gender":"male","birthDate":"1974-01-02"},"request":{"method":"PUT","url":"Patient/543248c8-b6af-407d-b435-7e867c4770b4"}},{"fullUrl":"https://madie.cms.gov/Encounter/5ca62960b8484628b8de1e68","resource":{"resourceType":"Encounter","id":"390999a0-e662-4003-9596-3763734439b1","meta":{"profile":["http://hl7.org/fhir/us/qicore/StructureDefinition/qicore-encounter"]},"status":"finished","class":{"system":"http://terminology.hl7.org/CodeSystem/v3-ActCode","code":"IMP","display":"inpatient encounter"},"type":[{"coding":[{"system":"http://snomed.info/sct","code":"8715000"}]}],"subject":{"reference":"Patient/543248c8-b6af-407d-b435-7e867c4770b4"},"period":{"start":"2025-11-01T08:00:00+00:00","end":"2025-11-26T08:15:00+00:00"},"length":{"value":25.0,"unit":"days"}},"request":{"method":"PUT","url":"Encounter/390999a0-e662-4003-9596-3763734439b1"}},{"fullUrl":"https://madie.cms.gov/Coverage/5fa041581c76ba66d9959274","resource":{"resourceType":"Coverage","id":"fb771b17-165d-4bd9-99db-03fa40ed314c","status":"active","beneficiary":{"reference":"Patient/543248c8-b6af-407d-b435-7e867c4770b4"},"period":{"start":"1974-01-02T08:00:00+00:00"},"payor":[{"reference":"Organization/4b5a882f-1f43-485c-85c6-f5ad2337d5b1"}]},"request":{"method":"PUT","url":"Coverage/fb771b17-165d-4bd9-99db-03fa40ed314c"}},{"fullUrl":"https://madie.cms.gov/Condition/5ca62960b8484628b8de1e67","resource":{"resourceType":"Condition","id":"ffdf0379-4e05-4492-9c8c-497b9e208a2c","meta":{"profile":["http://hl7.org/fhir/us/qicore/StructureDefinition/qicore-condition"]},"clinicalStatus":{"coding":[{"system":"http://terminology.hl7.org/CodeSystem/condition-clinical","code":"active","display":"active","userSelected":true}]},"verificationStatus":{"coding":[{"system":"http://terminology.hl7.org/CodeSystem/condition-ver-status","code":"confirmed","display":"confirmed","userSelected":true}]},"category":[{"coding":[{"system":"http://terminology.hl7.org/CodeSystem/condition-category","code":"problem-list-item","display":"Problem List Item"}]}],"code":{"coding":[{"system":"http://snomed.info/sct","code":"195080001"},{"system":"http://hl7.org/fhir/sid/icd-9-cm","code":"427.31"},{"system":"http://hl7.org/fhir/sid/icd-10-cm","code":"I48.0"}]},"subject":{"reference":"Patient/543248c8-b6af-407d-b435-7e867c4770b4"},"onsetPeriod":{"start":"2025-11-26T08:15:00+00:00"}},"request":{"method":"PUT","url":"Condition/ffdf0379-4e05-4492-9c8c-497b9e208a2c"}},{"fullUrl":"https://madie.cms.gov/MedicationAdministration/5ca62960b8484628b8de1e69","resource":{"resourceType":"MedicationAdministration","id":"42289f54-e22e-4366-be56-44277e239db2","meta":{"profile":["http://hl7.org/fhir/us/qicore/StructureDefinition/qicore-medicationadministration"]},"status":"completed","medicationCodeableConcept":{"coding":[{"system":"http://www.nlm.nih.gov/research/umls/rxnorm","code":"1599555"}]},"subject":{"reference":"Patient/543248c8-b6af-407d-b435-7e867c4770b4"},"effectivePeriod":{"start":"2025-11-01T09:00:00+00:00"}},"request":{"method":"PUT","url":"MedicationAdministration/42289f54-e22e-4366-be56-44277e239db2"}},{"fullUrl":"https://madie.cms.gov/Organization/123456","resource":{"resourceType":"Organization","id":"4b5a882f-1f43-485c-85c6-f5ad2337d5b1","meta":{"profile":["http://hl7.org/fhir/us/qicore/StructureDefinition/qicore-organization"]},"identifier":[{"use":"temp","system":"urn:oid:2.16.840.1.113883.4.4","value":"21-3259825"}],"active":true,"type":[{"coding":[{"system":"http://terminology.hl7.org/CodeSystem/organization-type","code":"pay","display":"Payer"}]}],"name":"Blue Cross Blue Shield of Texas","telecom":[{"system":"phone","value":"(+1) 972-766-6900"}],"address":[{"use":"billing","type":"postal","line":["P.O. Box 660044"],"city":"Dallas","state":"TX","postalCode":"75266-0044","country":"USA"}]},"request":{"method":"PUT","url":"Organization/4b5a882f-1f43-485c-85c6-f5ad2337d5b1"}},{"fullUrl":"https://madie.cms.gov/Practitioner/practitioner-123456","resource":{"resourceType":"Practitioner","id":"9a7a0f8f-36d2-4a5d-b46e-28733cc4a263","identifier":[{"system":"http://hl7.org/fhir/sid/us-npi","value":"123456"}],"name":[{"family":"Evil","prefix":["Dr"]}]},"request":{"method":"PUT","url":"Practitioner/9a7a0f8f-36d2-4a5d-b46e-28733cc4a263"}},{"fullUrl":"https://madie.cms.gov/MeasureReport/41d3aa66-48b8-4ae0-b57e-d16b1acdc374","resource":{"resourceType":"MeasureReport","id":"41d3aa66-48b8-4ae0-b57e-d16b1acdc374","meta":{"profile":["http://hl7.org/fhir/us/cqfmeasures/StructureDefinition/test-case-cqfm"]},"contained":[{"resourceType":"Parameters","id":"9cf25e6a-0299-4217-9857-ef9bc854dd16-parameters","parameter":[{"name":"subject","valueString":"543248c8-b6af-407d-b435-7e867c4770b4"}]}],"extension":[{"url":"http://hl7.org/fhir/us/cqfmeasures/StructureDefinition/cqfm-inputParameters","valueReference":{"reference":"#9cf25e6a-0299-4217-9857-ef9bc854dd16-parameters"}},{"url":"http://hl7.org/fhir/us/cqfmeasures/StructureDefinition/cqfm-testCaseDescription","valueMarkdown":"Has oral Xa and AFib - AFib start time concurrent with EncInp end time.\n"}],"modifierExtension":[{"url":"http://hl7.org/fhir/us/cqfmeasures/StructureDefinition/cqfm-isTestCase","valueBoolean":true}],"status":"complete","type":"individual","measure":"https://madie.cms.gov/Measure/VenousThromboembolismProphylaxisFHIR","period":{"start":"2025-01-01","end":"2025-12-31"},"group":[{"population":[{"code":{"coding":[{"system":"http://terminology.hl7.org/CodeSystem/measure-population","code":"initial-population","display":"Initial Population"}]},"count":1},{"code":{"coding":[{"system":"http://terminology.hl7.org/CodeSystem/measure-population","code":"denominator","display":"Denominator"}]},"count":1},{"code":{"coding":[{"system":"http://terminology.hl7.org/CodeSystem/measure-population","code":"denominator-exclusion","display":"Denominator Exclusion"}]},"count":0},{"code":{"coding":[{"system":"http://terminology.hl7.org/CodeSystem/measure-population","code":"numerator","display":"Numerator"}]},"count":1}]}]},"request":{"method":"PUT","url":"MeasureReport/41d3aa66-48b8-4ae0-b57e-d16b1acdc374"}}]}