{"resourceType":"Bundle","id":"tests-4df4e9bf-dff3-448c-a6f1-6415d8ebb8a6-bundle","type":"transaction","entry":[{"fullUrl":"https://madie.cms.gov/Patient/4df4e9bf-dff3-448c-a6f1-6415d8ebb8a6","resource":{"resourceType":"Patient","id":"4df4e9bf-dff3-448c-a6f1-6415d8ebb8a6","meta":{"profile":["http://hl7.org/fhir/us/qicore/StructureDefinition/qicore-patient"]},"text":{"status":"generated","div":"<div xmlns=\"http://www.w3.org/1999/xhtml\"><div class=\"hapiHeaderText\">MA_Glyco_IPEnc_MedAdmRvltDT <b>NUMERPASS </b></div><table class=\"hapiPropertyTable\"><tbody><tr><td>Identifier</td><td>f3f0e593658312f8c4ef6efb1bb1d75a</td></tr><tr><td>Date of birth</td><td><span>02 January 1974</span></td></tr></tbody></table></div>"},"extension":[{"url":"http://hl7.org/fhir/us/core/StructureDefinition/us-core-race","extension":[{"url":"ombCategory","valueCoding":{"system":"urn:oid:2.16.840.1.113883.6.238","code":"1002-5","display":"American Indian or Alaska Native","userSelected":true}},{"url":"text","valueString":"American Indian or Alaska Native"}]},{"url":"http://hl7.org/fhir/us/core/StructureDefinition/us-core-ethnicity","extension":[{"url":"ombCategory","valueCoding":{"system":"urn:oid:2.16.840.1.113883.6.238","code":"2135-2","display":"Hispanic or Latino","userSelected":true}},{"url":"text","valueString":"Hispanic or Latino"}]}],"identifier":[{"type":{"coding":[{"system":"http://terminology.hl7.org/CodeSystem/v2-0203","code":"MR"}]},"system":"https://bonnie-fhir.healthit.gov/","value":"612e6a6a02c62a011f2ea049"}],"active":true,"name":[{"use":"usual","family":"NUMERPass","given":["MA_Glyco_IPEnc_MedAdmRvltDT"]}],"gender":"male","birthDate":"1974-01-02"},"request":{"method":"PUT","url":"Patient/4df4e9bf-dff3-448c-a6f1-6415d8ebb8a6"}},{"fullUrl":"https://madie.cms.gov/Encounter/5ca6295eb8484628b8de1d76","resource":{"resourceType":"Encounter","id":"0e23f076-6c24-4a42-a160-492ca578066b","meta":{"profile":["http://hl7.org/fhir/us/qicore/StructureDefinition/qicore-encounter"]},"status":"finished","class":{"system":"http://terminology.hl7.org/CodeSystem/v3-ActCode","code":"IMP","display":"inpatient encounter"},"type":[{"coding":[{"system":"http://snomed.info/sct","code":"8715000"}]}],"subject":{"reference":"Patient/4df4e9bf-dff3-448c-a6f1-6415d8ebb8a6"},"period":{"start":"2025-11-01T08:00:00+00:00","end":"2025-11-26T08:15:00+00:00"},"length":{"value":25.0,"unit":"days"}},"request":{"method":"PUT","url":"Encounter/0e23f076-6c24-4a42-a160-492ca578066b"}},{"fullUrl":"https://madie.cms.gov/Coverage/5fa0414c1c76ba66d99591ae","resource":{"resourceType":"Coverage","id":"06bcfde2-dd2c-4a73-be42-f90e00465058","status":"active","beneficiary":{"reference":"Patient/4df4e9bf-dff3-448c-a6f1-6415d8ebb8a6"},"period":{"start":"1974-01-02T08:00:00+00:00"},"payor":[{"reference":"Organization/4b5a882f-1f43-485c-85c6-f5ad2337d5b1"}]},"request":{"method":"PUT","url":"Coverage/06bcfde2-dd2c-4a73-be42-f90e00465058"}},{"fullUrl":"https://madie.cms.gov/MedicationAdministration/5ca6295eb8484628b8de1d77","resource":{"resourceType":"MedicationAdministration","id":"c7b3521c-d587-40cc-a3cc-d95782981326","meta":{"profile":["http://hl7.org/fhir/us/qicore/StructureDefinition/qicore-medicationadministration"]},"status":"completed","medicationCodeableConcept":{"coding":[{"system":"http://www.nlm.nih.gov/research/umls/rxnorm","code":"200349"}]},"subject":{"reference":"Patient/4df4e9bf-dff3-448c-a6f1-6415d8ebb8a6"},"effectiveDateTime":"2025-11-01T09:00:00+00:00"},"request":{"method":"PUT","url":"MedicationAdministration/c7b3521c-d587-40cc-a3cc-d95782981326"}},{"fullUrl":"https://madie.cms.gov/Organization/123456","resource":{"resourceType":"Organization","id":"4b5a882f-1f43-485c-85c6-f5ad2337d5b1","meta":{"profile":["http://hl7.org/fhir/us/qicore/StructureDefinition/qicore-organization"]},"identifier":[{"use":"temp","system":"urn:oid:2.16.840.1.113883.4.4","value":"21-3259825"}],"active":true,"type":[{"coding":[{"system":"http://terminology.hl7.org/CodeSystem/organization-type","code":"pay","display":"Payer"}]}],"name":"Blue Cross Blue Shield of Texas","telecom":[{"system":"phone","value":"(+1) 972-766-6900"}],"address":[{"use":"billing","type":"postal","line":["P.O. Box 660044"],"city":"Dallas","state":"TX","postalCode":"75266-0044","country":"USA"}]},"request":{"method":"PUT","url":"Organization/4b5a882f-1f43-485c-85c6-f5ad2337d5b1"}},{"fullUrl":"https://madie.cms.gov/Practitioner/practitioner-123456","resource":{"resourceType":"Practitioner","id":"bb8ee769-98b3-4045-9441-96a38d5e095e","identifier":[{"system":"http://hl7.org/fhir/sid/us-npi","value":"123456"}],"name":[{"family":"Evil","prefix":["Dr"]}]},"request":{"method":"PUT","url":"Practitioner/bb8ee769-98b3-4045-9441-96a38d5e095e"}},{"fullUrl":"https://madie.cms.gov/MeasureReport/2caa1713-45a6-4f67-b688-9bb5dee89c05","resource":{"resourceType":"MeasureReport","id":"2caa1713-45a6-4f67-b688-9bb5dee89c05","meta":{"profile":["http://hl7.org/fhir/us/cqfmeasures/StructureDefinition/test-case-cqfm"]},"contained":[{"resourceType":"Parameters","id":"332de8a2-8cc6-4d02-80d3-dc4613910060-parameters","parameter":[{"name":"subject","valueString":"4df4e9bf-dff3-448c-a6f1-6415d8ebb8a6"}]}],"extension":[{"url":"http://hl7.org/fhir/us/cqfmeasures/StructureDefinition/cqfm-inputParameters","valueReference":{"reference":"#332de8a2-8cc6-4d02-80d3-dc4613910060-parameters"}},{"url":"http://hl7.org/fhir/us/cqfmeasures/StructureDefinition/cqfm-testCaseDescription","valueMarkdown":"glycoprotein IIb/IIIa inibitor =0  day after start of IP encounter\n"}],"modifierExtension":[{"url":"http://hl7.org/fhir/us/cqfmeasures/StructureDefinition/cqfm-isTestCase","valueBoolean":true}],"status":"complete","type":"individual","measure":"https://madie.cms.gov/Measure/VenousThromboembolismProphylaxisFHIR","period":{"start":"2025-01-01","end":"2025-12-31"},"group":[{"population":[{"code":{"coding":[{"system":"http://terminology.hl7.org/CodeSystem/measure-population","code":"initial-population","display":"Initial Population"}]},"count":1},{"code":{"coding":[{"system":"http://terminology.hl7.org/CodeSystem/measure-population","code":"denominator","display":"Denominator"}]},"count":1},{"code":{"coding":[{"system":"http://terminology.hl7.org/CodeSystem/measure-population","code":"denominator-exclusion","display":"Denominator Exclusion"}]},"count":0},{"code":{"coding":[{"system":"http://terminology.hl7.org/CodeSystem/measure-population","code":"numerator","display":"Numerator"}]},"count":1}]}]},"request":{"method":"PUT","url":"MeasureReport/2caa1713-45a6-4f67-b688-9bb5dee89c05"}}]}