{"resourceType":"Bundle","id":"tests-77c1bf41-fce8-4044-9eeb-c205b8fdc0a9-bundle","type":"transaction","entry":[{"fullUrl":"https://madie.cms.gov/Patient/77c1bf41-fce8-4044-9eeb-c205b8fdc0a9","resource":{"resourceType":"Patient","id":"77c1bf41-fce8-4044-9eeb-c205b8fdc0a9","meta":{"profile":["http://hl7.org/fhir/us/qicore/StructureDefinition/qicore-patient"]},"text":{"status":"generated","div":"<div xmlns=\"http://www.w3.org/1999/xhtml\"><div class=\"hapiHeaderText\">MA_InjXa_1MinAfterAnesEndTime <b>NUMERPASS </b></div><table class=\"hapiPropertyTable\"><tbody><tr><td>Identifier</td><td>9a09d8440030e02516ccf84b416cd528</td></tr><tr><td>Date of birth</td><td><span>02 January 1974</span></td></tr></tbody></table></div>"},"extension":[{"url":"http://hl7.org/fhir/us/core/StructureDefinition/us-core-race","extension":[{"url":"ombCategory","valueCoding":{"system":"urn:oid:2.16.840.1.113883.6.238","code":"1002-5","display":"American Indian or Alaska Native","userSelected":true}},{"url":"text","valueString":"American Indian or Alaska Native"}]},{"url":"http://hl7.org/fhir/us/core/StructureDefinition/us-core-ethnicity","extension":[{"url":"ombCategory","valueCoding":{"system":"urn:oid:2.16.840.1.113883.6.238","code":"2135-2","display":"Hispanic or Latino","userSelected":true}},{"url":"text","valueString":"Hispanic or Latino"}]}],"identifier":[{"type":{"coding":[{"system":"http://terminology.hl7.org/CodeSystem/v2-0203","code":"MR"}]},"system":"https://bonnie-fhir.healthit.gov/","value":"612e6a8d02c62a011f2ea53e"}],"active":true,"name":[{"use":"usual","family":"NUMERPass","given":["MA_InjXa_1MinAfterAnesEndTime"]}],"gender":"male","birthDate":"1974-01-02"},"request":{"method":"PUT","url":"Patient/77c1bf41-fce8-4044-9eeb-c205b8fdc0a9"}},{"fullUrl":"https://madie.cms.gov/Encounter/5ca6295fb8484628b8de1dc9","resource":{"resourceType":"Encounter","id":"7f54735c-09fa-4090-9110-e07161c75f8a","meta":{"profile":["http://hl7.org/fhir/us/qicore/StructureDefinition/qicore-encounter"]},"status":"finished","class":{"system":"http://terminology.hl7.org/CodeSystem/v3-ActCode","code":"IMP","display":"inpatient encounter"},"type":[{"coding":[{"system":"http://snomed.info/sct","code":"8715000"}]}],"subject":{"reference":"Patient/77c1bf41-fce8-4044-9eeb-c205b8fdc0a9"},"period":{"start":"2025-11-01T00:00:00.000+00:00","end":"2025-11-30T23:59:00.000+00:00"},"length":{"value":29.0,"unit":"days"}},"request":{"method":"PUT","url":"Encounter/7f54735c-09fa-4090-9110-e07161c75f8a"}},{"fullUrl":"https://madie.cms.gov/Coverage/5fa041501c76ba66d99591e7","resource":{"resourceType":"Coverage","id":"d236bf8e-e3bb-455c-a5f4-d2f5b2cf859b","status":"active","beneficiary":{"reference":"Patient/77c1bf41-fce8-4044-9eeb-c205b8fdc0a9"},"period":{"start":"1974-01-02T08:00:00+00:00"},"payor":[{"reference":"Organization/4b5a882f-1f43-485c-85c6-f5ad2337d5b1"}]},"request":{"method":"PUT","url":"Coverage/d236bf8e-e3bb-455c-a5f4-d2f5b2cf859b"}},{"fullUrl":"https://madie.cms.gov/MedicationAdministration/5ca6295fb8484628b8de1dca","resource":{"resourceType":"MedicationAdministration","id":"25134fe5-c590-4c28-a29f-16f74bd8b6b6","meta":{"profile":["http://hl7.org/fhir/us/qicore/StructureDefinition/qicore-medicationadministration"]},"status":"completed","medicationCodeableConcept":{"coding":[{"system":"http://www.nlm.nih.gov/research/umls/rxnorm","code":"861356"}]},"subject":{"reference":"Patient/77c1bf41-fce8-4044-9eeb-c205b8fdc0a9"},"effectivePeriod":{"start":"2025-11-01T01:01:00+00:00"}},"request":{"method":"PUT","url":"MedicationAdministration/25134fe5-c590-4c28-a29f-16f74bd8b6b6"}},{"fullUrl":"https://madie.cms.gov/Procedure/5ca6295fb8484628b8de1dcb","resource":{"resourceType":"Procedure","id":"30dd8c30-7609-4b1b-919b-9983ae65b57d","meta":{"profile":["http://hl7.org/fhir/us/qicore/StructureDefinition/qicore-procedure"]},"extension":[{"url":"http://hl7.org/fhir/us/qicore/StructureDefinition/qicore-recorded","valueDateTime":"2012-11-01T09:35:00-04:00"}],"status":"completed","code":{"coding":[{"system":"http://www.icd10data.com/icd10pcs","code":"3E030FZ"},{"system":"http://snomed.info/sct","code":"18946005"}]},"subject":{"reference":"Patient/77c1bf41-fce8-4044-9eeb-c205b8fdc0a9"},"performedPeriod":{"start":"2025-11-01T00:00:00+00:00","end":"2025-11-01T01:00:00+00:00"}},"request":{"method":"PUT","url":"Procedure/30dd8c30-7609-4b1b-919b-9983ae65b57d"}},{"fullUrl":"https://madie.cms.gov/Organization/123456","resource":{"resourceType":"Organization","id":"4b5a882f-1f43-485c-85c6-f5ad2337d5b1","meta":{"profile":["http://hl7.org/fhir/us/qicore/StructureDefinition/qicore-organization"]},"identifier":[{"use":"temp","system":"urn:oid:2.16.840.1.113883.4.4","value":"21-3259825"}],"active":true,"type":[{"coding":[{"system":"http://terminology.hl7.org/CodeSystem/organization-type","code":"pay","display":"Payer"}]}],"name":"Blue Cross Blue Shield of Texas","telecom":[{"system":"phone","value":"(+1) 972-766-6900"}],"address":[{"use":"billing","type":"postal","line":["P.O. Box 660044"],"city":"Dallas","state":"TX","postalCode":"75266-0044","country":"USA"}]},"request":{"method":"PUT","url":"Organization/4b5a882f-1f43-485c-85c6-f5ad2337d5b1"}},{"fullUrl":"https://madie.cms.gov/Practitioner/practitioner-123456","resource":{"resourceType":"Practitioner","id":"11b1fcab-8e7c-44bf-ae02-1414165629c8","identifier":[{"system":"http://hl7.org/fhir/sid/us-npi","value":"123456"}],"name":[{"family":"Evil","prefix":["Dr"]}]},"request":{"method":"PUT","url":"Practitioner/11b1fcab-8e7c-44bf-ae02-1414165629c8"}},{"fullUrl":"https://madie.cms.gov/MeasureReport/c42a45cf-4923-42be-bf7f-5a9612311c23","resource":{"resourceType":"MeasureReport","id":"c42a45cf-4923-42be-bf7f-5a9612311c23","meta":{"profile":["http://hl7.org/fhir/us/cqfmeasures/StructureDefinition/test-case-cqfm"]},"contained":[{"resourceType":"Parameters","id":"82a4097f-5327-46a2-9a67-1f9a93b80643-parameters","parameter":[{"name":"subject","valueString":"77c1bf41-fce8-4044-9eeb-c205b8fdc0a9"}]}],"extension":[{"url":"http://hl7.org/fhir/us/cqfmeasures/StructureDefinition/cqfm-inputParameters","valueReference":{"reference":"#82a4097f-5327-46a2-9a67-1f9a93b80643-parameters"}},{"url":"http://hl7.org/fhir/us/cqfmeasures/StructureDefinition/cqfm-testCaseDescription","valueMarkdown":"Patient received injectable factor Xa med 1 min after anesthesia.end\n"}],"modifierExtension":[{"url":"http://hl7.org/fhir/us/cqfmeasures/StructureDefinition/cqfm-isTestCase","valueBoolean":true}],"status":"complete","type":"individual","measure":"https://madie.cms.gov/Measure/VenousThromboembolismProphylaxisFHIR","period":{"start":"2025-01-01","end":"2025-12-31"},"group":[{"population":[{"code":{"coding":[{"system":"http://terminology.hl7.org/CodeSystem/measure-population","code":"initial-population","display":"Initial Population"}]},"count":1},{"code":{"coding":[{"system":"http://terminology.hl7.org/CodeSystem/measure-population","code":"denominator","display":"Denominator"}]},"count":1},{"code":{"coding":[{"system":"http://terminology.hl7.org/CodeSystem/measure-population","code":"denominator-exclusion","display":"Denominator Exclusion"}]},"count":0},{"code":{"coding":[{"system":"http://terminology.hl7.org/CodeSystem/measure-population","code":"numerator","display":"Numerator"}]},"count":1}]}]},"request":{"method":"PUT","url":"MeasureReport/c42a45cf-4923-42be-bf7f-5a9612311c23"}}]}