{"resourceType":"Bundle","id":"tests-8da72843-3486-4507-99f5-c9622a389384-bundle","type":"transaction","entry":[{"fullUrl":"https://madie.cms.gov/Patient/8da72843-3486-4507-99f5-c9622a389384","resource":{"resourceType":"Patient","id":"8da72843-3486-4507-99f5-c9622a389384","meta":{"profile":["http://hl7.org/fhir/us/qicore/StructureDefinition/qicore-patient"]},"text":{"status":"generated","div":"<div xmlns=\"http://www.w3.org/1999/xhtml\"><div class=\"hapiHeaderText\">EncDx_HemStrokeRank2 <b>DENEXFAIL </b></div><table class=\"hapiPropertyTable\"><tbody><tr><td>Identifier</td><td>29c9716eb5f48b54d7b337bf497e0e5e</td></tr><tr><td>Date of birth</td><td><span>01 December 2003</span></td></tr></tbody></table></div>"},"extension":[{"url":"http://hl7.org/fhir/us/core/StructureDefinition/us-core-race","extension":[{"url":"ombCategory","valueCoding":{"system":"urn:oid:2.16.840.1.113883.6.238","code":"1002-5","display":"American Indian or Alaska Native","userSelected":true}},{"url":"text","valueString":"American Indian or Alaska Native"}]},{"url":"http://hl7.org/fhir/us/core/StructureDefinition/us-core-ethnicity","extension":[{"url":"ombCategory","valueCoding":{"system":"urn:oid:2.16.840.1.113883.6.238","code":"2135-2","display":"Hispanic or Latino","userSelected":true}},{"url":"text","valueString":"Hispanic or Latino"}]}],"identifier":[{"type":{"coding":[{"system":"http://terminology.hl7.org/CodeSystem/v2-0203","code":"MR"}]},"system":"https://bonnie-fhir.healthit.gov/","value":"612e6aff02c62a011f2ec0bb"}],"active":true,"name":[{"use":"usual","family":"DENEXFail","given":["EncDx_HemStrokeRank2"]}],"gender":"female","birthDate":"2003-11-30"},"request":{"method":"PUT","url":"Patient/8da72843-3486-4507-99f5-c9622a389384"}},{"fullUrl":"https://madie.cms.gov/Encounter/5ca62962b8484628b8de1eb4","resource":{"resourceType":"Encounter","id":"ace318d5-c5c1-496e-a280-99d70fc80e5d","meta":{"profile":["http://hl7.org/fhir/us/qicore/StructureDefinition/qicore-encounter"]},"status":"finished","class":{"system":"http://terminology.hl7.org/CodeSystem/v3-ActCode","code":"IMP","display":"inpatient encounter"},"type":[{"coding":[{"system":"http://snomed.info/sct","code":"183452005"}]}],"subject":{"reference":"Patient/8da72843-3486-4507-99f5-c9622a389384"},"period":{"start":"2025-12-01T01:00:00.000+00:00","end":"2025-12-31T23:59:00.000+00:00"},"length":{"value":30,"unit":"days"},"diagnosis":[{"condition":{"reference":"Condition/hemorrhagic-stroke-e41d"},"use":{"coding":[{"system":"http://terminology.hl7.org/CodeSystem/diagnosis-role","code":"billing"}]},"rank":2}]},"request":{"method":"PUT","url":"Encounter/ace318d5-c5c1-496e-a280-99d70fc80e5d"}},{"fullUrl":"https://madie.cms.gov/Coverage/5fa041661c76ba66d995936a","resource":{"resourceType":"Coverage","id":"f0932589-fb29-4f59-812f-4ab1b5dbe3ed","status":"active","beneficiary":{"reference":"Patient/8da72843-3486-4507-99f5-c9622a389384"},"period":{"start":"2003-12-01T01:00:00+00:00"},"payor":[{"reference":"Organization/4b5a882f-1f43-485c-85c6-f5ad2337d5b1"}]},"request":{"method":"PUT","url":"Coverage/f0932589-fb29-4f59-812f-4ab1b5dbe3ed"}},{"fullUrl":"https://madie.cms.gov/Condition/hemorrhagic-stroke-e41d","resource":{"resourceType":"Condition","id":"065e7a5a-a870-4ca6-85f6-027763574588","meta":{"profile":["http://hl7.org/fhir/us/qicore/StructureDefinition/qicore-condition"]},"category":[{"coding":[{"system":"http://terminology.hl7.org/CodeSystem/condition-category","code":"encounter-diagnosis","display":"Encounter Diagnosis"}]}],"code":{"coding":[{"system":"http://snomed.info/sct","version":"2025-03","code":"195155004","display":"Subarachnoid hemorrhage from carotid siphon and bifurcation (disorder)","userSelected":true}]},"subject":{"reference":"Patient/8da72843-3486-4507-99f5-c9622a389384"},"recordedDate":"2025-07-12T08:00:00.000+00:00"},"request":{"method":"PUT","url":"Condition/065e7a5a-a870-4ca6-85f6-027763574588"}},{"fullUrl":"https://madie.cms.gov/Organization/123456","resource":{"resourceType":"Organization","id":"4b5a882f-1f43-485c-85c6-f5ad2337d5b1","meta":{"profile":["http://hl7.org/fhir/us/qicore/StructureDefinition/qicore-organization"]},"identifier":[{"use":"temp","system":"urn:oid:2.16.840.1.113883.4.4","value":"21-3259825"}],"active":true,"type":[{"coding":[{"system":"http://terminology.hl7.org/CodeSystem/organization-type","code":"pay","display":"Payer"}]}],"name":"Blue Cross Blue Shield of Texas","telecom":[{"system":"phone","value":"(+1) 972-766-6900"}],"address":[{"use":"billing","type":"postal","line":["P.O. Box 660044"],"city":"Dallas","state":"TX","postalCode":"75266-0044","country":"USA"}]},"request":{"method":"PUT","url":"Organization/4b5a882f-1f43-485c-85c6-f5ad2337d5b1"}},{"fullUrl":"https://madie.cms.gov/Practitioner/practitioner-123456","resource":{"resourceType":"Practitioner","id":"75fd5cc5-1b5e-4e85-833e-a348c5ac3425","identifier":[{"system":"http://hl7.org/fhir/sid/us-npi","value":"123456"}],"name":[{"family":"Evil","prefix":["Dr"]}]},"request":{"method":"PUT","url":"Practitioner/75fd5cc5-1b5e-4e85-833e-a348c5ac3425"}},{"fullUrl":"https://madie.cms.gov/MeasureReport/fd068981-8980-449c-8821-323f32c65941","resource":{"resourceType":"MeasureReport","id":"fd068981-8980-449c-8821-323f32c65941","meta":{"profile":["http://hl7.org/fhir/us/cqfmeasures/StructureDefinition/test-case-cqfm"]},"contained":[{"resourceType":"Parameters","id":"e41a37fd-5a68-4217-9c5d-5622e6c7491c-parameters","parameter":[{"name":"subject","valueString":"8da72843-3486-4507-99f5-c9622a389384"}]}],"extension":[{"url":"http://hl7.org/fhir/us/cqfmeasures/StructureDefinition/cqfm-inputParameters","valueReference":{"reference":"#e41a37fd-5a68-4217-9c5d-5622e6c7491c-parameters"}},{"url":"http://hl7.org/fhir/us/cqfmeasures/StructureDefinition/cqfm-testCaseDescription","valueMarkdown":"Encounter Dx of HemStroke without Rank =2 (rank = 0 is not valid value due to QICore).\n"}],"modifierExtension":[{"url":"http://hl7.org/fhir/us/cqfmeasures/StructureDefinition/cqfm-isTestCase","valueBoolean":true}],"status":"complete","type":"individual","measure":"https://madie.cms.gov/Measure/VenousThromboembolismProphylaxisFHIR","period":{"start":"2025-01-01","end":"2025-12-31"},"group":[{"population":[{"code":{"coding":[{"system":"http://terminology.hl7.org/CodeSystem/measure-population","code":"initial-population","display":"Initial Population"}]},"count":1},{"code":{"coding":[{"system":"http://terminology.hl7.org/CodeSystem/measure-population","code":"denominator","display":"Denominator"}]},"count":1},{"code":{"coding":[{"system":"http://terminology.hl7.org/CodeSystem/measure-population","code":"denominator-exclusion","display":"Denominator Exclusion"}]},"count":0},{"code":{"coding":[{"system":"http://terminology.hl7.org/CodeSystem/measure-population","code":"numerator","display":"Numerator"}]},"count":0}]}]},"request":{"method":"PUT","url":"MeasureReport/fd068981-8980-449c-8821-323f32c65941"}}]}