{"resourceType":"Bundle","id":"tests-8bb999a1-696a-497b-a5f4-aa55e146a16e-bundle","type":"transaction","entry":[{"fullUrl":"https://madie.cms.gov/Patient/8bb999a1-696a-497b-a5f4-aa55e146a16e","resource":{"resourceType":"Patient","id":"8bb999a1-696a-497b-a5f4-aa55e146a16e","meta":{"profile":["http://hl7.org/fhir/us/qicore/StructureDefinition/qicore-patient"]},"text":{"status":"generated","div":"<div xmlns=\"http://www.w3.org/1999/xhtml\"><div class=\"hapiHeaderText\">INR4_1DayAfterAnes_2DayAFAdm <b>NUMERPASS </b></div><table class=\"hapiPropertyTable\"><tbody><tr><td>Identifier</td><td>d60bf11ee63fd74306a1faa9c3f4d0e1</td></tr><tr><td>Date of birth</td><td><span>02 January 1974</span></td></tr></tbody></table></div>"},"extension":[{"url":"http://hl7.org/fhir/us/core/StructureDefinition/us-core-race","extension":[{"url":"ombCategory","valueCoding":{"system":"urn:oid:2.16.840.1.113883.6.238","code":"1002-5","display":"American Indian or Alaska Native","userSelected":true}},{"url":"text","valueString":"American Indian or Alaska Native"}]},{"url":"http://hl7.org/fhir/us/core/StructureDefinition/us-core-ethnicity","extension":[{"url":"ombCategory","valueCoding":{"system":"urn:oid:2.16.840.1.113883.6.238","code":"2135-2","display":"Hispanic or Latino","userSelected":true}},{"url":"text","valueString":"Hispanic or Latino"}]}],"identifier":[{"type":{"coding":[{"system":"http://terminology.hl7.org/CodeSystem/v2-0203","code":"MR"}]},"system":"https://bonnie-fhir.healthit.gov/","value":"612e6ad702c62a011f2eb691"}],"active":true,"name":[{"use":"usual","family":"NUMERPass","given":["INR4_1DayAfterAnes_2DayAFAdm"]}],"gender":"male","birthDate":"1974-01-02"},"request":{"method":"PUT","url":"Patient/8bb999a1-696a-497b-a5f4-aa55e146a16e"}},{"fullUrl":"https://madie.cms.gov/Encounter/5ca62964b8484628b8de1f3b","resource":{"resourceType":"Encounter","id":"3d511c78-ca65-4067-bcb4-2bbabc943ccc","meta":{"profile":["http://hl7.org/fhir/us/qicore/StructureDefinition/qicore-encounter"]},"status":"finished","class":{"system":"http://terminology.hl7.org/CodeSystem/v3-ActCode","code":"IMP","display":"inpatient encounter"},"type":[{"coding":[{"system":"http://snomed.info/sct","code":"8715000"}]}],"subject":{"reference":"Patient/8bb999a1-696a-497b-a5f4-aa55e146a16e"},"period":{"start":"2025-11-01T08:00:00+00:00","end":"2025-11-26T08:15:00+00:00"},"length":{"value":25.0,"unit":"days"}},"request":{"method":"PUT","url":"Encounter/3d511c78-ca65-4067-bcb4-2bbabc943ccc"}},{"fullUrl":"https://madie.cms.gov/Coverage/5fa041601c76ba66d995930a","resource":{"resourceType":"Coverage","id":"5f08a97f-e25f-4e19-b5d4-a499525e2c0a","status":"active","beneficiary":{"reference":"Patient/8bb999a1-696a-497b-a5f4-aa55e146a16e"},"period":{"start":"1974-01-02T08:00:00+00:00"},"payor":[{"reference":"Organization/4b5a882f-1f43-485c-85c6-f5ad2337d5b1"}]},"request":{"method":"PUT","url":"Coverage/5f08a97f-e25f-4e19-b5d4-a499525e2c0a"}},{"fullUrl":"https://madie.cms.gov/Observation/5ca62964b8484628b8de1f3d","resource":{"resourceType":"Observation","id":"a9c5bb01-24b3-4384-82a2-66e2f9649dd6","meta":{"profile":["http://hl7.org/fhir/us/core/StructureDefinition/us-core-observation-lab"]},"status":"final","category":[{"coding":[{"system":"http://terminology.hl7.org/CodeSystem/observation-category","code":"laboratory","display":"Laboratory"}]}],"code":{"coding":[{"system":"http://loinc.org","code":"34714-6"}]},"subject":{"reference":"Patient/8bb999a1-696a-497b-a5f4-aa55e146a16e"},"effectiveDateTime":"2025-11-03T09:00:00+00:00","issued":"2025-11-03T09:00:00.000+00:00","valueQuantity":{"value":4.0,"unit":"{INR}"}},"request":{"method":"PUT","url":"Observation/a9c5bb01-24b3-4384-82a2-66e2f9649dd6"}},{"fullUrl":"https://madie.cms.gov/Procedure/5ca62964b8484628b8de1f3c","resource":{"resourceType":"Procedure","id":"ea85f642-6c2a-46d2-9c78-d73d9969e5a8","meta":{"profile":["http://hl7.org/fhir/us/qicore/StructureDefinition/qicore-procedure"]},"extension":[{"url":"http://hl7.org/fhir/us/qicore/StructureDefinition/qicore-recorded","valueDateTime":"2012-11-02T09:35:00-04:00"}],"status":"completed","code":{"coding":[{"system":"http://www.icd10data.com/icd10pcs","code":"3E030FZ"},{"system":"http://snomed.info/sct","code":"18946005"}]},"subject":{"reference":"Patient/8bb999a1-696a-497b-a5f4-aa55e146a16e"},"performedPeriod":{"start":"2025-11-02T09:00:00+00:00","end":"2025-11-02T09:15:00+00:00"}},"request":{"method":"PUT","url":"Procedure/ea85f642-6c2a-46d2-9c78-d73d9969e5a8"}},{"fullUrl":"https://madie.cms.gov/Organization/123456","resource":{"resourceType":"Organization","id":"4b5a882f-1f43-485c-85c6-f5ad2337d5b1","meta":{"profile":["http://hl7.org/fhir/us/qicore/StructureDefinition/qicore-organization"]},"identifier":[{"use":"temp","system":"urn:oid:2.16.840.1.113883.4.4","value":"21-3259825"}],"active":true,"type":[{"coding":[{"system":"http://terminology.hl7.org/CodeSystem/organization-type","code":"pay","display":"Payer"}]}],"name":"Blue Cross Blue Shield of Texas","telecom":[{"system":"phone","value":"(+1) 972-766-6900"}],"address":[{"use":"billing","type":"postal","line":["P.O. Box 660044"],"city":"Dallas","state":"TX","postalCode":"75266-0044","country":"USA"}]},"request":{"method":"PUT","url":"Organization/4b5a882f-1f43-485c-85c6-f5ad2337d5b1"}},{"fullUrl":"https://madie.cms.gov/Practitioner/practitioner-123456","resource":{"resourceType":"Practitioner","id":"c84d94be-9525-4450-84fc-9c0e9456da40","identifier":[{"system":"http://hl7.org/fhir/sid/us-npi","value":"123456"}],"name":[{"family":"Evil","prefix":["Dr"]}]},"request":{"method":"PUT","url":"Practitioner/c84d94be-9525-4450-84fc-9c0e9456da40"}},{"fullUrl":"https://madie.cms.gov/MeasureReport/351c6797-744e-4703-a06b-f8956b2d1f4f","resource":{"resourceType":"MeasureReport","id":"351c6797-744e-4703-a06b-f8956b2d1f4f","meta":{"profile":["http://hl7.org/fhir/us/cqfmeasures/StructureDefinition/test-case-cqfm"]},"contained":[{"resourceType":"Parameters","id":"2fbadf3f-5d00-45e0-bfdd-4f8c69644e69-parameters","parameter":[{"name":"subject","valueString":"8bb999a1-696a-497b-a5f4-aa55e146a16e"}]}],"extension":[{"url":"http://hl7.org/fhir/us/cqfmeasures/StructureDefinition/cqfm-inputParameters","valueReference":{"reference":"#2fbadf3f-5d00-45e0-bfdd-4f8c69644e69-parameters"}},{"url":"http://hl7.org/fhir/us/cqfmeasures/StructureDefinition/cqfm-testCaseDescription","valueMarkdown":">18, dx VTE, LOS<120 day,   LabResult INR>3 no decimal,  Day After surgery end datetime \n"}],"modifierExtension":[{"url":"http://hl7.org/fhir/us/cqfmeasures/StructureDefinition/cqfm-isTestCase","valueBoolean":true}],"status":"complete","type":"individual","measure":"https://madie.cms.gov/Measure/VenousThromboembolismProphylaxisFHIR","period":{"start":"2025-01-01","end":"2025-12-31"},"group":[{"population":[{"code":{"coding":[{"system":"http://terminology.hl7.org/CodeSystem/measure-population","code":"initial-population","display":"Initial Population"}]},"count":1},{"code":{"coding":[{"system":"http://terminology.hl7.org/CodeSystem/measure-population","code":"denominator","display":"Denominator"}]},"count":1},{"code":{"coding":[{"system":"http://terminology.hl7.org/CodeSystem/measure-population","code":"denominator-exclusion","display":"Denominator Exclusion"}]},"count":0},{"code":{"coding":[{"system":"http://terminology.hl7.org/CodeSystem/measure-population","code":"numerator","display":"Numerator"}]},"count":1}]}]},"request":{"method":"PUT","url":"MeasureReport/351c6797-744e-4703-a06b-f8956b2d1f4f"}}]}