{"resourceType":"Bundle","id":"tests-9b6d2fc2-6e25-4c0a-b4cb-3ca7f85be9b4-bundle","type":"transaction","entry":[{"fullUrl":"https://madie.cms.gov/Patient/9b6d2fc2-6e25-4c0a-b4cb-3ca7f85be9b4","resource":{"resourceType":"Patient","id":"9b6d2fc2-6e25-4c0a-b4cb-3ca7f85be9b4","meta":{"profile":["http://hl7.org/fhir/us/qicore/StructureDefinition/qicore-patient"]},"text":{"status":"generated","div":"<div xmlns=\"http://www.w3.org/1999/xhtml\"><div class=\"hapiHeaderText\">CMPerfDrgObsGT1HrBFAdmCMODayBFAdm <b>DENEXFAIL </b></div><table class=\"hapiPropertyTable\"><tbody><tr><td>Identifier</td><td>d874f5a6c52d811bf5e5d1093e0795b3dc8691e8a7d30647cbc3be67b679e144</td></tr><tr><td>Date of birth</td><td><span>02 January 1974</span></td></tr></tbody></table></div>"},"extension":[{"url":"http://hl7.org/fhir/us/core/StructureDefinition/us-core-race","extension":[{"url":"ombCategory","valueCoding":{"system":"urn:oid:2.16.840.1.113883.6.238","code":"1002-5","display":"American Indian or Alaska Native","userSelected":true}},{"url":"text","valueString":"American Indian or Alaska Native"}]},{"url":"http://hl7.org/fhir/us/core/StructureDefinition/us-core-ethnicity","extension":[{"url":"ombCategory","valueCoding":{"system":"urn:oid:2.16.840.1.113883.6.238","code":"2135-2","display":"Hispanic or Latino","userSelected":true}},{"url":"text","valueString":"Hispanic or Latino"}]}],"identifier":[{"type":{"coding":[{"system":"http://terminology.hl7.org/CodeSystem/v2-0203","code":"MR"}]},"system":"https://bonnie-fhir.healthit.gov/","value":"612e6ae802c62a011f2ebb43"}],"active":true,"name":[{"use":"usual","family":"DENEXFail","given":["CMPerfDrgObsGT1HrBFAdmCMODayBFAdm"]}],"gender":"male","birthDate":"1974-01-02"},"request":{"method":"PUT","url":"Patient/9b6d2fc2-6e25-4c0a-b4cb-3ca7f85be9b4"}},{"fullUrl":"https://madie.cms.gov/Encounter/5ca62965b8484628b8de1fcd","resource":{"resourceType":"Encounter","id":"14a59e17-4499-4d7a-93f2-c8dca6a62f1f","meta":{"profile":["http://hl7.org/fhir/us/qicore/StructureDefinition/qicore-encounter"]},"status":"finished","class":{"system":"http://terminology.hl7.org/CodeSystem/v3-ActCode","code":"EMER","display":"emergency"},"type":[{"coding":[{"system":"http://snomed.info/sct","code":"4525004"}]}],"subject":{"reference":"Patient/9b6d2fc2-6e25-4c0a-b4cb-3ca7f85be9b4"},"period":{"start":"2025-10-31T04:00:00+00:00","end":"2025-11-01T05:15:00+00:00"},"length":{"value":1.0,"unit":"days"}},"request":{"method":"PUT","url":"Encounter/14a59e17-4499-4d7a-93f2-c8dca6a62f1f"}},{"fullUrl":"https://madie.cms.gov/Encounter/5ca62965b8484628b8de1fcf","resource":{"resourceType":"Encounter","id":"f954b2b5-457a-44e5-8107-43b7f9aad8ab","meta":{"profile":["http://hl7.org/fhir/us/qicore/StructureDefinition/qicore-encounter"]},"status":"finished","class":{"system":"http://terminology.hl7.org/CodeSystem/v3-ActCode","code":"IMP","display":"inpatient encounter"},"type":[{"coding":[{"system":"http://snomed.info/sct","code":"8715000"}]}],"subject":{"reference":"Patient/9b6d2fc2-6e25-4c0a-b4cb-3ca7f85be9b4"},"period":{"start":"2025-11-01T08:00:00+00:00","end":"2025-11-26T08:15:00+00:00"},"length":{"value":25.0,"unit":"days"}},"request":{"method":"PUT","url":"Encounter/f954b2b5-457a-44e5-8107-43b7f9aad8ab"}},{"fullUrl":"https://madie.cms.gov/Encounter/6033f4fe3d5f550000fb8ba4","resource":{"resourceType":"Encounter","id":"d134b7fe-6594-4736-8f0b-cc61197a070d","meta":{"profile":["http://hl7.org/fhir/us/qicore/StructureDefinition/qicore-encounter"]},"status":"finished","class":{"system":"http://terminology.hl7.org/CodeSystem/v3-ActCode","code":"OBSENC","display":"observation encounter"},"type":[{"coding":[{"system":"http://snomed.info/sct","code":"448951000124107"}]}],"subject":{"reference":"Patient/9b6d2fc2-6e25-4c0a-b4cb-3ca7f85be9b4"},"period":{"start":"2025-11-01T05:20:00+00:00","end":"2025-11-01T06:30:00+00:00"}},"request":{"method":"PUT","url":"Encounter/d134b7fe-6594-4736-8f0b-cc61197a070d"}},{"fullUrl":"https://madie.cms.gov/Procedure/5ca62965b8484628b8de1fd0","resource":{"resourceType":"Procedure","id":"d103f425-aecd-4b2f-814d-75244aea614d","meta":{"profile":["http://hl7.org/fhir/us/qicore/StructureDefinition/qicore-procedure"]},"extension":[{"url":"http://hl7.org/fhir/us/qicore/StructureDefinition/qicore-recorded","valueDateTime":"2012-12-04T09:35:00-04:00"}],"status":"in-progress","code":{"coding":[{"system":"http://snomed.info/sct","code":"133918004"}]},"subject":{"reference":"Patient/9b6d2fc2-6e25-4c0a-b4cb-3ca7f85be9b4"},"performedPeriod":{"start":"2025-10-31T06:00:00+00:00"}},"request":{"method":"PUT","url":"Procedure/d103f425-aecd-4b2f-814d-75244aea614d"}},{"fullUrl":"https://madie.cms.gov/Coverage/5fa041631c76ba66d9959334","resource":{"resourceType":"Coverage","id":"16a760f7-cdc5-4398-b3bf-5322a7e8d935","status":"active","beneficiary":{"reference":"Patient/9b6d2fc2-6e25-4c0a-b4cb-3ca7f85be9b4"},"period":{"start":"1974-01-02T08:00:00+00:00"},"payor":[{"reference":"Organization/4b5a882f-1f43-485c-85c6-f5ad2337d5b1"}]},"request":{"method":"PUT","url":"Coverage/16a760f7-cdc5-4398-b3bf-5322a7e8d935"}},{"fullUrl":"https://madie.cms.gov/Organization/123456","resource":{"resourceType":"Organization","id":"4b5a882f-1f43-485c-85c6-f5ad2337d5b1","meta":{"profile":["http://hl7.org/fhir/us/qicore/StructureDefinition/qicore-organization"]},"identifier":[{"use":"temp","system":"urn:oid:2.16.840.1.113883.4.4","value":"21-3259825"}],"active":true,"type":[{"coding":[{"system":"http://terminology.hl7.org/CodeSystem/organization-type","code":"pay","display":"Payer"}]}],"name":"Blue Cross Blue Shield of Texas","telecom":[{"system":"phone","value":"(+1) 972-766-6900"}],"address":[{"use":"billing","type":"postal","line":["P.O. Box 660044"],"city":"Dallas","state":"TX","postalCode":"75266-0044","country":"USA"}]},"request":{"method":"PUT","url":"Organization/4b5a882f-1f43-485c-85c6-f5ad2337d5b1"}},{"fullUrl":"https://madie.cms.gov/Practitioner/practitioner-123456","resource":{"resourceType":"Practitioner","id":"5b3ed463-4b68-4ab6-af09-8b3c16043864","identifier":[{"system":"http://hl7.org/fhir/sid/us-npi","value":"123456"}],"name":[{"family":"Evil","prefix":["Dr"]}]},"request":{"method":"PUT","url":"Practitioner/5b3ed463-4b68-4ab6-af09-8b3c16043864"}},{"fullUrl":"https://madie.cms.gov/MeasureReport/ede28918-bb98-454a-af8b-a801b90e5c09","resource":{"resourceType":"MeasureReport","id":"ede28918-bb98-454a-af8b-a801b90e5c09","meta":{"profile":["http://hl7.org/fhir/us/cqfmeasures/StructureDefinition/test-case-cqfm"]},"contained":[{"resourceType":"Parameters","id":"0a250f4c-5025-434c-9545-17a0336c4edf-parameters","parameter":[{"name":"subject","valueString":"9b6d2fc2-6e25-4c0a-b4cb-3ca7f85be9b4"}]}],"extension":[{"url":"http://hl7.org/fhir/us/cqfmeasures/StructureDefinition/cqfm-inputParameters","valueReference":{"reference":"#0a250f4c-5025-434c-9545-17a0336c4edf-parameters"}},{"url":"http://hl7.org/fhir/us/cqfmeasures/StructureDefinition/cqfm-testCaseDescription","valueMarkdown":"comfort measures performed in Observation, and Obs > 1hr prior to Adm. This case fails because CMO is 1 day before Adm.\n"}],"modifierExtension":[{"url":"http://hl7.org/fhir/us/cqfmeasures/StructureDefinition/cqfm-isTestCase","valueBoolean":true}],"status":"complete","type":"individual","measure":"https://madie.cms.gov/Measure/VenousThromboembolismProphylaxisFHIR","period":{"start":"2025-01-01","end":"2025-12-31"},"group":[{"population":[{"code":{"coding":[{"system":"http://terminology.hl7.org/CodeSystem/measure-population","code":"initial-population","display":"Initial Population"}]},"count":1},{"code":{"coding":[{"system":"http://terminology.hl7.org/CodeSystem/measure-population","code":"denominator","display":"Denominator"}]},"count":1},{"code":{"coding":[{"system":"http://terminology.hl7.org/CodeSystem/measure-population","code":"denominator-exclusion","display":"Denominator Exclusion"}]},"count":0},{"code":{"coding":[{"system":"http://terminology.hl7.org/CodeSystem/measure-population","code":"numerator","display":"Numerator"}]},"count":0}]}]},"request":{"method":"PUT","url":"MeasureReport/ede28918-bb98-454a-af8b-a801b90e5c09"}}]}