{
  "resourceType": "Bundle",
  "id": "62ec2d01ea03a4ebacd6a083",
  "type": "transaction",
  "entry": [ {
    "fullUrl": "https://madie.cms.gov/Patient/c4e9ae3e-2e4a-461c-87fd-ee2156605b9f",
    "resource": {
      "resourceType": "Patient",
      "id": "c4e9ae3e-2e4a-461c-87fd-ee2156605b9f",
      "meta": {
        "profile": [ "http://hl7.org/fhir/us/qicore/StructureDefinition/qicore-patient" ]
      },
      "extension": [ {
        "url": "http://hl7.org/fhir/us/core/StructureDefinition/us-core-ethnicity",
        "extension": [ {
          "url": "ombCategory",
          "valueCoding": {
            "system": "urn:oid:2.16.840.1.113883.6.238",
            "code": "2135-2",
            "display": "Hispanic or Latino",
            "userSelected": true
          }
        }, {
          "url": "text",
          "valueString": "Hispanic or Latino"
        } ]
      } ],
      "identifier": [ {
        "type": {
          "coding": [ {
            "system": "http://terminology.hl7.org/CodeSystem/v2-0203",
            "code": "MR"
          } ]
        },
        "system": "https://bonnie-fhir.healthit.gov/",
        "value": "62ec2d01ea03a4ebacd6a083"
      } ],
      "name": [ {
        "family": "IPPDenomFail",
        "given": [ "EncOverlapsMP" ]
      } ],
      "gender": "male",
      "birthDate": "2007-01-01"
    },
    "request": {
      "method": "POST",
      "url": "Patient/c4e9ae3e-2e4a-461c-87fd-ee2156605b9f"
    }
  }, {
    "fullUrl": "https://madie.cms.gov/Encounter/encounter-to-document-medications-a080",
    "resource": {
      "resourceType": "Encounter",
      "id": "encounter-to-document-medications-a080",
      "meta": {
        "profile": [ "http://hl7.org/fhir/us/qicore/StructureDefinition/qicore-encounter" ]
      },
      "status": "finished",
      "class": {
        "system": "http://terminology.hl7.org/CodeSystem/v3-ActCode",
        "code": "IMP",
        "display": "inpatient encounter"
      },
      "type": [ {
        "coding": [ {
          "system": "http://snomed.info/sct",
          "version": "2022-03",
          "code": "10197000",
          "display": "Psychiatric interview and evaluation (procedure)",
          "userSelected": true
        } ]
      } ],
      "subject": {
        "reference": "Patient/c4e9ae3e-2e4a-461c-87fd-ee2156605b9f"
      },
      "period": {
        "start": "2024-12-31T11:00:00.000+00:00",
        "end": "2025-01-01T00:15:00.000+00:00"
      }
    },
    "request": {
      "method": "POST",
      "url": "Encounter/encounter-to-document-medications-a080"
    }
  }, {
    "fullUrl": "https://madie.cms.gov/MeasureReport/363be710-05ee-4ba6-a1db-a823c57153fc",
    "resource": {
      "resourceType": "MeasureReport",
      "id": "363be710-05ee-4ba6-a1db-a823c57153fc",
      "meta": {
        "profile": [ "http://hl7.org/fhir/us/cqfmeasures/StructureDefinition/test-case-cqfm" ]
      },
      "contained": [ {
        "resourceType": "Parameters",
        "id": "25aada04-225a-4ce9-b2d0-238e6d46f742-parameters",
        "parameter": [ {
          "name": "subject",
          "valueString": "c4e9ae3e-2e4a-461c-87fd-ee2156605b9f"
        } ]
      } ],
      "extension": [ {
        "url": "http://hl7.org/fhir/us/cqfmeasures/StructureDefinition/cqfm-inputParameters",
        "valueReference": {
          "reference": "#25aada04-225a-4ce9-b2d0-238e6d46f742-parameters"
        }
      }, {
        "url": "http://hl7.org/fhir/us/cqfmeasures/StructureDefinition/cqfm-testCaseDescription",
        "valueMarkdown": "Qualifying encounter (status finished) overlaps MP "
      } ],
      "modifierExtension": [ {
        "url": "http://hl7.org/fhir/us/cqfmeasures/StructureDefinition/cqfm-isTestCase",
        "valueBoolean": true
      } ],
      "status": "complete",
      "type": "individual",
      "measure": "https://madie.cms.gov/Measure/DocumentationofCurrentMedicationsFHIR",
      "period": {
        "start": "2025-01-01",
        "end": "2025-12-31"
      },
      "group": [ {
        "population": [ {
          "code": {
            "coding": [ {
              "system": "http://terminology.hl7.org/CodeSystem/measure-population",
              "code": "initial-population",
              "display": "Initial Population"
            } ]
          },
          "count": 0
        }, {
          "code": {
            "coding": [ {
              "system": "http://terminology.hl7.org/CodeSystem/measure-population",
              "code": "denominator",
              "display": "Denominator"
            } ]
          },
          "count": 0
        }, {
          "code": {
            "coding": [ {
              "system": "http://terminology.hl7.org/CodeSystem/measure-population",
              "code": "numerator",
              "display": "Numerator"
            } ]
          },
          "count": 0
        }, {
          "code": {
            "coding": [ {
              "system": "http://terminology.hl7.org/CodeSystem/measure-population",
              "code": "denominator-exception",
              "display": "Denominator Exception"
            } ]
          },
          "count": 0
        } ]
      } ],
      "evaluatedResource": [ {
        "reference": "https://madie.cms.gov/Patient/c4e9ae3e-2e4a-461c-87fd-ee2156605b9f"
      }, {
        "reference": "https://madie.cms.gov/Encounter/encounter-to-document-medications-a080"
      } ]
    },
    "request": {
      "method": "POST",
      "url": "MeasureReport/363be710-05ee-4ba6-a1db-a823c57153fc"
    }
  } ]
}