{"resourceType":"Bundle","id":"tests-dc0d63ab-8b3a-4f90-ab19-0c4c18d398a8-bundle","type":"transaction","entry":[{"fullUrl":"https://madie.cms.gov/Patient/dc0d63ab-8b3a-4f90-ab19-0c4c18d398a8","resource":{"resourceType":"Patient","id":"dc0d63ab-8b3a-4f90-ab19-0c4c18d398a8","meta":{"profile":["http://hl7.org/fhir/us/qicore/StructureDefinition/qicore-patient"]},"extension":[{"url":"http://hl7.org/fhir/us/core/StructureDefinition/us-core-race","extension":[{"url":"ombCategory","valueCoding":{"system":"urn:oid:2.16.840.1.113883.6.238","code":"2028-9","display":"Asian","userSelected":true}},{"url":"text","valueString":"Asian"}]},{"url":"http://hl7.org/fhir/us/core/StructureDefinition/us-core-ethnicity","extension":[{"url":"ombCategory","valueCoding":{"system":"urn:oid:2.16.840.1.113883.6.238","code":"2135-2","display":"Hispanic or Latino","userSelected":true}},{"url":"text","valueString":"Hispanic or Latino"}]}],"identifier":[{"type":{"coding":[{"system":"http://terminology.hl7.org/CodeSystem/v2-0203","code":"MR"}]},"system":"http://hospital.smarthealthit.org","value":"999999995"}],"name":[{"family":"Bertha","given":["Betty"]}],"gender":"female","birthDate":"2008-12-31"},"request":{"method":"PUT","url":"Patient/dc0d63ab-8b3a-4f90-ab19-0c4c18d398a8"}},{"fullUrl":"https://madie.cms.gov/Encounter/Encounter-30","resource":{"resourceType":"Encounter","id":"105abe4d-5ece-48ef-883e-6fd6ecf76e12","meta":{"profile":["http://hl7.org/fhir/us/qicore/StructureDefinition/qicore-encounter"]},"status":"finished","class":{"system":"http://terminology.hl7.org/CodeSystem/v3-ActCode","code":"AMB","display":"ambulatory"},"type":[{"coding":[{"system":"http://snomed.info/sct","code":"185317003","display":"Telephone encounter (procedure)"}]}],"subject":{"reference":"Patient/dc0d63ab-8b3a-4f90-ab19-0c4c18d398a8"},"period":{"start":"2025-01-01T00:00:00.000Z","end":"2025-01-01T00:15:00.000Z"}},"request":{"method":"PUT","url":"Encounter/105abe4d-5ece-48ef-883e-6fd6ecf76e12"}},{"fullUrl":"https://madie.cms.gov/Condition/Condition-25","resource":{"resourceType":"Condition","id":"669ab9af-e405-4f3b-9f8b-ffd3ce61964d","meta":{"profile":["http://hl7.org/fhir/us/qicore/StructureDefinition/qicore-condition"]},"clinicalStatus":{"coding":[{"system":"http://terminology.hl7.org/CodeSystem/condition-clinical","code":"active"}]},"category":[{"coding":[{"system":"http://terminology.hl7.org/CodeSystem/condition-category","code":"problem-list-item","display":"Problem List Item"}]}],"code":{"coding":[{"system":"http://snomed.info/sct","code":"111880001","display":"Acute human immunodeficiency virus infection (disorder)"}]},"subject":{"reference":"Patient/dc0d63ab-8b3a-4f90-ab19-0c4c18d398a8"},"onsetDateTime":"2025-01-01T00:00:00.000Z"},"request":{"method":"PUT","url":"Condition/669ab9af-e405-4f3b-9f8b-ffd3ce61964d"}},{"fullUrl":"https://madie.cms.gov/Encounter/Encounter-31","resource":{"resourceType":"Encounter","id":"5aa0e50b-9d78-4904-8b28-59667fc16a83","meta":{"profile":["http://hl7.org/fhir/us/qicore/StructureDefinition/qicore-encounter"]},"status":"finished","class":{"system":"http://terminology.hl7.org/CodeSystem/v3-ActCode","code":"AMB","display":"ambulatory"},"type":[{"coding":[{"system":"http://snomed.info/sct","code":"32485007","display":"Hospital admission (procedure)"}]}],"subject":{"reference":"Patient/dc0d63ab-8b3a-4f90-ab19-0c4c18d398a8"},"period":{"start":"2024-12-31T23:59:59.000Z","end":"2025-01-01T01:00:00.000Z"},"hospitalization":{"dischargeDisposition":{"coding":[{"system":"http://snomed.info/sct","code":"428361000124107","display":"Discharge to home for hospice care (procedure)"}]}}},"request":{"method":"PUT","url":"Encounter/5aa0e50b-9d78-4904-8b28-59667fc16a83"}},{"fullUrl":"https://madie.cms.gov/MeasureReport/0bcfa428-3251-4456-ba53-c9e928f12f51","resource":{"resourceType":"MeasureReport","id":"0bcfa428-3251-4456-ba53-c9e928f12f51","meta":{"profile":["http://hl7.org/fhir/us/cqfmeasures/StructureDefinition/test-case-cqfm"]},"contained":[{"resourceType":"Parameters","id":"da9f673b-a680-49a9-9335-26aac708fcc6-parameters","parameter":[{"name":"subject","valueString":"dc0d63ab-8b3a-4f90-ab19-0c4c18d398a8"}]}],"extension":[{"url":"http://hl7.org/fhir/us/cqfmeasures/StructureDefinition/cqfm-inputParameters","valueReference":{"reference":"#da9f673b-a680-49a9-9335-26aac708fcc6-parameters"}},{"url":"http://hl7.org/fhir/us/cqfmeasures/StructureDefinition/cqfm-testCaseDescription","valueMarkdown":"Hospice discharge to home during MP"}],"modifierExtension":[{"url":"http://hl7.org/fhir/us/cqfmeasures/StructureDefinition/cqfm-isTestCase","valueBoolean":true}],"status":"complete","type":"individual","measure":"https://madie.cms.gov/Measure/ChlamydiaScreeninginWomenFHIR","period":{"start":"2025-01-01","end":"2025-12-31"},"group":[{"population":[{"code":{"coding":[{"system":"http://terminology.hl7.org/CodeSystem/measure-population","code":"initial-population","display":"Initial Population"}]},"count":1},{"code":{"coding":[{"system":"http://terminology.hl7.org/CodeSystem/measure-population","code":"denominator","display":"Denominator"}]},"count":1},{"code":{"coding":[{"system":"http://terminology.hl7.org/CodeSystem/measure-population","code":"denominator-exclusion","display":"Denominator Exclusion"}]},"count":1},{"code":{"coding":[{"system":"http://terminology.hl7.org/CodeSystem/measure-population","code":"numerator","display":"Numerator"}]},"count":0}]}]},"request":{"method":"PUT","url":"MeasureReport/0bcfa428-3251-4456-ba53-c9e928f12f51"}}]}