{"resourceType":"Bundle","id":"tests-6b2e313f-6139-45fa-8e18-cc2f0b908981-bundle","type":"transaction","entry":[{"fullUrl":"https://madie.cms.gov/Patient/6b2e313f-6139-45fa-8e18-cc2f0b908981","resource":{"resourceType":"Patient","id":"6b2e313f-6139-45fa-8e18-cc2f0b908981","meta":{"profile":["http://hl7.org/fhir/us/qicore/StructureDefinition/qicore-patient"]},"extension":[{"url":"http://hl7.org/fhir/us/core/StructureDefinition/us-core-race","extension":[{"url":"ombCategory","valueCoding":{"system":"urn:oid:2.16.840.1.113883.6.238","code":"2028-9","display":"Asian","userSelected":true}},{"url":"text","valueString":"Asian"}]},{"url":"http://hl7.org/fhir/us/core/StructureDefinition/us-core-ethnicity","extension":[{"url":"ombCategory","valueCoding":{"system":"urn:oid:2.16.840.1.113883.6.238","code":"2135-2","display":"Hispanic or Latino","userSelected":true}},{"url":"text","valueString":"Hispanic or Latino"}]}],"identifier":[{"type":{"coding":[{"system":"http://terminology.hl7.org/CodeSystem/v2-0203","code":"MR"}]},"system":"http://hospital.smarthealthit.org","value":"999999995"}],"name":[{"family":"Bertha","given":["Betty"]}],"gender":"female","birthDate":"1951-12-31"},"request":{"method":"PUT","url":"Patient/6b2e313f-6139-45fa-8e18-cc2f0b908981"}},{"fullUrl":"https://madie.cms.gov/Encounter/Encounter-2","resource":{"resourceType":"Encounter","id":"656c41d0-43a7-4dde-9ebc-8848a6a202db","meta":{"profile":["http://hl7.org/fhir/us/qicore/StructureDefinition/qicore-encounter"]},"status":"finished","class":{"system":"http://terminology.hl7.org/CodeSystem/v3-ActCode","code":"AMB","display":"ambulatory"},"type":[{"coding":[{"system":"http://snomed.info/sct","code":"698704008","display":"Home visit for rheumatology service (procedure)"}]}],"subject":{"reference":"Patient/6b2e313f-6139-45fa-8e18-cc2f0b908981"},"period":{"start":"2025-12-31T00:00:00.000Z","end":"2025-12-31T23:59:59.000Z"}},"request":{"method":"PUT","url":"Encounter/656c41d0-43a7-4dde-9ebc-8848a6a202db"}},{"fullUrl":"https://madie.cms.gov/MeasureReport/9be3bcec-2871-467f-9a77-fa358e144a52","resource":{"resourceType":"MeasureReport","id":"9be3bcec-2871-467f-9a77-fa358e144a52","meta":{"profile":["http://hl7.org/fhir/us/cqfmeasures/StructureDefinition/test-case-cqfm"]},"contained":[{"resourceType":"Parameters","id":"abc2fafa-d1a1-4c7e-a8ef-bc7f5bda0dec-parameters","parameter":[{"name":"subject","valueString":"6b2e313f-6139-45fa-8e18-cc2f0b908981"}]}],"extension":[{"url":"http://hl7.org/fhir/us/cqfmeasures/StructureDefinition/cqfm-inputParameters","valueReference":{"reference":"#abc2fafa-d1a1-4c7e-a8ef-bc7f5bda0dec-parameters"}},{"url":"http://hl7.org/fhir/us/cqfmeasures/StructureDefinition/cqfm-testCaseDescription","valueMarkdown":"Home healthcare service - for meeting 100% coverage"}],"modifierExtension":[{"url":"http://hl7.org/fhir/us/cqfmeasures/StructureDefinition/cqfm-isTestCase","valueBoolean":true}],"status":"complete","type":"individual","measure":"https://madie.cms.gov/Measure/BreastCancerScreeningFHIR","period":{"start":"2025-01-01","end":"2025-12-31"},"group":[{"population":[{"code":{"coding":[{"system":"http://terminology.hl7.org/CodeSystem/measure-population","code":"initial-population","display":"Initial Population"}]},"count":1},{"code":{"coding":[{"system":"http://terminology.hl7.org/CodeSystem/measure-population","code":"denominator","display":"Denominator"}]},"count":1},{"code":{"coding":[{"system":"http://terminology.hl7.org/CodeSystem/measure-population","code":"denominator-exclusion","display":"Denominator Exclusion"}]},"count":0},{"code":{"coding":[{"system":"http://terminology.hl7.org/CodeSystem/measure-population","code":"numerator","display":"Numerator"}]},"count":0}]}]},"request":{"method":"PUT","url":"MeasureReport/9be3bcec-2871-467f-9a77-fa358e144a52"}}]}