{"resourceType":"Bundle","id":"tests-8f459050-c870-4719-9952-80baa25d1fa1-bundle","type":"transaction","entry":[{"fullUrl":"https://madie.cms.gov/Patient/8f459050-c870-4719-9952-80baa25d1fa1","resource":{"resourceType":"Patient","id":"8f459050-c870-4719-9952-80baa25d1fa1","meta":{"profile":["http://hl7.org/fhir/us/qicore/StructureDefinition/qicore-patient"]},"extension":[{"url":"http://hl7.org/fhir/us/core/StructureDefinition/us-core-race","extension":[{"url":"ombCategory","valueCoding":{"system":"urn:oid:2.16.840.1.113883.6.238","code":"2028-9","display":"Asian"}},{"url":"text","valueString":"Asian"}]},{"url":"http://hl7.org/fhir/us/core/StructureDefinition/us-core-ethnicity","extension":[{"url":"ombCategory","valueCoding":{"system":"urn:oid:2.16.840.1.113883.6.238","code":"2135-2","display":"Hispanic or Latino"}},{"url":"text","valueString":"Hispanic or Latino"}]}],"identifier":[{"system":"http://hospital.smarthealthit.org","value":"999999995"}],"name":[{"family":"Bertha","given":["Betty"]}],"gender":"female","birthDate":"1973-12-31"},"request":{"method":"PUT","url":"Patient/8f459050-c870-4719-9952-80baa25d1fa1"}},{"fullUrl":"https://madie.cms.gov/Encounter/Encounter-5","resource":{"resourceType":"Encounter","id":"278470b1-b7e3-47f0-a324-0cbbee796653","meta":{"profile":["http://hl7.org/fhir/us/qicore/StructureDefinition/qicore-encounter"]},"status":"finished","class":{"system":"http://terminology.hl7.org/CodeSystem/v3-ActCode","code":"AMB","display":"ambulatory"},"type":[{"coding":[{"system":"http://snomed.info/sct","code":"185463005","display":"Visit out of hours (procedure)"}]}],"subject":{"reference":"Patient/8f459050-c870-4719-9952-80baa25d1fa1"},"period":{"start":"2024-12-31T23:59:59.000Z","end":"2024-12-31T23:59:59.000Z"}},"request":{"method":"PUT","url":"Encounter/278470b1-b7e3-47f0-a324-0cbbee796653"}},{"fullUrl":"https://madie.cms.gov/MeasureReport/62e8e67c-eafb-41b4-a10c-7a736dad12ed","resource":{"resourceType":"MeasureReport","id":"62e8e67c-eafb-41b4-a10c-7a736dad12ed","meta":{"profile":["http://hl7.org/fhir/us/cqfmeasures/StructureDefinition/test-case-cqfm"]},"contained":[{"resourceType":"Parameters","id":"6e5a80f1-e69c-488b-b97c-8e8b9f715fff-parameters","parameter":[{"name":"subject","valueString":"8f459050-c870-4719-9952-80baa25d1fa1"}]}],"extension":[{"url":"http://hl7.org/fhir/us/cqfmeasures/StructureDefinition/cqfm-inputParameters","valueReference":{"reference":"#6e5a80f1-e69c-488b-b97c-8e8b9f715fff-parameters"}},{"url":"http://hl7.org/fhir/us/cqfmeasures/StructureDefinition/cqfm-testCaseDescription","valueMarkdown":"Patient 52yo w/ an Office Visit Encounter 12/31 during the year before the MP."}],"modifierExtension":[{"url":"http://hl7.org/fhir/us/cqfmeasures/StructureDefinition/cqfm-isTestCase","valueBoolean":true}],"status":"complete","type":"individual","measure":"https://madie.cms.gov/Measure/BreastCancerScreeningFHIR","period":{"start":"2025-01-01","end":"2025-12-31"},"group":[{"population":[{"code":{"coding":[{"system":"http://terminology.hl7.org/CodeSystem/measure-population","code":"initial-population","display":"Initial Population"}]},"count":0},{"code":{"coding":[{"system":"http://terminology.hl7.org/CodeSystem/measure-population","code":"denominator","display":"Denominator"}]},"count":0},{"code":{"coding":[{"system":"http://terminology.hl7.org/CodeSystem/measure-population","code":"denominator-exclusion","display":"Denominator Exclusion"}]},"count":0},{"code":{"coding":[{"system":"http://terminology.hl7.org/CodeSystem/measure-population","code":"numerator","display":"Numerator"}]},"count":0}]}]},"request":{"method":"PUT","url":"MeasureReport/62e8e67c-eafb-41b4-a10c-7a736dad12ed"}}]}