{"resourceType":"Bundle","id":"tests-4fa225f9-836c-4304-95a2-5b9d6d4ff9c7-bundle","type":"transaction","entry":[{"fullUrl":"https://madie.cms.gov/Patient/4fa225f9-836c-4304-95a2-5b9d6d4ff9c7","resource":{"resourceType":"Patient","id":"4fa225f9-836c-4304-95a2-5b9d6d4ff9c7","meta":{"profile":["http://hl7.org/fhir/us/qicore/StructureDefinition/qicore-patient"]},"extension":[{"url":"http://hl7.org/fhir/us/core/StructureDefinition/us-core-race","extension":[{"url":"ombCategory","valueCoding":{"system":"urn:oid:2.16.840.1.113883.6.238","code":"2028-9","display":"Asian"}},{"url":"text","valueString":"Asian"}]},{"url":"http://hl7.org/fhir/us/core/StructureDefinition/us-core-ethnicity","extension":[{"url":"ombCategory","valueCoding":{"system":"urn:oid:2.16.840.1.113883.6.238","code":"2135-2","display":"Hispanic or Latino"}},{"url":"text","valueString":"Hispanic or Latino"}]}],"identifier":[{"system":"http://hospital.smarthealthit.org","value":"999999995"}],"name":[{"family":"Bertha","given":["Betty"]}],"gender":"female","birthDate":"1973-12-31"},"request":{"method":"PUT","url":"Patient/4fa225f9-836c-4304-95a2-5b9d6d4ff9c7"}},{"fullUrl":"https://madie.cms.gov/Encounter/Encounter-17","resource":{"resourceType":"Encounter","id":"41635b70-2728-47c6-8ac6-dd3b902de2f4","meta":{"profile":["http://hl7.org/fhir/us/qicore/StructureDefinition/qicore-encounter"]},"status":"finished","class":{"system":"http://terminology.hl7.org/CodeSystem/v3-ActCode","code":"AMB","display":"ambulatory"},"type":[{"coding":[{"system":"http://snomed.info/sct","code":"185463005","display":"Visit out of hours (procedure)"}]}],"subject":{"reference":"Patient/4fa225f9-836c-4304-95a2-5b9d6d4ff9c7"},"period":{"start":"2025-01-01T00:00:00.000Z","end":"2025-01-01T00:00:00.000Z"}},"request":{"method":"PUT","url":"Encounter/41635b70-2728-47c6-8ac6-dd3b902de2f4"}},{"fullUrl":"https://madie.cms.gov/Condition/Condition-17","resource":{"resourceType":"Condition","id":"f3287fc5-0cbe-4aca-969d-cf83dd5109ad","meta":{"profile":["http://hl7.org/fhir/us/qicore/StructureDefinition/qicore-condition"]},"clinicalStatus":{"coding":[{"system":"http://terminology.hl7.org/CodeSystem/condition-clinical","code":"active"}]},"category":[{"coding":[{"system":"http://terminology.hl7.org/CodeSystem/condition-category","code":"problem-list-item","display":"Problem List Item"}]}],"code":{"coding":[{"system":"http://snomed.info/sct","code":"136071000119101","display":"History of bilateral prophylactic mastectomy (situation)"}]},"subject":{"reference":"Patient/4fa225f9-836c-4304-95a2-5b9d6d4ff9c7"},"onsetDateTime":"2025-12-31T23:59:59.000Z"},"request":{"method":"PUT","url":"Condition/f3287fc5-0cbe-4aca-969d-cf83dd5109ad"}},{"fullUrl":"https://madie.cms.gov/MeasureReport/ad7b3ed0-5570-4a4a-83b3-a1ef56b29ea1","resource":{"resourceType":"MeasureReport","id":"ad7b3ed0-5570-4a4a-83b3-a1ef56b29ea1","meta":{"profile":["http://hl7.org/fhir/us/cqfmeasures/StructureDefinition/test-case-cqfm"]},"contained":[{"resourceType":"Parameters","id":"58dbb72e-cf62-4f12-9cd0-cb6f51a7c715-parameters","parameter":[{"name":"subject","valueString":"4fa225f9-836c-4304-95a2-5b9d6d4ff9c7"}]}],"extension":[{"url":"http://hl7.org/fhir/us/cqfmeasures/StructureDefinition/cqfm-inputParameters","valueReference":{"reference":"#58dbb72e-cf62-4f12-9cd0-cb6f51a7c715-parameters"}},{"url":"http://hl7.org/fhir/us/cqfmeasures/StructureDefinition/cqfm-testCaseDescription","valueMarkdown":"Patient 52yo w/ an Office Visit  Encounter 1/1 of the MP & Bilateral Mastectomy Dx that starts on 12/31 of the MP."}],"modifierExtension":[{"url":"http://hl7.org/fhir/us/cqfmeasures/StructureDefinition/cqfm-isTestCase","valueBoolean":true}],"status":"complete","type":"individual","measure":"https://madie.cms.gov/Measure/BreastCancerScreeningFHIR","period":{"start":"2025-01-01","end":"2025-12-31"},"group":[{"population":[{"code":{"coding":[{"system":"http://terminology.hl7.org/CodeSystem/measure-population","code":"initial-population","display":"Initial Population"}]},"count":1},{"code":{"coding":[{"system":"http://terminology.hl7.org/CodeSystem/measure-population","code":"denominator","display":"Denominator"}]},"count":1},{"code":{"coding":[{"system":"http://terminology.hl7.org/CodeSystem/measure-population","code":"denominator-exclusion","display":"Denominator Exclusion"}]},"count":1},{"code":{"coding":[{"system":"http://terminology.hl7.org/CodeSystem/measure-population","code":"numerator","display":"Numerator"}]},"count":0}]}]},"request":{"method":"PUT","url":"MeasureReport/ad7b3ed0-5570-4a4a-83b3-a1ef56b29ea1"}}]}