{"resourceType":"Bundle","id":"tests-f7574a1c-122e-45ef-9ab5-cfa35a40d6d6-bundle","type":"transaction","entry":[{"fullUrl":"https://madie.cms.gov/Patient/f7574a1c-122e-45ef-9ab5-cfa35a40d6d6","resource":{"resourceType":"Patient","id":"f7574a1c-122e-45ef-9ab5-cfa35a40d6d6","meta":{"profile":["http://hl7.org/fhir/us/qicore/StructureDefinition/qicore-patient"]},"extension":[{"url":"http://hl7.org/fhir/us/core/StructureDefinition/us-core-race","extension":[{"url":"ombCategory","valueCoding":{"system":"urn:oid:2.16.840.1.113883.6.238","code":"2028-9","display":"Asian"}},{"url":"text","valueString":"Asian"}]},{"url":"http://hl7.org/fhir/us/core/StructureDefinition/us-core-ethnicity","extension":[{"url":"ombCategory","valueCoding":{"system":"urn:oid:2.16.840.1.113883.6.238","code":"2135-2","display":"Hispanic or Latino"}},{"url":"text","valueString":"Hispanic or Latino"}]}],"identifier":[{"system":"http://hospital.smarthealthit.org","value":"999999995"}],"name":[{"family":"Bertha","given":["Betty"]}],"gender":"female","birthDate":"1973-12-31"},"request":{"method":"PUT","url":"Patient/f7574a1c-122e-45ef-9ab5-cfa35a40d6d6"}},{"fullUrl":"https://madie.cms.gov/Encounter/Encounter-43","resource":{"resourceType":"Encounter","id":"5d27c505-dd43-4662-87eb-178ab9a94a2a","meta":{"profile":["http://hl7.org/fhir/us/qicore/StructureDefinition/qicore-encounter"]},"status":"finished","class":{"system":"http://terminology.hl7.org/CodeSystem/v3-ActCode","code":"AMB","display":"ambulatory"},"type":[{"coding":[{"system":"http://snomed.info/sct","code":"185463005","display":"Visit out of hours (procedure)"}]}],"subject":{"reference":"Patient/f7574a1c-122e-45ef-9ab5-cfa35a40d6d6"},"period":{"start":"2025-01-01T00:00:00.000Z","end":"2025-01-01T00:00:00.000Z"}},"request":{"method":"PUT","url":"Encounter/5d27c505-dd43-4662-87eb-178ab9a94a2a"}},{"fullUrl":"https://madie.cms.gov/Observation/Observation-43","resource":{"resourceType":"Observation","id":"03867ca1-70d7-4465-b353-b77492202452","meta":{"profile":["http://hl7.org/fhir/us/qicore/StructureDefinition/qicore-observation"]},"status":"final","category":[{"coding":[{"system":"http://terminology.hl7.org/CodeSystem/observation-category","code":"survey"}]}],"code":{"coding":[{"system":"http://loinc.org","code":"24604-1","display":"MG Breast Diagnostic Limited Views"}]},"subject":{"reference":"Patient/f7574a1c-122e-45ef-9ab5-cfa35a40d6d6"},"effectivePeriod":{"start":"2023-09-30T00:00:00.000Z","end":"2023-09-30T00:00:00.000Z"}},"request":{"method":"PUT","url":"Observation/03867ca1-70d7-4465-b353-b77492202452"}},{"fullUrl":"https://madie.cms.gov/MeasureReport/e4a69a6f-cae8-4892-9edd-0b4de8839b56","resource":{"resourceType":"MeasureReport","id":"e4a69a6f-cae8-4892-9edd-0b4de8839b56","meta":{"profile":["http://hl7.org/fhir/us/cqfmeasures/StructureDefinition/test-case-cqfm"]},"contained":[{"resourceType":"Parameters","id":"3e656470-9d6d-49a1-8e8a-c1203ec0c769-parameters","parameter":[{"name":"subject","valueString":"f7574a1c-122e-45ef-9ab5-cfa35a40d6d6"}]}],"extension":[{"url":"http://hl7.org/fhir/us/cqfmeasures/StructureDefinition/cqfm-inputParameters","valueReference":{"reference":"#3e656470-9d6d-49a1-8e8a-c1203ec0c769-parameters"}},{"url":"http://hl7.org/fhir/us/cqfmeasures/StructureDefinition/cqfm-testCaseDescription","valueMarkdown":"Patient 52yo w/ an Office Visit Encounter 1/1 during the MP and Mammogram Observation 9/30 before observation interval."}],"modifierExtension":[{"url":"http://hl7.org/fhir/us/cqfmeasures/StructureDefinition/cqfm-isTestCase","valueBoolean":true}],"status":"complete","type":"individual","measure":"https://madie.cms.gov/Measure/BreastCancerScreeningFHIR","period":{"start":"2025-01-01","end":"2025-12-31"},"group":[{"population":[{"code":{"coding":[{"system":"http://terminology.hl7.org/CodeSystem/measure-population","code":"initial-population","display":"Initial Population"}]},"count":1},{"code":{"coding":[{"system":"http://terminology.hl7.org/CodeSystem/measure-population","code":"denominator","display":"Denominator"}]},"count":1},{"code":{"coding":[{"system":"http://terminology.hl7.org/CodeSystem/measure-population","code":"denominator-exclusion","display":"Denominator Exclusion"}]},"count":0},{"code":{"coding":[{"system":"http://terminology.hl7.org/CodeSystem/measure-population","code":"numerator","display":"Numerator"}]},"count":0}]}]},"request":{"method":"PUT","url":"MeasureReport/e4a69a6f-cae8-4892-9edd-0b4de8839b56"}}]}