{"resourceType":"Bundle","id":"tests-81dce125-8691-4625-ac6b-07fce0a45680-bundle","type":"transaction","entry":[{"fullUrl":"https://madie.cms.gov/Patient/81dce125-8691-4625-ac6b-07fce0a45680","resource":{"resourceType":"Patient","id":"81dce125-8691-4625-ac6b-07fce0a45680","meta":{"profile":["http://hl7.org/fhir/us/qicore/StructureDefinition/qicore-patient"]},"extension":[{"url":"http://hl7.org/fhir/us/core/StructureDefinition/us-core-race","extension":[{"url":"ombCategory","valueCoding":{"system":"urn:oid:2.16.840.1.113883.6.238","code":"2028-9","display":"Asian"}},{"url":"text","valueString":"Asian"}]},{"url":"http://hl7.org/fhir/us/core/StructureDefinition/us-core-ethnicity","extension":[{"url":"ombCategory","valueCoding":{"system":"urn:oid:2.16.840.1.113883.6.238","code":"2135-2","display":"Hispanic or Latino"}},{"url":"text","valueString":"Hispanic or Latino"}]}],"identifier":[{"system":"http://hospital.smarthealthit.org","value":"999999995"}],"name":[{"family":"Bertha","given":["Betty"]}],"gender":"female","birthDate":"1973-12-31"},"request":{"method":"PUT","url":"Patient/81dce125-8691-4625-ac6b-07fce0a45680"}},{"fullUrl":"https://madie.cms.gov/Encounter/Encounter-42","resource":{"resourceType":"Encounter","id":"470fff2f-e942-4586-9b0c-5a4eab46893c","meta":{"profile":["http://hl7.org/fhir/us/qicore/StructureDefinition/qicore-encounter"]},"status":"finished","class":{"system":"http://terminology.hl7.org/CodeSystem/v3-ActCode","code":"AMB","display":"ambulatory"},"type":[{"coding":[{"system":"http://snomed.info/sct","code":"185463005","display":"Visit out of hours (procedure)"}]}],"subject":{"reference":"Patient/81dce125-8691-4625-ac6b-07fce0a45680"},"period":{"start":"2025-01-01T00:00:00.000Z","end":"2025-01-01T00:00:00.000Z"}},"request":{"method":"PUT","url":"Encounter/470fff2f-e942-4586-9b0c-5a4eab46893c"}},{"fullUrl":"https://madie.cms.gov/Observation/Observation-42","resource":{"resourceType":"Observation","id":"4c50d8bf-12cc-45ef-afa2-6905f4bc8736","meta":{"profile":["http://hl7.org/fhir/us/qicore/StructureDefinition/qicore-observation"]},"status":"final","category":[{"coding":[{"system":"http://terminology.hl7.org/CodeSystem/observation-category","code":"survey"}]}],"code":{"coding":[{"system":"http://loinc.org","code":"24604-1","display":"MG Breast Diagnostic Limited Views"}]},"subject":{"reference":"Patient/81dce125-8691-4625-ac6b-07fce0a45680"},"effectivePeriod":{"start":"2025-12-31T23:59:59.000Z","end":"2025-12-31T23:59:59.000Z"}},"request":{"method":"PUT","url":"Observation/4c50d8bf-12cc-45ef-afa2-6905f4bc8736"}},{"fullUrl":"https://madie.cms.gov/MeasureReport/fdba56fd-dc7c-4d5c-a73a-c2c9288acd7e","resource":{"resourceType":"MeasureReport","id":"fdba56fd-dc7c-4d5c-a73a-c2c9288acd7e","meta":{"profile":["http://hl7.org/fhir/us/cqfmeasures/StructureDefinition/test-case-cqfm"]},"contained":[{"resourceType":"Parameters","id":"7c761cb2-03f2-4379-9548-20c7aaf1cfab-parameters","parameter":[{"name":"subject","valueString":"81dce125-8691-4625-ac6b-07fce0a45680"}]}],"extension":[{"url":"http://hl7.org/fhir/us/cqfmeasures/StructureDefinition/cqfm-inputParameters","valueReference":{"reference":"#7c761cb2-03f2-4379-9548-20c7aaf1cfab-parameters"}},{"url":"http://hl7.org/fhir/us/cqfmeasures/StructureDefinition/cqfm-testCaseDescription","valueMarkdown":"Patient 52yo w/ an Office Visit Encounter 1/1 during the MP."}],"modifierExtension":[{"url":"http://hl7.org/fhir/us/cqfmeasures/StructureDefinition/cqfm-isTestCase","valueBoolean":true}],"status":"complete","type":"individual","measure":"https://madie.cms.gov/Measure/BreastCancerScreeningFHIR","period":{"start":"2025-01-01","end":"2025-12-31"},"group":[{"population":[{"code":{"coding":[{"system":"http://terminology.hl7.org/CodeSystem/measure-population","code":"initial-population","display":"Initial Population"}]},"count":1},{"code":{"coding":[{"system":"http://terminology.hl7.org/CodeSystem/measure-population","code":"denominator","display":"Denominator"}]},"count":1},{"code":{"coding":[{"system":"http://terminology.hl7.org/CodeSystem/measure-population","code":"denominator-exclusion","display":"Denominator Exclusion"}]},"count":0},{"code":{"coding":[{"system":"http://terminology.hl7.org/CodeSystem/measure-population","code":"numerator","display":"Numerator"}]},"count":1}]}]},"request":{"method":"PUT","url":"MeasureReport/fdba56fd-dc7c-4d5c-a73a-c2c9288acd7e"}}]}