{"resourceType":"Bundle","id":"tests-633c26f2-9c7a-4eaf-b983-83b9e13656ac-bundle","type":"transaction","entry":[{"fullUrl":"https://madie.cms.gov/Patient/633c26f2-9c7a-4eaf-b983-83b9e13656ac","resource":{"resourceType":"Patient","id":"633c26f2-9c7a-4eaf-b983-83b9e13656ac","meta":{"profile":["http://hl7.org/fhir/us/qicore/StructureDefinition/qicore-patient"]},"extension":[{"url":"http://hl7.org/fhir/us/core/StructureDefinition/us-core-race","extension":[{"url":"ombCategory","valueCoding":{"system":"urn:oid:2.16.840.1.113883.6.238","code":"2028-9","display":"Asian"}},{"url":"text","valueString":"Asian"}]},{"url":"http://hl7.org/fhir/us/core/StructureDefinition/us-core-ethnicity","extension":[{"url":"ombCategory","valueCoding":{"system":"urn:oid:2.16.840.1.113883.6.238","code":"2135-2","display":"Hispanic or Latino"}},{"url":"text","valueString":"Hispanic or Latino"}]}],"identifier":[{"system":"http://hospital.smarthealthit.org","value":"999999995"}],"name":[{"family":"Bertha","given":["Betty"]}],"gender":"female","birthDate":"1973-12-31"},"request":{"method":"PUT","url":"Patient/633c26f2-9c7a-4eaf-b983-83b9e13656ac"}},{"fullUrl":"https://madie.cms.gov/Encounter/Encounter-28","resource":{"resourceType":"Encounter","id":"91400a37-b8f8-4502-861b-c4c5ea649b55","meta":{"profile":["http://hl7.org/fhir/us/qicore/StructureDefinition/qicore-encounter"]},"status":"finished","class":{"system":"http://terminology.hl7.org/CodeSystem/v3-ActCode","code":"AMB","display":"ambulatory"},"type":[{"coding":[{"system":"http://snomed.info/sct","code":"185463005","display":"Visit out of hours (procedure)"}]}],"subject":{"reference":"Patient/633c26f2-9c7a-4eaf-b983-83b9e13656ac"},"period":{"start":"2025-01-01T00:00:00.000Z","end":"2025-01-01T00:00:00.000Z"}},"request":{"method":"PUT","url":"Encounter/91400a37-b8f8-4502-861b-c4c5ea649b55"}},{"fullUrl":"https://madie.cms.gov/Procedure/Procedure-28","resource":{"resourceType":"Procedure","id":"71fb09c0-31a3-408f-bfcb-82ccb15e72b4","meta":{"profile":["http://hl7.org/fhir/us/qicore/StructureDefinition/qicore-procedure"]},"extension":[{"url":"http://hl7.org/fhir/us/qicore/StructureDefinition/qicore-recorded","valueDateTime":"2026-01-01T00:00:00.000Z"}],"status":"completed","code":{"coding":[{"system":"http://www.cms.gov/Medicare/Coding/ICD10","code":"0HTT0ZZ","display":"Resection of Right Breast, Open Approach"}]},"subject":{"reference":"Patient/633c26f2-9c7a-4eaf-b983-83b9e13656ac"},"performedPeriod":{"start":"2026-01-01T00:00:00.000Z","end":"2026-01-01T00:00:00.000Z"}},"request":{"method":"PUT","url":"Procedure/71fb09c0-31a3-408f-bfcb-82ccb15e72b4"}},{"fullUrl":"https://madie.cms.gov/Procedure/Procedure-28.1","resource":{"resourceType":"Procedure","id":"eb9e1ee7-aea4-45d9-b096-3f92e0567ae5","meta":{"profile":["http://hl7.org/fhir/us/qicore/StructureDefinition/qicore-procedure"]},"extension":[{"url":"http://hl7.org/fhir/us/qicore/StructureDefinition/qicore-recorded","valueDateTime":"2026-01-01T00:00:00.000Z"}],"status":"completed","code":{"coding":[{"system":"http://www.cms.gov/Medicare/Coding/ICD10","code":"0HTU0ZZ","display":"Resection of Left Breast, Open Approach"}]},"subject":{"reference":"Patient/633c26f2-9c7a-4eaf-b983-83b9e13656ac"},"performedPeriod":{"start":"2025-01-01T00:00:00.000Z","end":"2025-01-01T00:00:00.000Z"}},"request":{"method":"PUT","url":"Procedure/eb9e1ee7-aea4-45d9-b096-3f92e0567ae5"}},{"fullUrl":"https://madie.cms.gov/MeasureReport/ea617d3f-1e94-4e1f-9de1-3395368975c6","resource":{"resourceType":"MeasureReport","id":"ea617d3f-1e94-4e1f-9de1-3395368975c6","meta":{"profile":["http://hl7.org/fhir/us/cqfmeasures/StructureDefinition/test-case-cqfm"]},"contained":[{"resourceType":"Parameters","id":"f56f6a64-41cb-4d51-a16c-8830ec4669b3-parameters","parameter":[{"name":"subject","valueString":"633c26f2-9c7a-4eaf-b983-83b9e13656ac"}]}],"extension":[{"url":"http://hl7.org/fhir/us/cqfmeasures/StructureDefinition/cqfm-inputParameters","valueReference":{"reference":"#f56f6a64-41cb-4d51-a16c-8830ec4669b3-parameters"}},{"url":"http://hl7.org/fhir/us/cqfmeasures/StructureDefinition/cqfm-testCaseDescription","valueMarkdown":"Patient 52yo w/ an Office Visit  Encounter 1/1 of the MP & a Unilateral Mastectomy on Right Breast Procedure that ends on 1/1 after the MP."}],"modifierExtension":[{"url":"http://hl7.org/fhir/us/cqfmeasures/StructureDefinition/cqfm-isTestCase","valueBoolean":true}],"status":"complete","type":"individual","measure":"https://madie.cms.gov/Measure/BreastCancerScreeningFHIR","period":{"start":"2025-01-01","end":"2025-12-31"},"group":[{"population":[{"code":{"coding":[{"system":"http://terminology.hl7.org/CodeSystem/measure-population","code":"initial-population","display":"Initial Population"}]},"count":1},{"code":{"coding":[{"system":"http://terminology.hl7.org/CodeSystem/measure-population","code":"denominator","display":"Denominator"}]},"count":1},{"code":{"coding":[{"system":"http://terminology.hl7.org/CodeSystem/measure-population","code":"denominator-exclusion","display":"Denominator Exclusion"}]},"count":0},{"code":{"coding":[{"system":"http://terminology.hl7.org/CodeSystem/measure-population","code":"numerator","display":"Numerator"}]},"count":0}]}]},"request":{"method":"PUT","url":"MeasureReport/ea617d3f-1e94-4e1f-9de1-3395368975c6"}}]}