{"resourceType":"Bundle","id":"tests-68067d39-5287-40dd-ba97-c2aa1bf46d78-bundle","type":"transaction","entry":[{"fullUrl":"https://madie.cms.gov/Patient/68067d39-5287-40dd-ba97-c2aa1bf46d78","resource":{"resourceType":"Patient","id":"68067d39-5287-40dd-ba97-c2aa1bf46d78","meta":{"profile":["http://hl7.org/fhir/us/qicore/StructureDefinition/qicore-patient"]},"extension":[{"url":"http://hl7.org/fhir/us/core/StructureDefinition/us-core-race","extension":[{"url":"ombCategory","valueCoding":{"system":"urn:oid:2.16.840.1.113883.6.238","code":"2028-9","display":"Asian"}},{"url":"text","valueString":"Asian"}]},{"url":"http://hl7.org/fhir/us/core/StructureDefinition/us-core-ethnicity","extension":[{"url":"ombCategory","valueCoding":{"system":"urn:oid:2.16.840.1.113883.6.238","code":"2135-2","display":"Hispanic or Latino"}},{"url":"text","valueString":"Hispanic or Latino"}]}],"identifier":[{"system":"http://hospital.smarthealthit.org","value":"999999995"}],"name":[{"family":"Bertha","given":["Betty"]}],"gender":"female","birthDate":"1973-12-31"},"request":{"method":"PUT","url":"Patient/68067d39-5287-40dd-ba97-c2aa1bf46d78"}},{"fullUrl":"https://madie.cms.gov/Encounter/Encounter-27","resource":{"resourceType":"Encounter","id":"ab768e90-1451-4d84-8e13-9fc9e451137e","meta":{"profile":["http://hl7.org/fhir/us/qicore/StructureDefinition/qicore-encounter"]},"status":"finished","class":{"system":"http://terminology.hl7.org/CodeSystem/v3-ActCode","code":"AMB","display":"ambulatory"},"type":[{"coding":[{"system":"http://snomed.info/sct","code":"185463005","display":"Visit out of hours (procedure)"}]}],"subject":{"reference":"Patient/68067d39-5287-40dd-ba97-c2aa1bf46d78"},"period":{"start":"2025-01-01T00:00:00.000Z","end":"2025-01-01T00:00:00.000Z"}},"request":{"method":"PUT","url":"Encounter/ab768e90-1451-4d84-8e13-9fc9e451137e"}},{"fullUrl":"https://madie.cms.gov/Condition/Condition-27","resource":{"resourceType":"Condition","id":"d5f0c375-488c-4c34-816f-a4f2bd116e41","meta":{"profile":["http://hl7.org/fhir/us/qicore/StructureDefinition/qicore-condition"]},"clinicalStatus":{"coding":[{"system":"http://terminology.hl7.org/CodeSystem/condition-clinical","code":"active"}]},"category":[{"coding":[{"system":"http://terminology.hl7.org/CodeSystem/condition-category","code":"problem-list-item","display":"Problem List Item"}]}],"code":{"coding":[{"system":"http://snomed.info/sct","code":"248802009","display":"Absence of breast (finding)"}]},"bodySite":[{"coding":[{"system":"http://snomed.info/sct","code":"24028007","display":"Right (qualifier value)"}]}],"subject":{"reference":"Patient/68067d39-5287-40dd-ba97-c2aa1bf46d78"},"onsetDateTime":"2026-01-01T00:00:00.000Z"},"request":{"method":"PUT","url":"Condition/d5f0c375-488c-4c34-816f-a4f2bd116e41"}},{"fullUrl":"https://madie.cms.gov/Condition/Condition-27.1","resource":{"resourceType":"Condition","id":"c473f1dd-8012-4e74-828f-28c6d9b3e315","meta":{"profile":["http://hl7.org/fhir/us/qicore/StructureDefinition/qicore-condition"]},"clinicalStatus":{"coding":[{"system":"http://terminology.hl7.org/CodeSystem/condition-clinical","code":"active"}]},"category":[{"coding":[{"system":"http://terminology.hl7.org/CodeSystem/condition-category","code":"problem-list-item","display":"Problem List Item"}]}],"code":{"coding":[{"system":"http://snomed.info/sct","code":"248802009","display":"Absence of breast (finding)"}]},"bodySite":[{"coding":[{"system":"http://snomed.info/sct","code":"7771000","display":"Left (qualifier value)"}]}],"subject":{"reference":"Patient/68067d39-5287-40dd-ba97-c2aa1bf46d78"},"onsetDateTime":"2025-01-01T00:00:00.000Z"},"request":{"method":"PUT","url":"Condition/c473f1dd-8012-4e74-828f-28c6d9b3e315"}},{"fullUrl":"https://madie.cms.gov/MeasureReport/a0b91e34-5c4b-4334-b1e4-f30ce9a85d60","resource":{"resourceType":"MeasureReport","id":"a0b91e34-5c4b-4334-b1e4-f30ce9a85d60","meta":{"profile":["http://hl7.org/fhir/us/cqfmeasures/StructureDefinition/test-case-cqfm"]},"contained":[{"resourceType":"Parameters","id":"d295a741-6067-45ab-9953-ccab0794fd72-parameters","parameter":[{"name":"subject","valueString":"68067d39-5287-40dd-ba97-c2aa1bf46d78"}]}],"extension":[{"url":"http://hl7.org/fhir/us/cqfmeasures/StructureDefinition/cqfm-inputParameters","valueReference":{"reference":"#d295a741-6067-45ab-9953-ccab0794fd72-parameters"}},{"url":"http://hl7.org/fhir/us/cqfmeasures/StructureDefinition/cqfm-testCaseDescription","valueMarkdown":"Patient 52yo w/ an Office Visit  Encounter 1/1 of the MP & a Unilateral Mastectomy Dx with R. Qualifier that starts on 1/1 after the MP."}],"modifierExtension":[{"url":"http://hl7.org/fhir/us/cqfmeasures/StructureDefinition/cqfm-isTestCase","valueBoolean":true}],"status":"complete","type":"individual","measure":"https://madie.cms.gov/Measure/BreastCancerScreeningFHIR","period":{"start":"2025-01-01","end":"2025-12-31"},"group":[{"population":[{"code":{"coding":[{"system":"http://terminology.hl7.org/CodeSystem/measure-population","code":"initial-population","display":"Initial Population"}]},"count":1},{"code":{"coding":[{"system":"http://terminology.hl7.org/CodeSystem/measure-population","code":"denominator","display":"Denominator"}]},"count":1},{"code":{"coding":[{"system":"http://terminology.hl7.org/CodeSystem/measure-population","code":"denominator-exclusion","display":"Denominator Exclusion"}]},"count":0},{"code":{"coding":[{"system":"http://terminology.hl7.org/CodeSystem/measure-population","code":"numerator","display":"Numerator"}]},"count":0}]}]},"request":{"method":"PUT","url":"MeasureReport/a0b91e34-5c4b-4334-b1e4-f30ce9a85d60"}}]}