{"resourceType":"Bundle","id":"tests-857fec09-9c8c-4e4b-a123-85f473b8fc2a-bundle","type":"transaction","entry":[{"fullUrl":"https://madie.cms.gov/Patient/857fec09-9c8c-4e4b-a123-85f473b8fc2a","resource":{"resourceType":"Patient","id":"857fec09-9c8c-4e4b-a123-85f473b8fc2a","meta":{"profile":["http://hl7.org/fhir/us/qicore/StructureDefinition/qicore-patient"]},"extension":[{"url":"http://hl7.org/fhir/us/core/StructureDefinition/us-core-race","extension":[{"url":"ombCategory","valueCoding":{"system":"urn:oid:2.16.840.1.113883.6.238","code":"2028-9","display":"Asian"}},{"url":"text","valueString":"Asian"}]},{"url":"http://hl7.org/fhir/us/core/StructureDefinition/us-core-ethnicity","extension":[{"url":"ombCategory","valueCoding":{"system":"urn:oid:2.16.840.1.113883.6.238","code":"2135-2","display":"Hispanic or Latino"}},{"url":"text","valueString":"Hispanic or Latino"}]}],"identifier":[{"system":"http://hospital.smarthealthit.org","value":"999999995"}],"name":[{"family":"Bertha","given":["Betty"]}],"gender":"female","birthDate":"1973-12-31"},"request":{"method":"PUT","url":"Patient/857fec09-9c8c-4e4b-a123-85f473b8fc2a"}},{"fullUrl":"https://madie.cms.gov/Encounter/Encounter-11","resource":{"resourceType":"Encounter","id":"cc549405-5fe7-4f40-95d7-5c140a766ad7","meta":{"profile":["http://hl7.org/fhir/us/qicore/StructureDefinition/qicore-encounter"]},"status":"finished","class":{"system":"http://terminology.hl7.org/CodeSystem/v3-ActCode","code":"AMB","display":"ambulatory"},"type":[{"coding":[{"system":"http://snomed.info/sct","code":"185463005","display":"Visit out of hours (procedure)"}]}],"subject":{"reference":"Patient/857fec09-9c8c-4e4b-a123-85f473b8fc2a"},"period":{"start":"2025-01-01T00:00:00.000Z","end":"2025-01-01T00:00:00.000Z"}},"request":{"method":"PUT","url":"Encounter/cc549405-5fe7-4f40-95d7-5c140a766ad7"}},{"fullUrl":"https://madie.cms.gov/Procedure/Procedure-11","resource":{"resourceType":"Procedure","id":"485adf5e-fbad-41b0-9e2c-056c7975cbad","meta":{"profile":["http://hl7.org/fhir/us/qicore/StructureDefinition/qicore-procedure"]},"extension":[{"url":"http://hl7.org/fhir/us/qicore/StructureDefinition/qicore-recorded","valueDateTime":"2025-12-31T23:59:59.000Z"}],"status":"completed","code":{"coding":[{"system":"http://www.cms.gov/Medicare/Coding/ICD10","code":"0HTT0ZZ","display":"Resection of Right Breast, Open Approach"}]},"subject":{"reference":"Patient/857fec09-9c8c-4e4b-a123-85f473b8fc2a"},"performedPeriod":{"start":"2025-12-31T23:59:59.000Z","end":"2025-12-31T23:59:59.000Z"}},"request":{"method":"PUT","url":"Procedure/485adf5e-fbad-41b0-9e2c-056c7975cbad"}},{"fullUrl":"https://madie.cms.gov/Procedure/Procedure-11.1","resource":{"resourceType":"Procedure","id":"930da9f2-8145-43c1-a04f-3a9f421c8e97","meta":{"profile":["http://hl7.org/fhir/us/qicore/StructureDefinition/qicore-procedure"]},"extension":[{"url":"http://hl7.org/fhir/us/qicore/StructureDefinition/qicore-recorded","valueDateTime":"2025-12-31T23:59:59.000Z"}],"status":"completed","code":{"coding":[{"system":"http://www.cms.gov/Medicare/Coding/ICD10","code":"0HTU0ZZ","display":"Resection of Left Breast, Open Approach"}]},"subject":{"reference":"Patient/857fec09-9c8c-4e4b-a123-85f473b8fc2a"},"performedPeriod":{"start":"2025-12-31T23:59:59.000Z","end":"2025-12-31T23:59:59.000Z"}},"request":{"method":"PUT","url":"Procedure/930da9f2-8145-43c1-a04f-3a9f421c8e97"}},{"fullUrl":"https://madie.cms.gov/MeasureReport/33ea520f-3efa-402e-a725-0c9bf803b80e","resource":{"resourceType":"MeasureReport","id":"33ea520f-3efa-402e-a725-0c9bf803b80e","meta":{"profile":["http://hl7.org/fhir/us/cqfmeasures/StructureDefinition/test-case-cqfm"]},"contained":[{"resourceType":"Parameters","id":"d4333797-1d00-48c5-b942-e1882c7ed1d3-parameters","parameter":[{"name":"subject","valueString":"857fec09-9c8c-4e4b-a123-85f473b8fc2a"}]}],"extension":[{"url":"http://hl7.org/fhir/us/cqfmeasures/StructureDefinition/cqfm-inputParameters","valueReference":{"reference":"#d4333797-1d00-48c5-b942-e1882c7ed1d3-parameters"}},{"url":"http://hl7.org/fhir/us/cqfmeasures/StructureDefinition/cqfm-testCaseDescription","valueMarkdown":"Patient 52yo w/ an Office Visit  Encounter 1/1 of the MP & both a Unilateral Mastectomy on Right Breast and Unilateral Mastectomy on Left Breast Procedure that both end on 12/31 of the MP."}],"modifierExtension":[{"url":"http://hl7.org/fhir/us/cqfmeasures/StructureDefinition/cqfm-isTestCase","valueBoolean":true}],"status":"complete","type":"individual","measure":"https://madie.cms.gov/Measure/BreastCancerScreeningFHIR","period":{"start":"2025-01-01","end":"2025-12-31"},"group":[{"population":[{"code":{"coding":[{"system":"http://terminology.hl7.org/CodeSystem/measure-population","code":"initial-population","display":"Initial Population"}]},"count":1},{"code":{"coding":[{"system":"http://terminology.hl7.org/CodeSystem/measure-population","code":"denominator","display":"Denominator"}]},"count":1},{"code":{"coding":[{"system":"http://terminology.hl7.org/CodeSystem/measure-population","code":"denominator-exclusion","display":"Denominator Exclusion"}]},"count":1},{"code":{"coding":[{"system":"http://terminology.hl7.org/CodeSystem/measure-population","code":"numerator","display":"Numerator"}]},"count":0}]}]},"request":{"method":"PUT","url":"MeasureReport/33ea520f-3efa-402e-a725-0c9bf803b80e"}}]}