{"resourceType":"Bundle","id":"tests-f4d00e60-e525-4644-a397-4d7d970bcfdb-bundle","type":"transaction","entry":[{"fullUrl":"https://madie.cms.gov/Patient/f4d00e60-e525-4644-a397-4d7d970bcfdb","resource":{"resourceType":"Patient","id":"f4d00e60-e525-4644-a397-4d7d970bcfdb","meta":{"profile":["http://hl7.org/fhir/us/qicore/StructureDefinition/qicore-patient"]},"extension":[{"url":"http://hl7.org/fhir/us/core/StructureDefinition/us-core-race","extension":[{"url":"ombCategory","valueCoding":{"system":"urn:oid:2.16.840.1.113883.6.238","code":"2028-9","display":"Asian"}},{"url":"text","valueString":"Asian"}]},{"url":"http://hl7.org/fhir/us/core/StructureDefinition/us-core-ethnicity","extension":[{"url":"ombCategory","valueCoding":{"system":"urn:oid:2.16.840.1.113883.6.238","code":"2135-2","display":"Hispanic or Latino"}},{"url":"text","valueString":"Hispanic or Latino"}]}],"identifier":[{"system":"http://hospital.smarthealthit.org","value":"999999995"}],"name":[{"family":"Bertha","given":["Betty"]}],"gender":"female","birthDate":"1973-12-31"},"request":{"method":"PUT","url":"Patient/f4d00e60-e525-4644-a397-4d7d970bcfdb"}},{"fullUrl":"https://madie.cms.gov/Encounter/Encounter-44","resource":{"resourceType":"Encounter","id":"a6405d18-34db-4d5b-90c2-59180b65ec1b","meta":{"profile":["http://hl7.org/fhir/us/qicore/StructureDefinition/qicore-encounter"]},"status":"finished","class":{"system":"http://terminology.hl7.org/CodeSystem/v3-ActCode","code":"AMB","display":"ambulatory"},"type":[{"coding":[{"system":"http://snomed.info/sct","code":"185463005","display":"Visit out of hours (procedure)"}]}],"subject":{"reference":"Patient/f4d00e60-e525-4644-a397-4d7d970bcfdb"},"period":{"start":"2025-01-01T00:00:00.000Z","end":"2025-01-01T00:00:00.000Z"}},"request":{"method":"PUT","url":"Encounter/a6405d18-34db-4d5b-90c2-59180b65ec1b"}},{"fullUrl":"https://madie.cms.gov/Observation/Observation-44","resource":{"resourceType":"Observation","id":"7528d9cd-0065-4753-9305-4823de900f4c","meta":{"profile":["http://hl7.org/fhir/us/qicore/StructureDefinition/qicore-observation"]},"status":"final","category":[{"coding":[{"system":"http://terminology.hl7.org/CodeSystem/observation-category","code":"survey"}]}],"code":{"coding":[{"system":"http://loinc.org","code":"24604-1","display":"MG Breast Diagnostic Limited Views"}]},"subject":{"reference":"Patient/f4d00e60-e525-4644-a397-4d7d970bcfdb"},"effectivePeriod":{"start":"2026-01-01T00:00:00.000Z","end":"2026-01-01T00:00:00.000Z"}},"request":{"method":"PUT","url":"Observation/7528d9cd-0065-4753-9305-4823de900f4c"}},{"fullUrl":"https://madie.cms.gov/MeasureReport/67204e5d-3abd-416e-b72e-885c9ce463a9","resource":{"resourceType":"MeasureReport","id":"67204e5d-3abd-416e-b72e-885c9ce463a9","meta":{"profile":["http://hl7.org/fhir/us/cqfmeasures/StructureDefinition/test-case-cqfm"]},"contained":[{"resourceType":"Parameters","id":"354f0a21-2bf2-4779-b8ef-f5c95228a0bc-parameters","parameter":[{"name":"subject","valueString":"f4d00e60-e525-4644-a397-4d7d970bcfdb"}]}],"extension":[{"url":"http://hl7.org/fhir/us/cqfmeasures/StructureDefinition/cqfm-inputParameters","valueReference":{"reference":"#354f0a21-2bf2-4779-b8ef-f5c95228a0bc-parameters"}},{"url":"http://hl7.org/fhir/us/cqfmeasures/StructureDefinition/cqfm-testCaseDescription","valueMarkdown":"Patient 52yo w/ an Office Visit Encounter 1/1 during the MP and Mammogram Observation 1/1 after observation interval."}],"modifierExtension":[{"url":"http://hl7.org/fhir/us/cqfmeasures/StructureDefinition/cqfm-isTestCase","valueBoolean":true}],"status":"complete","type":"individual","measure":"https://madie.cms.gov/Measure/BreastCancerScreeningFHIR","period":{"start":"2025-01-01","end":"2025-12-31"},"group":[{"population":[{"code":{"coding":[{"system":"http://terminology.hl7.org/CodeSystem/measure-population","code":"initial-population","display":"Initial Population"}]},"count":1},{"code":{"coding":[{"system":"http://terminology.hl7.org/CodeSystem/measure-population","code":"denominator","display":"Denominator"}]},"count":1},{"code":{"coding":[{"system":"http://terminology.hl7.org/CodeSystem/measure-population","code":"denominator-exclusion","display":"Denominator Exclusion"}]},"count":0},{"code":{"coding":[{"system":"http://terminology.hl7.org/CodeSystem/measure-population","code":"numerator","display":"Numerator"}]},"count":0}]}]},"request":{"method":"PUT","url":"MeasureReport/67204e5d-3abd-416e-b72e-885c9ce463a9"}}]}