{"resourceType":"Bundle","id":"tests-0ced1e0c-9c92-4582-a4b1-e44f130e436f-bundle","type":"transaction","entry":[{"fullUrl":"https://madie.cms.gov/Patient/0ced1e0c-9c92-4582-a4b1-e44f130e436f","resource":{"resourceType":"Patient","id":"0ced1e0c-9c92-4582-a4b1-e44f130e436f","meta":{"profile":["http://hl7.org/fhir/us/qicore/StructureDefinition/qicore-patient"]},"extension":[{"url":"http://hl7.org/fhir/us/core/StructureDefinition/us-core-race","extension":[{"url":"ombCategory","valueCoding":{"system":"urn:oid:2.16.840.1.113883.6.238","code":"2028-9","display":"Asian","userSelected":true}},{"url":"text","valueString":"Asian"}]},{"url":"http://hl7.org/fhir/us/core/StructureDefinition/us-core-ethnicity","extension":[{"url":"ombCategory","valueCoding":{"system":"urn:oid:2.16.840.1.113883.6.238","code":"2135-2","display":"Hispanic or Latino","userSelected":true}},{"url":"text","valueString":"Hispanic or Latino"}]}],"identifier":[{"type":{"coding":[{"system":"http://terminology.hl7.org/CodeSystem/v2-0203","code":"MR"}]},"system":"http://hospital.smarthealthit.org","value":"999999995"}],"name":[{"family":"Bertha","given":["Betty"]}],"gender":"female","birthDate":"1951-12-31"},"request":{"method":"PUT","url":"Patient/0ced1e0c-9c92-4582-a4b1-e44f130e436f"}},{"fullUrl":"https://madie.cms.gov/Encounter/Encounter-1","resource":{"resourceType":"Encounter","id":"235124d4-283a-4e73-802f-c884aa7bbbed","meta":{"profile":["http://hl7.org/fhir/us/qicore/StructureDefinition/qicore-encounter"]},"status":"finished","class":{"system":"http://terminology.hl7.org/CodeSystem/v3-ActCode","code":"AMB","display":"ambulatory"},"type":[{"coding":[{"system":"http://snomed.info/sct","code":"185463005","display":"Visit out of hours (procedure)"}]}],"subject":{"reference":"Patient/0ced1e0c-9c92-4582-a4b1-e44f130e436f"},"period":{"start":"2025-12-31T00:00:00.000Z","end":"2025-12-31T23:59:59.000Z"}},"request":{"method":"PUT","url":"Encounter/235124d4-283a-4e73-802f-c884aa7bbbed"}},{"fullUrl":"https://madie.cms.gov/MedicationRequest/MedicationRequest-1","resource":{"resourceType":"MedicationRequest","id":"26614f92-eaf3-475e-848e-f722ad911cf4","meta":{"profile":["http://hl7.org/fhir/us/qicore/StructureDefinition/qicore-medicationrequest"]},"status":"active","intent":"order","doNotPerform":false,"medicationCodeableConcept":{"coding":[{"system":"http://www.nlm.nih.gov/research/umls/rxnorm","code":"312836","display":"rivastigmine 6 MG Oral Capsule"}]},"subject":{"reference":"Patient/0ced1e0c-9c92-4582-a4b1-e44f130e436f"},"authoredOn":"2025-12-30T00:00:00.000Z","requester":{"reference":"Practitioner/example"},"dispenseRequest":{"expectedSupplyDuration":{"value":90,"system":"http://unitsofmeasure.org","code":"days"}}},"request":{"method":"PUT","url":"MedicationRequest/26614f92-eaf3-475e-848e-f722ad911cf4"}},{"fullUrl":"https://madie.cms.gov/DeviceRequest/DeviceRequest-1","resource":{"resourceType":"DeviceRequest","id":"372e2644-6f02-4e8f-b6dd-48e3dfc43242","meta":{"profile":["http://hl7.org/fhir/us/qicore/StructureDefinition/qicore-devicerequest"]},"modifierExtension":[{"url":"http://hl7.org/fhir/us/qicore/StructureDefinition/qicore-doNotPeform","valueBoolean":false}],"status":"completed","intent":"order","codeCodeableConcept":{"coding":[{"system":"http://snomed.info/sct","code":"183240000","display":"Self-propelled wheelchair (physical object)"}]},"subject":{"reference":"Patient/0ced1e0c-9c92-4582-a4b1-e44f130e436f"},"authoredOn":"2025-11-01T23:59:00.000Z"},"request":{"method":"PUT","url":"DeviceRequest/372e2644-6f02-4e8f-b6dd-48e3dfc43242"}},{"fullUrl":"https://madie.cms.gov/MeasureReport/8e4920e4-b228-43c3-b688-238d8d6860f0","resource":{"resourceType":"MeasureReport","id":"8e4920e4-b228-43c3-b688-238d8d6860f0","meta":{"profile":["http://hl7.org/fhir/us/cqfmeasures/StructureDefinition/test-case-cqfm"]},"contained":[{"resourceType":"Parameters","id":"a4773e1a-bcc6-4bb0-926e-8d70b44c1c4a-parameters","parameter":[{"name":"subject","valueString":"0ced1e0c-9c92-4582-a4b1-e44f130e436f"}]}],"extension":[{"url":"http://hl7.org/fhir/us/cqfmeasures/StructureDefinition/cqfm-inputParameters","valueReference":{"reference":"#a4773e1a-bcc6-4bb0-926e-8d70b44c1c4a-parameters"}},{"url":"http://hl7.org/fhir/us/cqfmeasures/StructureDefinition/cqfm-testCaseDescription","valueMarkdown":"Dementia medications during MP"}],"modifierExtension":[{"url":"http://hl7.org/fhir/us/cqfmeasures/StructureDefinition/cqfm-isTestCase","valueBoolean":true}],"status":"complete","type":"individual","measure":"https://madie.cms.gov/Measure/BreastCancerScreeningFHIR","period":{"start":"2025-01-01","end":"2025-12-31"},"group":[{"population":[{"code":{"coding":[{"system":"http://terminology.hl7.org/CodeSystem/measure-population","code":"initial-population","display":"Initial Population"}]},"count":1},{"code":{"coding":[{"system":"http://terminology.hl7.org/CodeSystem/measure-population","code":"denominator","display":"Denominator"}]},"count":1},{"code":{"coding":[{"system":"http://terminology.hl7.org/CodeSystem/measure-population","code":"denominator-exclusion","display":"Denominator Exclusion"}]},"count":1},{"code":{"coding":[{"system":"http://terminology.hl7.org/CodeSystem/measure-population","code":"numerator","display":"Numerator"}]},"count":0}]}]},"request":{"method":"PUT","url":"MeasureReport/8e4920e4-b228-43c3-b688-238d8d6860f0"}}]}