{"resourceType":"Bundle","id":"tests-356ab8ed-7c44-46ec-9fa9-9ec462054f2b-bundle","type":"transaction","entry":[{"fullUrl":"https://madie.cms.gov/Patient/356ab8ed-7c44-46ec-9fa9-9ec462054f2b","resource":{"resourceType":"Patient","id":"356ab8ed-7c44-46ec-9fa9-9ec462054f2b","meta":{"profile":["http://hl7.org/fhir/us/qicore/StructureDefinition/qicore-patient"]},"extension":[{"url":"http://hl7.org/fhir/us/core/StructureDefinition/us-core-race","extension":[{"url":"ombCategory","valueCoding":{"system":"urn:oid:2.16.840.1.113883.6.238","code":"2028-9","display":"Asian"}},{"url":"text","valueString":"Asian"}]},{"url":"http://hl7.org/fhir/us/core/StructureDefinition/us-core-ethnicity","extension":[{"url":"ombCategory","valueCoding":{"system":"urn:oid:2.16.840.1.113883.6.238","code":"2135-2","display":"Hispanic or Latino"}},{"url":"text","valueString":"Hispanic or Latino"}]}],"identifier":[{"system":"http://hospital.smarthealthit.org","value":"999999995"}],"name":[{"family":"Bertha","given":["Betty"]}],"gender":"female","birthDate":"1973-12-31"},"request":{"method":"PUT","url":"Patient/356ab8ed-7c44-46ec-9fa9-9ec462054f2b"}},{"fullUrl":"https://madie.cms.gov/Encounter/Encounter-12","resource":{"resourceType":"Encounter","id":"d4c6cb8e-6da3-4090-990b-be92382cf899","meta":{"profile":["http://hl7.org/fhir/us/qicore/StructureDefinition/qicore-encounter"]},"status":"finished","class":{"system":"http://terminology.hl7.org/CodeSystem/v3-ActCode","code":"AMB","display":"ambulatory"},"type":[{"coding":[{"system":"http://snomed.info/sct","code":"185463005","display":"Visit out of hours (procedure)"}]}],"subject":{"reference":"Patient/356ab8ed-7c44-46ec-9fa9-9ec462054f2b"},"period":{"start":"2025-01-01T00:00:00.000Z","end":"2025-01-01T00:00:00.000Z"}},"request":{"method":"PUT","url":"Encounter/d4c6cb8e-6da3-4090-990b-be92382cf899"}},{"fullUrl":"https://madie.cms.gov/Procedure/Procedure-12","resource":{"resourceType":"Procedure","id":"44434662-191c-419c-af5f-baf8264c5eda","meta":{"profile":["http://hl7.org/fhir/us/qicore/StructureDefinition/qicore-procedure"]},"extension":[{"url":"http://hl7.org/fhir/us/qicore/StructureDefinition/qicore-recorded","valueDateTime":"2025-01-01T00:00:00.000Z"}],"status":"completed","code":{"coding":[{"system":"http://www.cms.gov/Medicare/Coding/ICD10","code":"0HTT0ZZ","display":"Resection of Right Breast, Open Approach"}]},"subject":{"reference":"Patient/356ab8ed-7c44-46ec-9fa9-9ec462054f2b"},"performedPeriod":{"start":"2025-01-01T00:00:00.000Z","end":"2025-01-01T00:00:00.000Z"}},"request":{"method":"PUT","url":"Procedure/44434662-191c-419c-af5f-baf8264c5eda"}},{"fullUrl":"https://madie.cms.gov/Procedure/Procedure-12.1","resource":{"resourceType":"Procedure","id":"23a02a9d-181d-46a2-90e2-f0acdb442d94","meta":{"profile":["http://hl7.org/fhir/us/qicore/StructureDefinition/qicore-procedure"]},"extension":[{"url":"http://hl7.org/fhir/us/qicore/StructureDefinition/qicore-recorded","valueDateTime":"2025-01-01T00:00:00.000Z"}],"status":"completed","code":{"coding":[{"system":"http://www.cms.gov/Medicare/Coding/ICD10","code":"0HTU0ZZ","display":"Resection of Left Breast, Open Approach"}]},"subject":{"reference":"Patient/356ab8ed-7c44-46ec-9fa9-9ec462054f2b"},"performedPeriod":{"start":"2025-01-01T00:00:00.000Z","end":"2025-01-01T00:00:00.000Z"}},"request":{"method":"PUT","url":"Procedure/23a02a9d-181d-46a2-90e2-f0acdb442d94"}},{"fullUrl":"https://madie.cms.gov/MeasureReport/c6c55c64-3ed1-4389-9f78-4d3814b8dd9c","resource":{"resourceType":"MeasureReport","id":"c6c55c64-3ed1-4389-9f78-4d3814b8dd9c","meta":{"profile":["http://hl7.org/fhir/us/cqfmeasures/StructureDefinition/test-case-cqfm"]},"contained":[{"resourceType":"Parameters","id":"a69f7598-c1d8-4568-922c-27aee5b04145-parameters","parameter":[{"name":"subject","valueString":"356ab8ed-7c44-46ec-9fa9-9ec462054f2b"}]}],"extension":[{"url":"http://hl7.org/fhir/us/cqfmeasures/StructureDefinition/cqfm-inputParameters","valueReference":{"reference":"#a69f7598-c1d8-4568-922c-27aee5b04145-parameters"}},{"url":"http://hl7.org/fhir/us/cqfmeasures/StructureDefinition/cqfm-testCaseDescription","valueMarkdown":"Patient 52yo w/ an Office Visit  Encounter 1/1 of the MP & both a Unilateral Mastectomy on Right Breast and Unilateral Mastectomy on Left Breast Procedure that both end on 1/1 of the MP."}],"modifierExtension":[{"url":"http://hl7.org/fhir/us/cqfmeasures/StructureDefinition/cqfm-isTestCase","valueBoolean":true}],"status":"complete","type":"individual","measure":"https://madie.cms.gov/Measure/BreastCancerScreeningFHIR","period":{"start":"2025-01-01","end":"2025-12-31"},"group":[{"population":[{"code":{"coding":[{"system":"http://terminology.hl7.org/CodeSystem/measure-population","code":"initial-population","display":"Initial Population"}]},"count":1},{"code":{"coding":[{"system":"http://terminology.hl7.org/CodeSystem/measure-population","code":"denominator","display":"Denominator"}]},"count":1},{"code":{"coding":[{"system":"http://terminology.hl7.org/CodeSystem/measure-population","code":"denominator-exclusion","display":"Denominator Exclusion"}]},"count":1},{"code":{"coding":[{"system":"http://terminology.hl7.org/CodeSystem/measure-population","code":"numerator","display":"Numerator"}]},"count":0}]}]},"request":{"method":"PUT","url":"MeasureReport/c6c55c64-3ed1-4389-9f78-4d3814b8dd9c"}}]}