{
  "resourceType": "Bundle",
  "id": "NUMERPass-PROMIS29Resulted",
  "type": "transaction",
  "entry": [ {
    "fullUrl": "https://madie.cms.gov/Patient/55e09746-2203-47d9-89d0-e96f71300720",
    "resource": {
      "resourceType": "Patient",
      "id": "55e09746-2203-47d9-89d0-e96f71300720",
      "meta": {
        "profile": [ "http://hl7.org/fhir/us/qicore/StructureDefinition/qicore-patient" ]
      },
      "extension": [ {
        "url": "http://hl7.org/fhir/us/core/StructureDefinition/us-core-race",
        "extension": [ {
          "url": "ombCategory",
          "valueCoding": {
            "system": "urn:oid:2.16.840.1.113883.6.238",
            "code": "2028-9",
            "display": "Asian"
          }
        }, {
          "url": "text",
          "valueString": "Asian"
        } ]
      }, {
        "url": "http://hl7.org/fhir/us/core/StructureDefinition/us-core-ethnicity",
        "extension": [ {
          "url": "ombCategory",
          "valueCoding": {
            "system": "urn:oid:2.16.840.1.113883.6.238",
            "code": "2135-2",
            "display": "Hispanic or Latino"
          }
        }, {
          "url": "text",
          "valueString": "Hispanic or Latino"
        } ]
      } ],
      "identifier": [ {
        "system": "http://hospital.smarthealthit.org",
        "value": "999999995"
      } ],
      "name": [ {
        "family": "Bertha",
        "given": [ "Betty" ]
      } ],
      "gender": "female",
      "birthDate": "2007-01-01"
    },
    "request": {
      "method": "POST",
      "url": "Patient/55e09746-2203-47d9-89d0-e96f71300720"
    }
  }, {
    "fullUrl": "https://madie.cms.gov/Encounter/Encounter-15",
    "resource": {
      "resourceType": "Encounter",
      "id": "Encounter-15",
      "meta": {
        "profile": [ "http://hl7.org/fhir/us/qicore/StructureDefinition/qicore-encounter" ]
      },
      "status": "finished",
      "class": {
        "system": "http://terminology.hl7.org/CodeSystem/v3-ActCode",
        "code": "AMB",
        "display": "ambulatory"
      },
      "type": [ {
        "coding": [ {
          "system": "http://snomed.info/sct",
          "code": "185317003",
          "display": "Telephone encounter (procedure)"
        } ]
      } ],
      "subject": {
        "reference": "Patient/55e09746-2203-47d9-89d0-e96f71300720"
      },
      "period": {
        "start": "2025-01-01T01:00:00.000Z",
        "end": "2025-01-01T01:15:00.000Z"
      }
    },
    "request": {
      "method": "POST",
      "url": "Encounter/Encounter-15"
    }
  }, {
    "fullUrl": "https://madie.cms.gov/Encounter/Encounter-16",
    "resource": {
      "resourceType": "Encounter",
      "id": "Encounter-16",
      "meta": {
        "profile": [ "http://hl7.org/fhir/us/qicore/StructureDefinition/qicore-encounter" ]
      },
      "status": "finished",
      "class": {
        "system": "http://terminology.hl7.org/CodeSystem/v3-ActCode",
        "code": "AMB",
        "display": "ambulatory"
      },
      "type": [ {
        "coding": [ {
          "system": "http://snomed.info/sct",
          "code": "185317003",
          "display": "Telephone encounter (procedure)"
        } ]
      } ],
      "subject": {
        "reference": "Patient/55e09746-2203-47d9-89d0-e96f71300720"
      },
      "period": {
        "start": "2025-01-02T01:00:00.000Z",
        "end": "2025-01-02T01:15:00.000Z"
      }
    },
    "request": {
      "method": "POST",
      "url": "Encounter/Encounter-16"
    }
  }, {
    "fullUrl": "https://madie.cms.gov/Condition/Condition-7",
    "resource": {
      "resourceType": "Condition",
      "id": "Condition-7",
      "meta": {
        "profile": [ "http://hl7.org/fhir/us/qicore/StructureDefinition/qicore-condition" ]
      },
      "clinicalStatus": {
        "coding": [ {
          "system": "http://terminology.hl7.org/CodeSystem/condition-clinical",
          "code": "active"
        } ]
      },
      "category": [ {
        "coding": [ {
          "system": "http://terminology.hl7.org/CodeSystem/condition-category",
          "code": "problem-list-item",
          "display": "Problem List Item"
        } ]
      } ],
      "code": {
        "coding": [ {
          "system": "http://snomed.info/sct",
          "code": "10091002",
          "display": "High output heart failure (disorder)"
        } ]
      },
      "subject": {
        "reference": "Patient/55e09746-2203-47d9-89d0-e96f71300720"
      },
      "onsetDateTime": "2024-12-31T23:59:00.000Z"
    },
    "request": {
      "method": "POST",
      "url": "Condition/Condition-7"
    }
  }, {
    "fullUrl": "https://madie.cms.gov/Observation/Observation-9",
    "resource": {
      "resourceType": "Observation",
      "id": "Observation-9",
      "meta": {
        "profile": [ "http://hl7.org/fhir/us/qicore/StructureDefinition/qicore-observation" ]
      },
      "status": "final",
      "category": [ {
        "coding": [ {
          "system": "http://terminology.hl7.org/CodeSystem/observation-category",
          "code": "survey",
          "display": "survey"
        } ],
        "text": "survey"
      } ],
      "code": {
        "coding": [ {
          "system": "http://loinc.org",
          "code": "71955-9",
          "display": "PROMIS-29 Sleep disturbance score T-score"
        } ]
      },
      "subject": {
        "reference": "Patient/55e09746-2203-47d9-89d0-e96f71300720"
      },
      "effectivePeriod": {
        "start": "2025-01-01T23:00:00.000Z",
        "end": "2025-01-01T23:59:00.000Z"
      },
      "valueInteger": 1
    },
    "request": {
      "method": "POST",
      "url": "Observation/Observation-9"
    }
  }, {
    "fullUrl": "https://madie.cms.gov/Observation/Observation-10",
    "resource": {
      "resourceType": "Observation",
      "id": "Observation-10",
      "meta": {
        "profile": [ "http://hl7.org/fhir/us/qicore/StructureDefinition/qicore-observation" ]
      },
      "status": "final",
      "category": [ {
        "coding": [ {
          "system": "http://terminology.hl7.org/CodeSystem/observation-category",
          "code": "survey",
          "display": "survey"
        } ],
        "text": "survey"
      } ],
      "code": {
        "coding": [ {
          "system": "http://loinc.org",
          "code": "71957-5",
          "display": "PROMIS-29 Satisfaction with participation in social roles score T-score"
        } ]
      },
      "subject": {
        "reference": "Patient/55e09746-2203-47d9-89d0-e96f71300720"
      },
      "effectivePeriod": {
        "start": "2025-01-01T23:00:00.000Z",
        "end": "2025-01-01T23:59:00.000Z"
      },
      "valueInteger": 2
    },
    "request": {
      "method": "POST",
      "url": "Observation/Observation-10"
    }
  }, {
    "fullUrl": "https://madie.cms.gov/Observation/Observation-11",
    "resource": {
      "resourceType": "Observation",
      "id": "Observation-11",
      "meta": {
        "profile": [ "http://hl7.org/fhir/us/qicore/StructureDefinition/qicore-observation" ]
      },
      "status": "final",
      "category": [ {
        "coding": [ {
          "system": "http://terminology.hl7.org/CodeSystem/observation-category",
          "code": "survey",
          "display": "survey"
        } ],
        "text": "survey"
      } ],
      "code": {
        "coding": [ {
          "system": "http://loinc.org",
          "code": "71955-9",
          "display": "PROMIS-29 Sleep disturbance score T-score"
        } ]
      },
      "subject": {
        "reference": "Patient/55e09746-2203-47d9-89d0-e96f71300720"
      },
      "effectivePeriod": {
        "start": "2025-01-31T23:00:00.000Z",
        "end": "2025-01-31T23:59:00.000Z"
      },
      "valueInteger": 3
    },
    "request": {
      "method": "POST",
      "url": "Observation/Observation-11"
    }
  }, {
    "fullUrl": "https://madie.cms.gov/Observation/Observation-12",
    "resource": {
      "resourceType": "Observation",
      "id": "Observation-12",
      "meta": {
        "profile": [ "http://hl7.org/fhir/us/qicore/StructureDefinition/qicore-observation" ]
      },
      "status": "final",
      "category": [ {
        "coding": [ {
          "system": "http://terminology.hl7.org/CodeSystem/observation-category",
          "code": "survey",
          "display": "survey"
        } ],
        "text": "survey"
      } ],
      "code": {
        "coding": [ {
          "system": "http://loinc.org",
          "code": "71957-5",
          "display": "PROMIS-29 Satisfaction with participation in social roles score T-score"
        } ]
      },
      "subject": {
        "reference": "Patient/55e09746-2203-47d9-89d0-e96f71300720"
      },
      "effectivePeriod": {
        "start": "2025-01-31T23:00:00.000Z",
        "end": "2025-01-31T23:59:00.000Z"
      },
      "valueInteger": 4
    },
    "request": {
      "method": "POST",
      "url": "Observation/Observation-12"
    }
  }, {
    "fullUrl": "https://madie.cms.gov/Observation/Observation-13",
    "resource": {
      "resourceType": "Observation",
      "id": "Observation-13",
      "meta": {
        "profile": [ "http://hl7.org/fhir/us/qicore/StructureDefinition/qicore-observation" ]
      },
      "status": "final",
      "category": [ {
        "coding": [ {
          "system": "http://terminology.hl7.org/CodeSystem/observation-category",
          "code": "survey",
          "display": "survey"
        } ],
        "text": "survey"
      } ],
      "code": {
        "coding": [ {
          "system": "http://loinc.org",
          "code": "71959-1",
          "display": "PROMIS-29 Physical function score T-score"
        } ]
      },
      "subject": {
        "reference": "Patient/55e09746-2203-47d9-89d0-e96f71300720"
      },
      "effectivePeriod": {
        "start": "2025-01-01T23:00:00.000Z",
        "end": "2025-01-01T23:59:00.000Z"
      },
      "valueInteger": 4
    },
    "request": {
      "method": "POST",
      "url": "Observation/Observation-13"
    }
  }, {
    "fullUrl": "https://madie.cms.gov/Observation/Observation-14",
    "resource": {
      "resourceType": "Observation",
      "id": "Observation-14",
      "meta": {
        "profile": [ "http://hl7.org/fhir/us/qicore/StructureDefinition/qicore-observation" ]
      },
      "status": "final",
      "category": [ {
        "coding": [ {
          "system": "http://terminology.hl7.org/CodeSystem/observation-category",
          "code": "survey",
          "display": "survey"
        } ],
        "text": "survey"
      } ],
      "code": {
        "coding": [ {
          "system": "http://loinc.org",
          "code": "71959-1",
          "display": "PROMIS-29 Physical function score T-score"
        } ]
      },
      "subject": {
        "reference": "Patient/55e09746-2203-47d9-89d0-e96f71300720"
      },
      "effectivePeriod": {
        "start": "2025-01-31T23:00:00.000Z",
        "end": "2025-01-31T23:59:00.000Z"
      },
      "valueInteger": 4
    },
    "request": {
      "method": "POST",
      "url": "Observation/Observation-14"
    }
  }, {
    "fullUrl": "https://madie.cms.gov/Observation/Observation-15",
    "resource": {
      "resourceType": "Observation",
      "id": "Observation-15",
      "meta": {
        "profile": [ "http://hl7.org/fhir/us/qicore/StructureDefinition/qicore-observation" ]
      },
      "status": "final",
      "category": [ {
        "coding": [ {
          "system": "http://terminology.hl7.org/CodeSystem/observation-category",
          "code": "survey",
          "display": "survey"
        } ],
        "text": "survey"
      } ],
      "code": {
        "coding": [ {
          "system": "http://loinc.org",
          "code": "71961-7",
          "display": "PROMIS-29 Pain interference score T-score"
        } ]
      },
      "subject": {
        "reference": "Patient/55e09746-2203-47d9-89d0-e96f71300720"
      },
      "effectivePeriod": {
        "start": "2025-01-01T23:00:00.000Z",
        "end": "2025-01-01T23:59:00.000Z"
      },
      "valueInteger": 4
    },
    "request": {
      "method": "POST",
      "url": "Observation/Observation-15"
    }
  }, {
    "fullUrl": "https://madie.cms.gov/Observation/Observation-16",
    "resource": {
      "resourceType": "Observation",
      "id": "Observation-16",
      "meta": {
        "profile": [ "http://hl7.org/fhir/us/qicore/StructureDefinition/qicore-observation" ]
      },
      "status": "final",
      "category": [ {
        "coding": [ {
          "system": "http://terminology.hl7.org/CodeSystem/observation-category",
          "code": "survey",
          "display": "survey"
        } ],
        "text": "survey"
      } ],
      "code": {
        "coding": [ {
          "system": "http://loinc.org",
          "code": "71961-7",
          "display": "PROMIS-29 Pain interference score T-score"
        } ]
      },
      "subject": {
        "reference": "Patient/55e09746-2203-47d9-89d0-e96f71300720"
      },
      "effectivePeriod": {
        "start": "2025-01-31T23:00:00.000Z",
        "end": "2025-01-31T23:59:00.000Z"
      },
      "valueInteger": 4
    },
    "request": {
      "method": "POST",
      "url": "Observation/Observation-16"
    }
  }, {
    "fullUrl": "https://madie.cms.gov/Observation/Observation-17",
    "resource": {
      "resourceType": "Observation",
      "id": "Observation-17",
      "meta": {
        "profile": [ "http://hl7.org/fhir/us/qicore/StructureDefinition/qicore-observation" ]
      },
      "status": "final",
      "category": [ {
        "coding": [ {
          "system": "http://terminology.hl7.org/CodeSystem/observation-category",
          "code": "survey",
          "display": "survey"
        } ],
        "text": "survey"
      } ],
      "code": {
        "coding": [ {
          "system": "http://loinc.org",
          "code": "71963-3",
          "display": "PROMIS-29 Fatigue score T-score"
        } ]
      },
      "subject": {
        "reference": "Patient/55e09746-2203-47d9-89d0-e96f71300720"
      },
      "effectivePeriod": {
        "start": "2025-01-01T23:00:00.000Z",
        "end": "2025-01-01T23:59:00.000Z"
      },
      "valueInteger": 4
    },
    "request": {
      "method": "POST",
      "url": "Observation/Observation-17"
    }
  }, {
    "fullUrl": "https://madie.cms.gov/Observation/Observation-18",
    "resource": {
      "resourceType": "Observation",
      "id": "Observation-18",
      "meta": {
        "profile": [ "http://hl7.org/fhir/us/qicore/StructureDefinition/qicore-observation" ]
      },
      "status": "final",
      "category": [ {
        "coding": [ {
          "system": "http://terminology.hl7.org/CodeSystem/observation-category",
          "code": "survey",
          "display": "survey"
        } ],
        "text": "survey"
      } ],
      "code": {
        "coding": [ {
          "system": "http://loinc.org",
          "code": "71963-3",
          "display": "PROMIS-29 Fatigue score T-score"
        } ]
      },
      "subject": {
        "reference": "Patient/55e09746-2203-47d9-89d0-e96f71300720"
      },
      "effectivePeriod": {
        "start": "2025-01-31T23:00:00.000Z",
        "end": "2025-01-31T23:59:00.000Z"
      },
      "valueInteger": 4
    },
    "request": {
      "method": "POST",
      "url": "Observation/Observation-18"
    }
  }, {
    "fullUrl": "https://madie.cms.gov/Observation/Observation-19",
    "resource": {
      "resourceType": "Observation",
      "id": "Observation-19",
      "meta": {
        "profile": [ "http://hl7.org/fhir/us/qicore/StructureDefinition/qicore-observation" ]
      },
      "status": "final",
      "category": [ {
        "coding": [ {
          "system": "http://terminology.hl7.org/CodeSystem/observation-category",
          "code": "survey",
          "display": "survey"
        } ],
        "text": "survey"
      } ],
      "code": {
        "coding": [ {
          "system": "http://loinc.org",
          "code": "71965-8",
          "display": "PROMIS-29 Depression score T-score"
        } ]
      },
      "subject": {
        "reference": "Patient/55e09746-2203-47d9-89d0-e96f71300720"
      },
      "effectivePeriod": {
        "start": "2025-01-01T23:00:00.000Z",
        "end": "2025-01-01T23:59:00.000Z"
      },
      "valueInteger": 4
    },
    "request": {
      "method": "POST",
      "url": "Observation/Observation-19"
    }
  }, {
    "fullUrl": "https://madie.cms.gov/Observation/Observation-20",
    "resource": {
      "resourceType": "Observation",
      "id": "Observation-20",
      "meta": {
        "profile": [ "http://hl7.org/fhir/us/qicore/StructureDefinition/qicore-observation" ]
      },
      "status": "final",
      "category": [ {
        "coding": [ {
          "system": "http://terminology.hl7.org/CodeSystem/observation-category",
          "code": "survey",
          "display": "survey"
        } ],
        "text": "survey"
      } ],
      "code": {
        "coding": [ {
          "system": "http://loinc.org",
          "code": "71965-8",
          "display": "PROMIS-29 Depression score T-score"
        } ]
      },
      "subject": {
        "reference": "Patient/55e09746-2203-47d9-89d0-e96f71300720"
      },
      "effectivePeriod": {
        "start": "2025-01-31T23:00:00.000Z",
        "end": "2025-01-31T23:59:00.000Z"
      },
      "valueInteger": 4
    },
    "request": {
      "method": "POST",
      "url": "Observation/Observation-20"
    }
  }, {
    "fullUrl": "https://madie.cms.gov/Observation/Observation-21",
    "resource": {
      "resourceType": "Observation",
      "id": "Observation-21",
      "meta": {
        "profile": [ "http://hl7.org/fhir/us/qicore/StructureDefinition/qicore-observation" ]
      },
      "status": "final",
      "category": [ {
        "coding": [ {
          "system": "http://terminology.hl7.org/CodeSystem/observation-category",
          "code": "survey",
          "display": "survey"
        } ],
        "text": "survey"
      } ],
      "code": {
        "coding": [ {
          "system": "http://loinc.org",
          "code": "71967-4",
          "display": "PROMIS-29 Anxiety score T-score"
        } ]
      },
      "subject": {
        "reference": "Patient/55e09746-2203-47d9-89d0-e96f71300720"
      },
      "effectivePeriod": {
        "start": "2025-01-01T23:00:00.000Z",
        "end": "2025-01-01T23:59:00.000Z"
      },
      "valueInteger": 4
    },
    "request": {
      "method": "POST",
      "url": "Observation/Observation-21"
    }
  }, {
    "fullUrl": "https://madie.cms.gov/Observation/Observation-22",
    "resource": {
      "resourceType": "Observation",
      "id": "Observation-22",
      "meta": {
        "profile": [ "http://hl7.org/fhir/us/qicore/StructureDefinition/qicore-observation" ]
      },
      "status": "final",
      "category": [ {
        "coding": [ {
          "system": "http://terminology.hl7.org/CodeSystem/observation-category",
          "code": "survey",
          "display": "survey"
        } ],
        "text": "survey"
      } ],
      "code": {
        "coding": [ {
          "system": "http://loinc.org",
          "code": "71967-4",
          "display": "PROMIS-29 Anxiety score T-score"
        } ]
      },
      "subject": {
        "reference": "Patient/55e09746-2203-47d9-89d0-e96f71300720"
      },
      "effectivePeriod": {
        "start": "2025-01-31T23:00:00.000Z",
        "end": "2025-01-31T23:59:00.000Z"
      },
      "valueInteger": 4
    },
    "request": {
      "method": "POST",
      "url": "Observation/Observation-22"
    }
  }, {
    "fullUrl": "https://madie.cms.gov/MeasureReport/80ffdf0a-b9b5-4f87-92ce-ef75bafd0b54",
    "resource": {
      "resourceType": "MeasureReport",
      "id": "80ffdf0a-b9b5-4f87-92ce-ef75bafd0b54",
      "meta": {
        "profile": [ "http://hl7.org/fhir/us/cqfmeasures/StructureDefinition/test-case-cqfm" ]
      },
      "contained": [ {
        "resourceType": "Parameters",
        "id": "ba513f49-ae2f-4df0-95eb-d49dec7e5b57-parameters",
        "parameter": [ {
          "name": "subject",
          "valueString": "55e09746-2203-47d9-89d0-e96f71300720"
        } ]
      } ],
      "extension": [ {
        "url": "http://hl7.org/fhir/us/cqfmeasures/StructureDefinition/cqfm-inputParameters",
        "valueReference": {
          "reference": "#ba513f49-ae2f-4df0-95eb-d49dec7e5b57-parameters"
        }
      }, {
        "url": "http://hl7.org/fhir/us/cqfmeasures/StructureDefinition/cqfm-testCaseDescription",
        "valueMarkdown": "Patient has all PROMIS29 results during the correct timeframe."
      } ],
      "modifierExtension": [ {
        "url": "http://hl7.org/fhir/us/cqfmeasures/StructureDefinition/cqfm-isTestCase",
        "valueBoolean": true
      } ],
      "status": "complete",
      "type": "individual",
      "measure": "https://madie.cms.gov/Measure/FunctionalStatusAssessmentsforHeartFailureFHIR",
      "period": {
        "start": "2025-01-01",
        "end": "2025-12-31"
      },
      "group": [ {
        "population": [ {
          "code": {
            "coding": [ {
              "system": "http://terminology.hl7.org/CodeSystem/measure-population",
              "code": "initial-population",
              "display": "Initial Population"
            } ]
          },
          "count": 1
        }, {
          "code": {
            "coding": [ {
              "system": "http://terminology.hl7.org/CodeSystem/measure-population",
              "code": "denominator",
              "display": "Denominator"
            } ]
          },
          "count": 1
        }, {
          "code": {
            "coding": [ {
              "system": "http://terminology.hl7.org/CodeSystem/measure-population",
              "code": "denominator-exclusion",
              "display": "Denominator Exclusion"
            } ]
          },
          "count": 0
        }, {
          "code": {
            "coding": [ {
              "system": "http://terminology.hl7.org/CodeSystem/measure-population",
              "code": "numerator",
              "display": "Numerator"
            } ]
          },
          "count": 1
        } ]
      } ],
      "evaluatedResource": [ {
        "reference": "https://madie.cms.gov/Patient/55e09746-2203-47d9-89d0-e96f71300720"
      }, {
        "reference": "https://madie.cms.gov/Encounter/Encounter-15"
      }, {
        "reference": "https://madie.cms.gov/Encounter/Encounter-16"
      }, {
        "reference": "https://madie.cms.gov/Condition/Condition-7"
      }, {
        "reference": "https://madie.cms.gov/Observation/Observation-9"
      }, {
        "reference": "https://madie.cms.gov/Observation/Observation-10"
      }, {
        "reference": "https://madie.cms.gov/Observation/Observation-11"
      }, {
        "reference": "https://madie.cms.gov/Observation/Observation-12"
      }, {
        "reference": "https://madie.cms.gov/Observation/Observation-13"
      }, {
        "reference": "https://madie.cms.gov/Observation/Observation-14"
      }, {
        "reference": "https://madie.cms.gov/Observation/Observation-15"
      }, {
        "reference": "https://madie.cms.gov/Observation/Observation-16"
      }, {
        "reference": "https://madie.cms.gov/Observation/Observation-17"
      }, {
        "reference": "https://madie.cms.gov/Observation/Observation-18"
      }, {
        "reference": "https://madie.cms.gov/Observation/Observation-19"
      }, {
        "reference": "https://madie.cms.gov/Observation/Observation-20"
      }, {
        "reference": "https://madie.cms.gov/Observation/Observation-21"
      }, {
        "reference": "https://madie.cms.gov/Observation/Observation-22"
      } ]
    },
    "request": {
      "method": "POST",
      "url": "MeasureReport/80ffdf0a-b9b5-4f87-92ce-ef75bafd0b54"
    }
  } ]
}