{
  "resourceType": "Bundle",
  "id": "NUMERFail-KCCQ12FollowUp181Days",
  "type": "transaction",
  "entry": [ {
    "fullUrl": "https://madie.cms.gov/Patient/5f205f02-5010-4195-a45a-6f2536e32255",
    "resource": {
      "resourceType": "Patient",
      "id": "5f205f02-5010-4195-a45a-6f2536e32255",
      "meta": {
        "profile": [ "http://hl7.org/fhir/us/qicore/StructureDefinition/qicore-patient" ]
      },
      "extension": [ {
        "url": "http://hl7.org/fhir/us/core/StructureDefinition/us-core-race",
        "extension": [ {
          "url": "ombCategory",
          "valueCoding": {
            "system": "urn:oid:2.16.840.1.113883.6.238",
            "code": "2028-9",
            "display": "Asian"
          }
        }, {
          "url": "text",
          "valueString": "Asian"
        } ]
      }, {
        "url": "http://hl7.org/fhir/us/core/StructureDefinition/us-core-ethnicity",
        "extension": [ {
          "url": "ombCategory",
          "valueCoding": {
            "system": "urn:oid:2.16.840.1.113883.6.238",
            "code": "2135-2",
            "display": "Hispanic or Latino"
          }
        }, {
          "url": "text",
          "valueString": "Hispanic or Latino"
        } ]
      } ],
      "identifier": [ {
        "system": "http://hospital.smarthealthit.org",
        "value": "999999995"
      } ],
      "name": [ {
        "family": "Bertha",
        "given": [ "Betty" ]
      } ],
      "gender": "female",
      "birthDate": "2007-01-01"
    },
    "request": {
      "method": "POST",
      "url": "Patient/5f205f02-5010-4195-a45a-6f2536e32255"
    }
  }, {
    "fullUrl": "https://madie.cms.gov/Encounter/Encounter-41",
    "resource": {
      "resourceType": "Encounter",
      "id": "Encounter-41",
      "meta": {
        "profile": [ "http://hl7.org/fhir/us/qicore/StructureDefinition/qicore-encounter" ]
      },
      "status": "finished",
      "class": {
        "system": "http://terminology.hl7.org/CodeSystem/v3-ActCode",
        "code": "AMB",
        "display": "ambulatory"
      },
      "type": [ {
        "coding": [ {
          "system": "http://snomed.info/sct",
          "code": "185317003",
          "display": "Telephone encounter (procedure)"
        } ]
      } ],
      "subject": {
        "reference": "Patient/5f205f02-5010-4195-a45a-6f2536e32255"
      },
      "period": {
        "start": "2025-01-01T01:00:00.000Z",
        "end": "2025-01-01T01:15:00.000Z"
      }
    },
    "request": {
      "method": "POST",
      "url": "Encounter/Encounter-41"
    }
  }, {
    "fullUrl": "https://madie.cms.gov/Encounter/Encounter-42",
    "resource": {
      "resourceType": "Encounter",
      "id": "Encounter-42",
      "meta": {
        "profile": [ "http://hl7.org/fhir/us/qicore/StructureDefinition/qicore-encounter" ]
      },
      "status": "finished",
      "class": {
        "system": "http://terminology.hl7.org/CodeSystem/v3-ActCode",
        "code": "AMB",
        "display": "ambulatory"
      },
      "type": [ {
        "coding": [ {
          "system": "http://snomed.info/sct",
          "code": "185317003",
          "display": "Telephone encounter (procedure)"
        } ]
      } ],
      "subject": {
        "reference": "Patient/5f205f02-5010-4195-a45a-6f2536e32255"
      },
      "period": {
        "start": "2025-01-02T01:00:00.000Z",
        "end": "2025-01-02T01:15:00.000Z"
      }
    },
    "request": {
      "method": "POST",
      "url": "Encounter/Encounter-42"
    }
  }, {
    "fullUrl": "https://madie.cms.gov/Condition/Condition-20",
    "resource": {
      "resourceType": "Condition",
      "id": "Condition-20",
      "meta": {
        "profile": [ "http://hl7.org/fhir/us/qicore/StructureDefinition/qicore-condition" ]
      },
      "clinicalStatus": {
        "coding": [ {
          "system": "http://terminology.hl7.org/CodeSystem/condition-clinical",
          "code": "active"
        } ]
      },
      "category": [ {
        "coding": [ {
          "system": "http://terminology.hl7.org/CodeSystem/condition-category",
          "code": "problem-list-item",
          "display": "Problem List Item"
        } ]
      } ],
      "code": {
        "coding": [ {
          "system": "http://snomed.info/sct",
          "code": "10091002",
          "display": "High output heart failure (disorder)"
        } ]
      },
      "subject": {
        "reference": "Patient/5f205f02-5010-4195-a45a-6f2536e32255"
      },
      "onsetDateTime": "2024-12-31T23:59:00.000Z"
    },
    "request": {
      "method": "POST",
      "url": "Condition/Condition-20"
    }
  }, {
    "fullUrl": "https://madie.cms.gov/Observation/Observation-61",
    "resource": {
      "resourceType": "Observation",
      "id": "Observation-61",
      "meta": {
        "profile": [ "http://hl7.org/fhir/us/qicore/StructureDefinition/qicore-observation" ]
      },
      "status": "final",
      "category": [ {
        "coding": [ {
          "system": "http://terminology.hl7.org/CodeSystem/observation-category",
          "code": "survey",
          "display": "survey"
        } ],
        "text": "survey"
      } ],
      "code": {
        "coding": [ {
          "system": "http://loinc.org",
          "code": "85609-6",
          "display": "Physical score [MLHFQ]"
        } ]
      },
      "subject": {
        "reference": "Patient/5f205f02-5010-4195-a45a-6f2536e32255"
      },
      "effectivePeriod": {
        "start": "2025-01-01T23:00:00.000Z",
        "end": "2025-01-01T23:59:00.000Z"
      },
      "valueInteger": 4
    },
    "request": {
      "method": "POST",
      "url": "Observation/Observation-61"
    }
  }, {
    "fullUrl": "https://madie.cms.gov/Observation/Observation-62",
    "resource": {
      "resourceType": "Observation",
      "id": "Observation-62",
      "meta": {
        "profile": [ "http://hl7.org/fhir/us/qicore/StructureDefinition/qicore-observation" ]
      },
      "status": "final",
      "category": [ {
        "coding": [ {
          "system": "http://terminology.hl7.org/CodeSystem/observation-category",
          "code": "survey",
          "display": "survey"
        } ],
        "text": "survey"
      } ],
      "code": {
        "coding": [ {
          "system": "http://loinc.org",
          "code": "85609-6",
          "display": "Physical score [MLHFQ]"
        } ]
      },
      "subject": {
        "reference": "Patient/5f205f02-5010-4195-a45a-6f2536e32255"
      },
      "effectivePeriod": {
        "start": "2025-06-30T23:00:00.000Z",
        "end": "2025-06-30T23:59:00.000Z"
      },
      "valueInteger": 4
    },
    "request": {
      "method": "POST",
      "url": "Observation/Observation-62"
    }
  }, {
    "fullUrl": "https://madie.cms.gov/Observation/Observation-63",
    "resource": {
      "resourceType": "Observation",
      "id": "Observation-63",
      "meta": {
        "profile": [ "http://hl7.org/fhir/us/qicore/StructureDefinition/qicore-observation" ]
      },
      "status": "final",
      "category": [ {
        "coding": [ {
          "system": "http://terminology.hl7.org/CodeSystem/observation-category",
          "code": "survey",
          "display": "survey"
        } ],
        "text": "survey"
      } ],
      "code": {
        "coding": [ {
          "system": "http://loinc.org",
          "code": "85618-7",
          "display": "Emotional score [MLHFQ]"
        } ]
      },
      "subject": {
        "reference": "Patient/5f205f02-5010-4195-a45a-6f2536e32255"
      },
      "effectivePeriod": {
        "start": "2025-01-01T23:00:00.000Z",
        "end": "2025-01-01T23:59:00.000Z"
      },
      "valueInteger": 4
    },
    "request": {
      "method": "POST",
      "url": "Observation/Observation-63"
    }
  }, {
    "fullUrl": "https://madie.cms.gov/Observation/Observation-64",
    "resource": {
      "resourceType": "Observation",
      "id": "Observation-64",
      "meta": {
        "profile": [ "http://hl7.org/fhir/us/qicore/StructureDefinition/qicore-observation" ]
      },
      "status": "final",
      "category": [ {
        "coding": [ {
          "system": "http://terminology.hl7.org/CodeSystem/observation-category",
          "code": "survey",
          "display": "survey"
        } ],
        "text": "survey"
      } ],
      "code": {
        "coding": [ {
          "system": "http://loinc.org",
          "code": "85618-7",
          "display": "Emotional score [MLHFQ]"
        } ]
      },
      "subject": {
        "reference": "Patient/5f205f02-5010-4195-a45a-6f2536e32255"
      },
      "effectivePeriod": {
        "start": "2025-05-30T23:00:00.000Z",
        "end": "2025-05-30T23:59:00.000Z"
      },
      "valueInteger": 4
    },
    "request": {
      "method": "POST",
      "url": "Observation/Observation-64"
    }
  }, {
    "fullUrl": "https://madie.cms.gov/MeasureReport/ee35798b-1c0d-436e-9d7c-4f42fc2d6f42",
    "resource": {
      "resourceType": "MeasureReport",
      "id": "ee35798b-1c0d-436e-9d7c-4f42fc2d6f42",
      "meta": {
        "profile": [ "http://hl7.org/fhir/us/cqfmeasures/StructureDefinition/test-case-cqfm" ]
      },
      "contained": [ {
        "resourceType": "Parameters",
        "id": "ca17be74-d452-445d-a109-164b119e888c-parameters",
        "parameter": [ {
          "name": "subject",
          "valueString": "5f205f02-5010-4195-a45a-6f2536e32255"
        } ]
      } ],
      "extension": [ {
        "url": "http://hl7.org/fhir/us/cqfmeasures/StructureDefinition/cqfm-inputParameters",
        "valueReference": {
          "reference": "#ca17be74-d452-445d-a109-164b119e888c-parameters"
        }
      }, {
        "url": "http://hl7.org/fhir/us/cqfmeasures/StructureDefinition/cqfm-testCaseDescription",
        "valueMarkdown": "Patient has all KCCQ12 with results but one follow up occurs 181 days after initial follow up."
      } ],
      "modifierExtension": [ {
        "url": "http://hl7.org/fhir/us/cqfmeasures/StructureDefinition/cqfm-isTestCase",
        "valueBoolean": true
      } ],
      "status": "complete",
      "type": "individual",
      "measure": "https://madie.cms.gov/Measure/FunctionalStatusAssessmentsforHeartFailureFHIR",
      "period": {
        "start": "2025-01-01",
        "end": "2025-12-31"
      },
      "group": [ {
        "population": [ {
          "code": {
            "coding": [ {
              "system": "http://terminology.hl7.org/CodeSystem/measure-population",
              "code": "initial-population",
              "display": "Initial Population"
            } ]
          },
          "count": 1
        }, {
          "code": {
            "coding": [ {
              "system": "http://terminology.hl7.org/CodeSystem/measure-population",
              "code": "denominator",
              "display": "Denominator"
            } ]
          },
          "count": 1
        }, {
          "code": {
            "coding": [ {
              "system": "http://terminology.hl7.org/CodeSystem/measure-population",
              "code": "denominator-exclusion",
              "display": "Denominator Exclusion"
            } ]
          },
          "count": 0
        }, {
          "code": {
            "coding": [ {
              "system": "http://terminology.hl7.org/CodeSystem/measure-population",
              "code": "numerator",
              "display": "Numerator"
            } ]
          },
          "count": 0
        } ]
      } ],
      "evaluatedResource": [ {
        "reference": "https://madie.cms.gov/Patient/5f205f02-5010-4195-a45a-6f2536e32255"
      }, {
        "reference": "https://madie.cms.gov/Encounter/Encounter-41"
      }, {
        "reference": "https://madie.cms.gov/Encounter/Encounter-42"
      }, {
        "reference": "https://madie.cms.gov/Condition/Condition-20"
      }, {
        "reference": "https://madie.cms.gov/Observation/Observation-61"
      }, {
        "reference": "https://madie.cms.gov/Observation/Observation-62"
      }, {
        "reference": "https://madie.cms.gov/Observation/Observation-63"
      }, {
        "reference": "https://madie.cms.gov/Observation/Observation-64"
      } ]
    },
    "request": {
      "method": "POST",
      "url": "MeasureReport/ee35798b-1c0d-436e-9d7c-4f42fc2d6f42"
    }
  } ]
}