{
  "resourceType": "Bundle",
  "id": "IPFail-18WOffVisEncDec31B4MPDiabetesDxJan1OfMP",
  "type": "transaction",
  "entry": [ {
    "fullUrl": "https://madie.cms.gov/Patient/22ae61cd-1553-4e7a-b9f5-7406cfd6a968",
    "resource": {
      "resourceType": "Patient",
      "id": "22ae61cd-1553-4e7a-b9f5-7406cfd6a968",
      "meta": {
        "profile": [ "http://hl7.org/fhir/us/qicore/StructureDefinition/qicore-patient" ]
      },
      "extension": [ {
        "url": "http://hl7.org/fhir/us/core/StructureDefinition/us-core-race",
        "extension": [ {
          "url": "ombCategory",
          "valueCoding": {
            "system": "urn:oid:2.16.840.1.113883.6.238",
            "code": "2028-9",
            "display": "Asian"
          }
        }, {
          "url": "text",
          "valueString": "Asian"
        } ]
      }, {
        "url": "http://hl7.org/fhir/us/core/StructureDefinition/us-core-ethnicity",
        "extension": [ {
          "url": "ombCategory",
          "valueCoding": {
            "system": "urn:oid:2.16.840.1.113883.6.238",
            "code": "2135-2",
            "display": "Hispanic or Latino"
          }
        }, {
          "url": "text",
          "valueString": "Hispanic or Latino"
        } ]
      } ],
      "identifier": [ {
        "system": "http://hospital.smarthealthit.org",
        "value": "999999995"
      } ],
      "name": [ {
        "family": "Bertha",
        "given": [ "Betty" ]
      } ],
      "gender": "female",
      "birthDate": "2007-12-31"
    },
    "request": {
      "method": "POST",
      "url": "Patient/22ae61cd-1553-4e7a-b9f5-7406cfd6a968"
    }
  }, {
    "fullUrl": "https://madie.cms.gov/Encounter/Encounter-5",
    "resource": {
      "resourceType": "Encounter",
      "id": "Encounter-5",
      "meta": {
        "profile": [ "http://hl7.org/fhir/us/qicore/StructureDefinition/qicore-encounter" ]
      },
      "status": "finished",
      "class": {
        "system": "http://terminology.hl7.org/CodeSystem/v3-ActCode",
        "code": "AMB",
        "display": "ambulatory"
      },
      "type": [ {
        "coding": [ {
          "system": "http://snomed.info/sct",
          "code": "185463005",
          "display": "Visit out of hours (procedure)"
        } ]
      } ],
      "subject": {
        "reference": "Patient/22ae61cd-1553-4e7a-b9f5-7406cfd6a968"
      },
      "period": {
        "start": "2024-12-31T23:59:59.000Z",
        "end": "2024-12-31T23:59:59.000Z"
      }
    },
    "request": {
      "method": "POST",
      "url": "Encounter/Encounter-5"
    }
  }, {
    "fullUrl": "https://madie.cms.gov/Condition/Condition-5",
    "resource": {
      "resourceType": "Condition",
      "id": "Condition-5",
      "meta": {
        "profile": [ "http://hl7.org/fhir/us/qicore/StructureDefinition/qicore-condition" ]
      },
      "clinicalStatus": {
        "coding": [ {
          "system": "http://terminology.hl7.org/CodeSystem/condition-clinical",
          "code": "active"
        } ]
      },
      "category": [ {
        "coding": [ {
          "system": "http://terminology.hl7.org/CodeSystem/condition-category",
          "code": "problem-list-item",
          "display": "Problem List Item"
        } ]
      } ],
      "code": {
        "coding": [ {
          "system": "http://snomed.info/sct",
          "code": "102781000119107",
          "display": "Sensory neuropathy due to type 1 diabetes mellitus (disorder)"
        } ]
      },
      "subject": {
        "reference": "Patient/22ae61cd-1553-4e7a-b9f5-7406cfd6a968"
      },
      "onsetDateTime": "2025-01-01T00:00:00.000Z"
    },
    "request": {
      "method": "POST",
      "url": "Condition/Condition-5"
    }
  }, {
    "fullUrl": "https://madie.cms.gov/MeasureReport/b2fd974c-1f17-43be-944e-3144512f2011",
    "resource": {
      "resourceType": "MeasureReport",
      "id": "b2fd974c-1f17-43be-944e-3144512f2011",
      "meta": {
        "profile": [ "http://hl7.org/fhir/us/cqfmeasures/StructureDefinition/test-case-cqfm" ]
      },
      "contained": [ {
        "resourceType": "Parameters",
        "id": "1e2d1139-7e37-418b-8f03-3d5d89cd7fa4-parameters",
        "parameter": [ {
          "name": "subject",
          "valueString": "22ae61cd-1553-4e7a-b9f5-7406cfd6a968"
        } ]
      } ],
      "extension": [ {
        "url": "http://hl7.org/fhir/us/cqfmeasures/StructureDefinition/cqfm-inputParameters",
        "valueReference": {
          "reference": "#1e2d1139-7e37-418b-8f03-3d5d89cd7fa4-parameters"
        }
      }, {
        "url": "http://hl7.org/fhir/us/cqfmeasures/StructureDefinition/cqfm-testCaseDescription",
        "valueMarkdown": "Patient 18yo w/ an Office Visit Encounter 12/31 before MP & Diabetes Condition ending 1/1 during the MP."
      } ],
      "modifierExtension": [ {
        "url": "http://hl7.org/fhir/us/cqfmeasures/StructureDefinition/cqfm-isTestCase",
        "valueBoolean": true
      } ],
      "status": "complete",
      "type": "individual",
      "measure": "https://madie.cms.gov/Measure/DiabetesEyeExamFHIR",
      "period": {
        "start": "2025-01-01",
        "end": "2025-12-31"
      },
      "group": [ {
        "population": [ {
          "code": {
            "coding": [ {
              "system": "http://terminology.hl7.org/CodeSystem/measure-population",
              "code": "initial-population",
              "display": "Initial Population"
            } ]
          },
          "count": 0
        }, {
          "code": {
            "coding": [ {
              "system": "http://terminology.hl7.org/CodeSystem/measure-population",
              "code": "denominator",
              "display": "Denominator"
            } ]
          },
          "count": 0
        }, {
          "code": {
            "coding": [ {
              "system": "http://terminology.hl7.org/CodeSystem/measure-population",
              "code": "denominator-exclusion",
              "display": "Denominator Exclusion"
            } ]
          },
          "count": 0
        }, {
          "code": {
            "coding": [ {
              "system": "http://terminology.hl7.org/CodeSystem/measure-population",
              "code": "numerator",
              "display": "Numerator"
            } ]
          },
          "count": 0
        } ]
      } ],
      "evaluatedResource": [ {
        "reference": "https://madie.cms.gov/Patient/22ae61cd-1553-4e7a-b9f5-7406cfd6a968"
      }, {
        "reference": "https://madie.cms.gov/Encounter/Encounter-5"
      }, {
        "reference": "https://madie.cms.gov/Condition/Condition-5"
      } ]
    },
    "request": {
      "method": "POST",
      "url": "MeasureReport/b2fd974c-1f17-43be-944e-3144512f2011"
    }
  } ]
}