{
  "resourceType": "Bundle",
  "id": "63ec0968ccb3770120fe9d74",
  "type": "transaction",
  "entry": [ {
    "fullUrl": "https://madie.cms.gov/Patient/bd0c87d4-b1d8-470b-beba-df7f7b9af87e",
    "resource": {
      "resourceType": "Patient",
      "id": "bd0c87d4-b1d8-470b-beba-df7f7b9af87e",
      "meta": {
        "profile": [ "http://hl7.org/fhir/us/qicore/StructureDefinition/qicore-patient" ]
      },
      "text": {
        "status": "generated",
        "div": "<div xmlns=\"http://www.w3.org/1999/xhtml\"><div class=\"hapiHeaderText\">OnAdmit <b>HEMATPASS </b></div><table class=\"hapiPropertyTable\"><tbody><tr><td>Identifier</td><td>a3da21e0aa9acb035adc77fa116544b16013e74ef32aafc4f42a40ab71459966</td></tr><tr><td>Date of birth</td><td><span>15 June 1956</span></td></tr></tbody></table></div>"
      },
      "extension": [ {
        "url": "http://hl7.org/fhir/us/core/StructureDefinition/us-core-race",
        "extension": [ {
          "url": "ombCategory",
          "valueCoding": {
            "system": "urn:oid:2.16.840.1.113883.6.238",
            "code": "2106-3",
            "display": "White",
            "userSelected": true
          }
        }, {
          "url": "text",
          "valueString": "White"
        } ]
      }, {
        "url": "http://hl7.org/fhir/us/core/StructureDefinition/us-core-ethnicity",
        "extension": [ {
          "url": "ombCategory",
          "valueCoding": {
            "system": "urn:oid:2.16.840.1.113883.6.238",
            "code": "2186-5",
            "display": "Not Hispanic or Latino",
            "userSelected": true
          }
        }, {
          "url": "text",
          "valueString": "Not Hispanic or Latino"
        } ]
      } ],
      "identifier": [ {
        "type": {
          "coding": [ {
            "system": "http://terminology.hl7.org/CodeSystem/v2-0203",
            "code": "MR"
          } ]
        },
        "system": "https://bonnie-fhir.healthit.gov/",
        "value": "63ec0968ccb3770120fe9d74"
      } ],
      "active": true,
      "name": [ {
        "use": "usual",
        "family": "HematocritFail",
        "given": [ "24Hrs1MinBeforeInpatientAdmit" ]
      } ],
      "gender": "male",
      "birthDate": "1960-07-01"
    },
    "request": {
      "method": "POST",
      "url": "Patient/bd0c87d4-b1d8-470b-beba-df7f7b9af87e"
    }
  }, {
    "fullUrl": "https://madie.cms.gov/Encounter/5e064eb09350f90000fe244aX",
    "resource": {
      "resourceType": "Encounter",
      "id": "5e064eb09350f90000fe244aX",
      "meta": {
        "profile": [ "http://hl7.org/fhir/us/qicore/StructureDefinition/qicore-encounter" ]
      },
      "status": "finished",
      "class": {
        "system": "http://terminology.hl7.org/CodeSystem/v3-ActCode",
        "code": "OBSENC",
        "display": "observation encounter",
        "userSelected": true
      },
      "type": [ {
        "coding": [ {
          "system": "http://snomed.info/sct",
          "code": "448951000124107",
          "display": "Admission to observation unit (procedure)"
        } ]
      } ],
      "subject": {
        "reference": "Patient/bd0c87d4-b1d8-470b-beba-df7f7b9af87e"
      },
      "period": {
        "start": "2025-07-01T08:00:00.000+00:00",
        "end": "2025-07-02T07:15:00.000+00:00"
      },
      "length": {
        "value": 1,
        "unit": "days"
      }
    },
    "request": {
      "method": "POST",
      "url": "Encounter/5e064eb09350f90000fe244aX"
    }
  }, {
    "fullUrl": "https://madie.cms.gov/Encounter/5e064eb09350f90000fe244a",
    "resource": {
      "resourceType": "Encounter",
      "id": "5e064eb09350f90000fe244a",
      "meta": {
        "profile": [ "http://hl7.org/fhir/us/qicore/StructureDefinition/qicore-encounter" ]
      },
      "status": "finished",
      "class": {
        "system": "http://terminology.hl7.org/CodeSystem/v3-ActCode",
        "code": "IMP",
        "display": "inpatient encounter",
        "userSelected": true
      },
      "type": [ {
        "coding": [ {
          "system": "http://snomed.info/sct",
          "code": "183452005"
        } ]
      } ],
      "subject": {
        "reference": "Patient/bd0c87d4-b1d8-470b-beba-df7f7b9af87e"
      },
      "period": {
        "start": "2025-07-02T07:15:00.000+00:00",
        "end": "2025-07-05T12:15:00.000+00:00"
      },
      "length": {
        "value": 3,
        "unit": "days"
      }
    },
    "request": {
      "method": "POST",
      "url": "Encounter/5e064eb09350f90000fe244a"
    }
  }, {
    "fullUrl": "https://madie.cms.gov/Coverage/5f9968fcb977ef0000c02ce8",
    "resource": {
      "resourceType": "Coverage",
      "id": "5f9968fcb977ef0000c02ce8",
      "meta": {
        "profile": [ "http://hl7.org/fhir/us/qicore/StructureDefinition/qicore-coverage" ]
      },
      "status": "active",
      "type": {
        "coding": [ {
          "system": "https://nahdo.org/sopt",
          "version": "1.0.1",
          "code": "1",
          "display": "Medicare payer",
          "userSelected": true
        } ]
      },
      "beneficiary": {
        "reference": "Patient/bd0c87d4-b1d8-470b-beba-df7f7b9af87e"
      },
      "payor": [ {
        "reference": "Organization/123456"
      } ]
    },
    "request": {
      "method": "POST",
      "url": "Coverage/5f9968fcb977ef0000c02ce8"
    }
  }, {
    "fullUrl": "https://madie.cms.gov/Observation/5e064efa9350f90000fe247c",
    "resource": {
      "resourceType": "Observation",
      "id": "5e064efa9350f90000fe247c",
      "meta": {
        "profile": [ "http://hl7.org/fhir/us/core/StructureDefinition/us-core-observation-lab" ]
      },
      "status": "final",
      "category": [ {
        "coding": [ {
          "system": "http://terminology.hl7.org/CodeSystem/observation-category",
          "code": "laboratory",
          "display": "Laboratory",
          "userSelected": true
        } ]
      } ],
      "code": {
        "coding": [ {
          "system": "http://loinc.org",
          "code": "20570-8",
          "display": "Hematocrit [Volume Fraction] of Blood"
        } ]
      },
      "subject": {
        "reference": "Patient/bd0c87d4-b1d8-470b-beba-df7f7b9af87e"
      },
      "effectiveDateTime": "2025-07-01T07:14:00.000+00:00",
      "issued": "2025-07-01T07:14:00.000+00:00",
      "valueQuantity": {
        "value": 50,
        "unit": "%",
        "system": "http://unitsofmeasure.org",
        "code": "%"
      }
    },
    "request": {
      "method": "POST",
      "url": "Observation/5e064efa9350f90000fe247c"
    }
  }, {
    "fullUrl": "https://madie.cms.gov/Organization/123456",
    "resource": {
      "resourceType": "Organization",
      "id": "123456",
      "meta": {
        "profile": [ "http://hl7.org/fhir/us/qicore/StructureDefinition/qicore-organization" ]
      },
      "identifier": [ {
        "use": "temp",
        "system": "urn:oid:2.16.840.1.113883.4.4",
        "value": "21-3259825"
      } ],
      "active": true,
      "type": [ {
        "coding": [ {
          "system": "http://terminology.hl7.org/CodeSystem/organization-type",
          "code": "pay",
          "display": "Payer"
        } ]
      } ],
      "name": "Blue Cross Blue Shield of Texas",
      "telecom": [ {
        "system": "phone",
        "value": "(+1) 972-766-6900"
      } ],
      "address": [ {
        "use": "billing",
        "type": "postal",
        "line": [ "P.O. Box 660044" ],
        "city": "Dallas",
        "state": "TX",
        "postalCode": "75266-0044",
        "country": "USA"
      } ]
    },
    "request": {
      "method": "POST",
      "url": "Organization/123456"
    }
  }, {
    "fullUrl": "https://madie.cms.gov/Practitioner/practitioner-123456",
    "resource": {
      "resourceType": "Practitioner",
      "id": "practitioner-123456",
      "meta": {
        "profile": [ "http://hl7.org/fhir/us/qicore/StructureDefinition/qicore-practitioner" ]
      },
      "identifier": [ {
        "system": "http://hl7.org/fhir/sid/us-npi",
        "value": "123456"
      } ],
      "name": [ {
        "family": "Evil",
        "prefix": [ "Dr" ]
      } ]
    },
    "request": {
      "method": "POST",
      "url": "Practitioner/practitioner-123456"
    }
  }, {
    "fullUrl": "https://madie.cms.gov/MeasureReport/b4d80d8d-b2f7-4f47-a433-373023d0cc33",
    "resource": {
      "resourceType": "MeasureReport",
      "id": "b4d80d8d-b2f7-4f47-a433-373023d0cc33",
      "meta": {
        "profile": [ "http://hl7.org/fhir/us/cqfmeasures/StructureDefinition/test-case-cqfm" ]
      },
      "contained": [ {
        "resourceType": "Parameters",
        "id": "978a0eb9-cae1-46dd-bfb5-fb21090583c3-parameters",
        "parameter": [ {
          "name": "subject",
          "valueString": "bd0c87d4-b1d8-470b-beba-df7f7b9af87e"
        } ]
      } ],
      "extension": [ {
        "url": "http://hl7.org/fhir/us/cqfmeasures/StructureDefinition/cqfm-inputParameters",
        "valueReference": {
          "reference": "#978a0eb9-cae1-46dd-bfb5-fb21090583c3-parameters"
        }
      }, {
        "url": "http://hl7.org/fhir/us/cqfmeasures/StructureDefinition/cqfm-testCaseDescription",
        "valueMarkdown": "Observation enc first day of MP (7/1), age 65 today, inpatient admit 7/2 and hematocrit test performed 24hrs 1 min prior to inpatient admission"
      } ],
      "modifierExtension": [ {
        "url": "http://hl7.org/fhir/us/cqfmeasures/StructureDefinition/cqfm-isTestCase",
        "valueBoolean": true
      } ],
      "status": "complete",
      "type": "individual",
      "measure": "https://madie.cms.gov/Measure/HybridHospitalWideMortalityFHIR",
      "period": {
        "start": "2025-01-01",
        "end": "2025-12-31"
      },
      "group": [ {
        "population": [ {
          "code": {
            "coding": [ {
              "system": "http://terminology.hl7.org/CodeSystem/measure-population",
              "code": "initial-population",
              "display": "Initial Population"
            } ]
          },
          "count": 1
        } ]
      } ],
      "evaluatedResource": [ {
        "reference": "https://madie.cms.gov/Patient/bd0c87d4-b1d8-470b-beba-df7f7b9af87e"
      }, {
        "reference": "https://madie.cms.gov/Encounter/5e064eb09350f90000fe244aX"
      }, {
        "reference": "https://madie.cms.gov/Encounter/5e064eb09350f90000fe244a"
      }, {
        "reference": "https://madie.cms.gov/Coverage/5f9968fcb977ef0000c02ce8"
      }, {
        "reference": "https://madie.cms.gov/Observation/5e064efa9350f90000fe247c"
      }, {
        "reference": "https://madie.cms.gov/Organization/123456"
      }, {
        "reference": "https://madie.cms.gov/Practitioner/practitioner-123456"
      } ]
    },
    "request": {
      "method": "POST",
      "url": "MeasureReport/b4d80d8d-b2f7-4f47-a433-373023d0cc33"
    }
  } ]
}