{"resourceType":"Bundle","id":"tests-7fafc4ad-74d9-48e7-b12e-d51a11030a14-bundle","type":"transaction","entry":[{"fullUrl":"https://madie.cms.gov/Patient/7fafc4ad-74d9-48e7-b12e-d51a11030a14","resource":{"resourceType":"Patient","id":"7fafc4ad-74d9-48e7-b12e-d51a11030a14","meta":{"profile":["http://hl7.org/fhir/us/qicore/StructureDefinition/qicore-patient"]},"extension":[{"url":"http://hl7.org/fhir/us/core/StructureDefinition/us-core-race","extension":[{"url":"ombCategory","valueCoding":{"system":"urn:oid:2.16.840.1.113883.6.238","code":"2054-5","display":"Black or African American","userSelected":true}},{"url":"detailed","valueCoding":{"system":"urn:oid:2.16.840.1.113883.6.238","code":"2036-2","display":"Filipino"}},{"url":"text","valueString":"Black or African American"}]},{"url":"http://hl7.org/fhir/us/core/StructureDefinition/us-core-ethnicity","extension":[{"url":"ombCategory","valueCoding":{"system":"urn:oid:2.16.840.1.113883.6.238","code":"2186-5","display":"Not Hispanic or Latino","userSelected":true}},{"url":"detailed","valueCoding":{"system":"urn:oid:2.16.840.1.113883.6.238","code":"2184-0","display":"Dominican"}},{"url":"detailed","valueCoding":{"system":"urn:oid:2.16.840.1.113883.6.238","code":"2148-5","display":"Mexican"}},{"url":"text","valueString":"Not Hispanic or Latino"}]}],"identifier":[{"type":{"coding":[{"system":"http://terminology.hl7.org/CodeSystem/v2-0203","code":"MR"}]},"system":"https://bonnie-fhir.healthit.gov/","value":"64a2f99b6bc362e28fa378ba"}],"name":[{"family":"NumPass","given":["AllLabTestsMultipleEnc"]}],"gender":"female","birthDate":"2000-02-04"},"request":{"method":"PUT","url":"Patient/7fafc4ad-74d9-48e7-b12e-d51a11030a14"}},{"fullUrl":"https://madie.cms.gov/Condition/hiv-78bb","resource":{"resourceType":"Condition","id":"7927e754-a1e8-4f9b-82c5-ab7fc81a857f","meta":{"profile":["http://hl7.org/fhir/us/qicore/StructureDefinition/qicore-condition"]},"clinicalStatus":{"coding":[{"system":"http://terminology.hl7.org/CodeSystem/condition-clinical","code":"active","display":"active","userSelected":true}]},"category":[{"coding":[{"system":"http://terminology.hl7.org/CodeSystem/condition-category","code":"problem-list-item","display":"Problem List Item"}]}],"code":{"coding":[{"system":"http://hl7.org/fhir/sid/icd-9-cm","version":"2013","code":"042","display":"Human immunodeficiency virus [HIV] disease","userSelected":true},{"system":"http://snomed.info/sct","code":"165816005","userSelected":true}]},"subject":{"reference":"Patient/7fafc4ad-74d9-48e7-b12e-d51a11030a14"},"onsetDateTime":"2017-09-28T08:00:00.000+00:00","recordedDate":"2017-09-28T08:00:00.000+00:00"},"request":{"method":"PUT","url":"Condition/7927e754-a1e8-4f9b-82c5-ab7fc81a857f"}},{"fullUrl":"https://madie.cms.gov/Encounter/preventive-care-established-office-visit-0-to-17-78bc","resource":{"resourceType":"Encounter","id":"657882fd-fe76-428f-ae45-9763188bd7ad","meta":{"profile":["http://hl7.org/fhir/us/qicore/StructureDefinition/qicore-encounter"]},"status":"finished","class":{"system":"http://terminology.hl7.org/CodeSystem/v3-ActCode","code":"AMB","display":"ambulatory"},"type":[{"coding":[{"system":"http://www.ama-assn.org/go/cpt","version":"2023","code":"99391","display":"Periodic comprehensive preventive medicine reevaluation and management of an individual including an age and gender appropriate history, examination, counseling/anticipatory guidance/risk factor reduction interventions, and the ordering of laboratory/diagnostic procedures, established patient; infant (age younger than 1 year)","userSelected":true}]}],"subject":{"reference":"Patient/7fafc4ad-74d9-48e7-b12e-d51a11030a14"},"period":{"start":"2025-09-29T08:00:00.000+00:00","end":"2025-09-29T08:30:00.000+00:00"}},"request":{"method":"PUT","url":"Encounter/657882fd-fe76-428f-ae45-9763188bd7ad"}},{"fullUrl":"https://madie.cms.gov/Observation/syphilis-tests-78bd","resource":{"resourceType":"Observation","id":"33a9a3e4-8bb3-45ed-86dd-a7b7a1e92c7d","meta":{"profile":["http://hl7.org/fhir/us/qicore/StructureDefinition/qicore-observation"]},"status":"final","category":[{"coding":[{"system":"http://terminology.hl7.org/CodeSystem/observation-category"}]}],"code":{"coding":[{"system":"http://loinc.org","version":"2.73","code":"11084-1","display":"Reagin Ab [Titer] in Serum","userSelected":true}]},"subject":{"reference":"Patient/7fafc4ad-74d9-48e7-b12e-d51a11030a14"},"effectivePeriod":{"start":"2025-08-30T08:00:00.000+00:00","end":"2025-08-30T08:15:00.000+00:00"},"issued":"2025-08-30T08:00:00.000+00:00","valueBoolean":true},"request":{"method":"PUT","url":"Observation/33a9a3e4-8bb3-45ed-86dd-a7b7a1e92c7d"}},{"fullUrl":"https://madie.cms.gov/Observation/chlamydia-screening-78be","resource":{"resourceType":"Observation","id":"48f133b1-387e-4590-91dc-04b375bd6ede","meta":{"profile":["http://hl7.org/fhir/us/qicore/StructureDefinition/qicore-observation"]},"status":"final","category":[{"coding":[{"system":"http://terminology.hl7.org/CodeSystem/observation-category"}]}],"code":{"coding":[{"system":"http://loinc.org","version":"2.73","code":"14463-4","display":"Chlamydia trachomatis [Presence] in Cervix by Organism specific culture","userSelected":true}]},"subject":{"reference":"Patient/7fafc4ad-74d9-48e7-b12e-d51a11030a14"},"effectivePeriod":{"start":"2025-08-30T08:00:00.000+00:00","end":"2025-08-30T08:15:00.000+00:00"},"issued":"2025-08-30T08:00:00.000+00:00","valueQuantity":{"value":12}},"request":{"method":"PUT","url":"Observation/48f133b1-387e-4590-91dc-04b375bd6ede"}},{"fullUrl":"https://madie.cms.gov/Encounter/office-visit-78bf","resource":{"resourceType":"Encounter","id":"b23a664d-3177-4c44-bc0f-3eaf618d6522","meta":{"profile":["http://hl7.org/fhir/us/qicore/StructureDefinition/qicore-encounter"]},"status":"finished","class":{"system":"http://terminology.hl7.org/CodeSystem/v3-ActCode","code":"AMB","display":"ambulatory"},"type":[{"coding":[{"system":"http://snomed.info/sct","code":"30346009","userSelected":true}]}],"subject":{"reference":"Patient/7fafc4ad-74d9-48e7-b12e-d51a11030a14"},"period":{"start":"2025-01-02T08:00:00.000+00:00","end":"2025-01-02T08:45:00.000+00:00"}},"request":{"method":"PUT","url":"Encounter/b23a664d-3177-4c44-bc0f-3eaf618d6522"}},{"fullUrl":"https://madie.cms.gov/Observation/gonorrhea-screening-78c0","resource":{"resourceType":"Observation","id":"13c63c04-710f-4e2d-a059-14dab8975a6c","meta":{"profile":["http://hl7.org/fhir/us/qicore/StructureDefinition/qicore-observation"]},"status":"final","category":[{"coding":[{"system":"http://terminology.hl7.org/CodeSystem/observation-category"}]}],"code":{"coding":[{"system":"http://loinc.org","version":"2.73","code":"21415-5","display":"Neisseria gonorrhoeae DNA [Presence] in Cervical mucus by NAA with probe detection","userSelected":true}]},"subject":{"reference":"Patient/7fafc4ad-74d9-48e7-b12e-d51a11030a14"},"effectivePeriod":{"start":"2025-08-30T08:00:00.000+00:00","end":"2025-08-30T08:15:00.000+00:00"},"issued":"2025-08-30T08:00:00.000+00:00","valueQuantity":{"value":16}},"request":{"method":"PUT","url":"Observation/13c63c04-710f-4e2d-a059-14dab8975a6c"}},{"fullUrl":"https://madie.cms.gov/Coverage/1","resource":{"resourceType":"Coverage","id":"bb72ebb2-0a46-415c-8ff0-2dd18afac25c","meta":{"profile":["http://hl7.org/fhir/us/qicore/StructureDefinition/qicore-coverage"]},"status":"active","beneficiary":{"reference":"Patient/7fafc4ad-74d9-48e7-b12e-d51a11030a14"},"payor":[{"reference":"Organization/26111c91-b0e2-476c-a20b-e3f39799f8f5"}]},"request":{"method":"PUT","url":"Coverage/bb72ebb2-0a46-415c-8ff0-2dd18afac25c"}},{"fullUrl":"https://madie.cms.gov/Coverage/6846813516441","resource":{"resourceType":"Coverage","id":"89ec69d5-2548-4e38-863a-38d8fa520355","meta":{"profile":["http://hl7.org/fhir/us/qicore/StructureDefinition/qicore-coverage"]},"identifier":[{"system":"http://benefitsinc.com/certificate","value":"12345"}],"status":"active","type":{"coding":[{"system":"https://nahdo.org/sopt","version":"9.2","code":"59","display":"Other Private Insurance"}]},"beneficiary":{"reference":"Patient/7fafc4ad-74d9-48e7-b12e-d51a11030a14"},"dependent":"0","relationship":{"coding":[{"system":"http://terminology.hl7.org/CodeSystem/subscriber-relationship","code":"self"}]},"period":{"start":"2015-05-23","end":"2025-05-23"},"payor":[{"reference":"Organization/26111c91-b0e2-476c-a20b-e3f39799f8f5"}],"order":9},"request":{"method":"PUT","url":"Coverage/89ec69d5-2548-4e38-863a-38d8fa520355"}},{"fullUrl":"https://madie.cms.gov/Practitioner/practitioner-123456","resource":{"resourceType":"Practitioner","id":"94d35e2b-e372-4f09-8d5e-7722482e5fbe","meta":{"profile":["http://hl7.org/fhir/us/qicore/StructureDefinition/qicore-practitioner"]},"identifier":[{"system":"http://hl7.org/fhir/sid/us-npi","value":"123456"}],"name":[{"family":"Evil","prefix":["Dr"]}]},"request":{"method":"PUT","url":"Practitioner/94d35e2b-e372-4f09-8d5e-7722482e5fbe"}},{"fullUrl":"https://madie.cms.gov/MeasureReport/1339a952-0f45-44a4-9b60-01d1f1a74bcf","resource":{"resourceType":"MeasureReport","id":"1339a952-0f45-44a4-9b60-01d1f1a74bcf","meta":{"profile":["http://hl7.org/fhir/us/cqfmeasures/StructureDefinition/test-case-cqfm"]},"contained":[{"resourceType":"Parameters","id":"1da67e70-a7a9-4357-bf78-8d4a8c63fa7e-parameters","parameter":[{"name":"subject","valueString":"7fafc4ad-74d9-48e7-b12e-d51a11030a14"}]}],"extension":[{"url":"http://hl7.org/fhir/us/cqfmeasures/StructureDefinition/cqfm-inputParameters","valueReference":{"reference":"#1da67e70-a7a9-4357-bf78-8d4a8c63fa7e-parameters"}},{"url":"http://hl7.org/fhir/us/cqfmeasures/StructureDefinition/cqfm-testCaseDescription","valueMarkdown":"Patient is over 13 years old and has multiple encounters during the MP and has all three lab tests during the MP"}],"modifierExtension":[{"url":"http://hl7.org/fhir/us/cqfmeasures/StructureDefinition/cqfm-isTestCase","valueBoolean":true}],"status":"complete","type":"individual","measure":"https://madie.cms.gov/Measure/HIVSTITestingFHIR","period":{"start":"2025-01-01","end":"2025-12-31"},"group":[{"population":[{"code":{"coding":[{"system":"http://terminology.hl7.org/CodeSystem/measure-population","code":"initial-population","display":"Initial Population"}]},"count":1},{"code":{"coding":[{"system":"http://terminology.hl7.org/CodeSystem/measure-population","code":"denominator","display":"Denominator"}]},"count":1},{"code":{"coding":[{"system":"http://terminology.hl7.org/CodeSystem/measure-population","code":"numerator","display":"Numerator"}]},"count":1}]}]},"request":{"method":"PUT","url":"MeasureReport/1339a952-0f45-44a4-9b60-01d1f1a74bcf"}}]}