{
  "resourceType": "Bundle",
  "id": "63d962f17a195f4975f00628",
  "type": "transaction",
  "entry": [ {
    "fullUrl": "https://madie.cms.gov/Patient/827b2df0-8ceb-4e95-8f5d-ebc96919d107",
    "resource": {
      "resourceType": "Patient",
      "id": "827b2df0-8ceb-4e95-8f5d-ebc96919d107",
      "meta": {
        "profile": [ "http://hl7.org/fhir/us/qicore/StructureDefinition/qicore-patient" ]
      },
      "extension": [ {
        "url": "http://hl7.org/fhir/us/core/StructureDefinition/us-core-race",
        "extension": [ {
          "url": "ombCategory",
          "valueCoding": {
            "system": "urn:oid:2.16.840.1.113883.6.238",
            "code": "2028-9",
            "display": "Asian",
            "userSelected": true
          }
        }, {
          "url": "text",
          "valueString": "Asian"
        } ]
      }, {
        "url": "http://hl7.org/fhir/us/core/StructureDefinition/us-core-ethnicity",
        "extension": [ {
          "url": "ombCategory",
          "valueCoding": {
            "system": "urn:oid:2.16.840.1.113883.6.238",
            "code": "2186-5",
            "display": "Not Hispanic or Latino",
            "userSelected": true
          }
        }, {
          "url": "text",
          "valueString": "Not Hispanic or Latino"
        } ]
      } ],
      "identifier": [ {
        "type": {
          "coding": [ {
            "system": "http://terminology.hl7.org/CodeSystem/v2-0203",
            "code": "MR"
          } ]
        },
        "system": "https://bonnie-fhir.healthit.gov/",
        "value": "63d962f17a195f4975f00628"
      } ],
      "name": [ {
        "family": "DENEXPass",
        "given": [ "EncounterWithCovid" ]
      } ],
      "gender": "female",
      "birthDate": "1961-08-19"
    },
    "request": {
      "method": "POST",
      "url": "Patient/827b2df0-8ceb-4e95-8f5d-ebc96919d107"
    }
  }, {
    "fullUrl": "https://madie.cms.gov/Encounter/encounter-inpatient-0629",
    "resource": {
      "resourceType": "Encounter",
      "id": "encounter-inpatient-0629",
      "meta": {
        "profile": [ "http://hl7.org/fhir/us/qicore/StructureDefinition/qicore-encounter" ]
      },
      "status": "finished",
      "class": {
        "system": "http://terminology.hl7.org/CodeSystem/v3-ActCode",
        "code": "IMP",
        "display": "inpatient encounter"
      },
      "type": [ {
        "coding": [ {
          "system": "http://snomed.info/sct",
          "version": "2022-09",
          "code": "183452005",
          "display": "Emergency hospital admission (procedure)",
          "userSelected": true
        } ]
      } ],
      "subject": {
        "reference": "Patient/827b2df0-8ceb-4e95-8f5d-ebc96919d107"
      },
      "period": {
        "start": "2025-01-31T08:00:00.000+00:00",
        "end": "2025-02-03T08:15:00.000+00:00"
      },
      "diagnosis": [ {
        "condition": {
          "reference": "Condition/covid-19-cdcc"
        }
      } ]
    },
    "request": {
      "method": "POST",
      "url": "Encounter/encounter-inpatient-0629"
    }
  }, {
    "fullUrl": "https://madie.cms.gov/Organization/Organization-2",
    "resource": {
      "resourceType": "Organization",
      "id": "Organization-2",
      "meta": {
        "profile": [ "http://hl7.org/fhir/us/qicore/StructureDefinition/qicore-organization" ]
      },
      "identifier": [ {
        "use": "temp",
        "system": "urn:oid:2.16.840.1.113883.4.336",
        "value": "APayer"
      } ],
      "active": true,
      "type": [ {
        "coding": [ {
          "system": "http://terminology.hl7.org/CodeSystem/organization-type",
          "code": "pay",
          "display": "Payer"
        } ],
        "text": "Healthcare Payer"
      } ],
      "name": "Test Medical Center",
      "telecom": [ {
        "system": "phone",
        "value": "(+1) 800-123-4567"
      }, {
        "system": "email",
        "value": "mypayer@test.org"
      } ],
      "address": [ {
        "line": [ "600 Maple Avenue" ],
        "city": "Indianapolis",
        "state": "IN",
        "postalCode": "46237",
        "country": "USA"
      } ]
    },
    "request": {
      "method": "POST",
      "url": "Organization/Organization-2"
    }
  }, {
    "fullUrl": "https://madie.cms.gov/Condition/covid-19-cdcc",
    "resource": {
      "resourceType": "Condition",
      "id": "covid-19-cdcc",
      "meta": {
        "profile": [ "http://hl7.org/fhir/us/qicore/StructureDefinition/qicore-condition" ]
      },
      "category": [ {
        "coding": [ {
          "system": "http://terminology.hl7.org/CodeSystem/condition-category",
          "code": "encounter-diagnosis",
          "display": "Encounter Diagnosis"
        } ]
      } ],
      "code": {
        "coding": [ {
          "system": "http://snomed.info/sct",
          "version": "2022-09",
          "code": "1017214008",
          "display": "Viremia caused by severe acute respiratory syndrome coronavirus 2 (disorder)",
          "userSelected": true
        } ]
      },
      "subject": {
        "reference": "Patient/827b2df0-8ceb-4e95-8f5d-ebc96919d107"
      },
      "recordedDate": "2025-03-15T08:00:00.000+00:00"
    },
    "request": {
      "method": "POST",
      "url": "Condition/covid-19-cdcc"
    }
  }, {
    "fullUrl": "https://madie.cms.gov/MeasureReport/ba6781a4-e632-4bc3-944e-e66bd86b3826",
    "resource": {
      "resourceType": "MeasureReport",
      "id": "ba6781a4-e632-4bc3-944e-e66bd86b3826",
      "meta": {
        "profile": [ "http://hl7.org/fhir/us/cqfmeasures/StructureDefinition/test-case-cqfm" ]
      },
      "contained": [ {
        "resourceType": "Parameters",
        "id": "b968ee67-43b0-4ca0-ac4d-2b40f5c9348c-parameters",
        "parameter": [ {
          "name": "subject",
          "valueString": "827b2df0-8ceb-4e95-8f5d-ebc96919d107"
        } ]
      } ],
      "extension": [ {
        "url": "http://hl7.org/fhir/us/cqfmeasures/StructureDefinition/cqfm-inputParameters",
        "valueReference": {
          "reference": "#b968ee67-43b0-4ca0-ac4d-2b40f5c9348c-parameters"
        }
      }, {
        "url": "http://hl7.org/fhir/us/cqfmeasures/StructureDefinition/cqfm-testCaseDescription",
        "valueMarkdown": "Inpatient encounter with COVID encounter diagnosis. Meets denominator exclusion."
      } ],
      "modifierExtension": [ {
        "url": "http://hl7.org/fhir/us/cqfmeasures/StructureDefinition/cqfm-isTestCase",
        "valueBoolean": true
      } ],
      "status": "complete",
      "type": "individual",
      "measure": "https://madie.cms.gov/Measure/HospitalHarmPressureInjuryFHIR",
      "period": {
        "start": "2025-01-01",
        "end": "2025-12-31"
      },
      "group": [ {
        "population": [ {
          "code": {
            "coding": [ {
              "system": "http://terminology.hl7.org/CodeSystem/measure-population",
              "code": "initial-population",
              "display": "Initial Population"
            } ]
          },
          "count": 1
        }, {
          "code": {
            "coding": [ {
              "system": "http://terminology.hl7.org/CodeSystem/measure-population",
              "code": "denominator",
              "display": "Denominator"
            } ]
          },
          "count": 1
        }, {
          "code": {
            "coding": [ {
              "system": "http://terminology.hl7.org/CodeSystem/measure-population",
              "code": "denominator-exclusion",
              "display": "Denominator Exclusion"
            } ]
          },
          "count": 1
        }, {
          "code": {
            "coding": [ {
              "system": "http://terminology.hl7.org/CodeSystem/measure-population",
              "code": "numerator",
              "display": "Numerator"
            } ]
          },
          "count": 0
        } ]
      } ],
      "evaluatedResource": [ {
        "reference": "https://madie.cms.gov/Patient/827b2df0-8ceb-4e95-8f5d-ebc96919d107"
      }, {
        "reference": "https://madie.cms.gov/Encounter/encounter-inpatient-0629"
      }, {
        "reference": "https://madie.cms.gov/Organization/Organization-2"
      }, {
        "reference": "https://madie.cms.gov/Condition/covid-19-cdcc"
      } ]
    },
    "request": {
      "method": "POST",
      "url": "MeasureReport/ba6781a4-e632-4bc3-944e-e66bd86b3826"
    }
  } ]
}