{
  "resourceType": "Bundle",
  "id": "641362744b11b147841ab893",
  "type": "transaction",
  "entry": [ {
    "fullUrl": "https://madie.cms.gov/Patient/c13a82b6-fb44-4fc7-befd-d762b9fafa97",
    "resource": {
      "resourceType": "Patient",
      "id": "c13a82b6-fb44-4fc7-befd-d762b9fafa97",
      "meta": {
        "profile": [ "http://hl7.org/fhir/us/qicore/StructureDefinition/qicore-patient" ]
      },
      "extension": [ {
        "url": "http://hl7.org/fhir/us/core/StructureDefinition/us-core-race",
        "extension": [ {
          "url": "ombCategory",
          "valueCoding": {
            "system": "urn:oid:2.16.840.1.113883.6.238",
            "code": "1002-5",
            "display": "American Indian or Alaska Native",
            "userSelected": true
          }
        }, {
          "url": "text",
          "valueString": "American Indian or Alaska Native"
        }, {
          "url": "detailed",
          "valueCoding": {
            "system": "urn:oid:2.16.840.1.113883.6.238",
            "code": "1653-5",
            "display": "Tohono O'Odham"
          }
        } ]
      }, {
        "url": "http://hl7.org/fhir/us/core/StructureDefinition/us-core-ethnicity",
        "extension": [ {
          "url": "ombCategory",
          "valueCoding": {
            "system": "urn:oid:2.16.840.1.113883.6.238",
            "code": "2135-2",
            "display": "Hispanic or Latino",
            "userSelected": true
          }
        }, {
          "url": "text",
          "valueString": "Not Hispanic or Latino"
        }, {
          "url": "detailed",
          "valueCoding": {
            "system": "urn:oid:2.16.840.1.113883.6.238",
            "code": "2153-5",
            "display": "Mexican American Indian"
          }
        } ]
      } ],
      "identifier": [ {
        "type": {
          "coding": [ {
            "system": "http://terminology.hl7.org/CodeSystem/v2-0203",
            "code": "MR"
          } ]
        },
        "system": "https://bonnie-fhir.healthit.gov/",
        "value": "641362744b11b147841ab893"
      } ],
      "name": [ {
        "family": "DENEXFail",
        "given": [ "CKDStage5OutofMP" ]
      } ],
      "gender": "male",
      "birthDate": "1939-10-19"
    },
    "request": {
      "method": "POST",
      "url": "Patient/c13a82b6-fb44-4fc7-befd-d762b9fafa97"
    }
  }, {
    "fullUrl": "https://madie.cms.gov/Condition/diabetes-b894",
    "resource": {
      "resourceType": "Condition",
      "id": "diabetes-b894",
      "meta": {
        "profile": [ "http://hl7.org/fhir/us/qicore/StructureDefinition/qicore-condition" ]
      },
      "clinicalStatus": {
        "coding": [ {
          "system": "http://terminology.hl7.org/CodeSystem/condition-clinical",
          "code": "active",
          "display": "active",
          "userSelected": true
        } ]
      },
      "category": [ {
        "coding": [ {
          "system": "http://terminology.hl7.org/CodeSystem/condition-category",
          "code": "problem-list-item",
          "display": "problem-list-item",
          "userSelected": true
        } ]
      } ],
      "code": {
        "coding": [ {
          "system": "http://snomed.info/sct",
          "version": "2021-09",
          "code": "102781000119107",
          "display": "Sensory neuropathy due to type 1 diabetes mellitus (disorder)",
          "userSelected": true
        } ]
      },
      "subject": {
        "reference": "Patient/c13a82b6-fb44-4fc7-befd-d762b9fafa97"
      },
      "onsetDateTime": "2012-12-31T08:00:00.000+00:00"
    },
    "request": {
      "method": "POST",
      "url": "Condition/diabetes-b894"
    }
  }, {
    "fullUrl": "https://madie.cms.gov/Encounter/preventive-care-services-established-office-visit-18-and-up-b895",
    "resource": {
      "resourceType": "Encounter",
      "id": "preventive-care-services-established-office-visit-18-and-up-b895",
      "meta": {
        "profile": [ "http://hl7.org/fhir/us/qicore/StructureDefinition/qicore-encounter" ]
      },
      "status": "finished",
      "class": {
        "system": "http://terminology.hl7.org/CodeSystem/v3-ActCode",
        "code": "AMB",
        "display": "ambulatory",
        "userSelected": true
      },
      "type": [ {
        "coding": [ {
          "system": "http://www.ama-assn.org/go/cpt",
          "version": "2021",
          "code": "99395",
          "display": "Periodic comprehensive preventive medicine reevaluation and management of an individual including an age and gender appropriate history, examination, counseling/anticipatory guidance/risk factor reduction interventions, and the ordering of laboratory/diagnostic procedures, established patient; 18-39 years",
          "userSelected": true
        } ]
      } ],
      "subject": {
        "reference": "Patient/c13a82b6-fb44-4fc7-befd-d762b9fafa97"
      },
      "period": {
        "start": "2025-01-04T08:00:00.000+00:00",
        "end": "2025-01-04T08:15:00.000+00:00"
      }
    },
    "request": {
      "method": "POST",
      "url": "Encounter/preventive-care-services-established-office-visit-18-and-up-b895"
    }
  }, {
    "fullUrl": "https://madie.cms.gov/Coverage/coverage-chronic-kidney-disease-stage-5-b896",
    "resource": {
      "resourceType": "Coverage",
      "id": "coverage-chronic-kidney-disease-stage-5-b896",
      "meta": {
        "profile": [ "http://hl7.org/fhir/us/qicore/StructureDefinition/qicore-coverage" ]
      },
      "status": "active",
      "type": {
        "coding": [ {
          "system": "https://nahdo.org/sopt",
          "code": "1",
          "display": "MEDICARE"
        } ]
      },
      "beneficiary": {
        "reference": "Patient/c13a82b6-fb44-4fc7-befd-d762b9fafa97"
      },
      "period": {
        "start": "2023-12-01T00:00:00+00:00"
      },
      "payor": [ {
        "reference": "Organization/chronic-kidney-disease-stage-5-b896"
      } ]
    },
    "request": {
      "method": "POST",
      "url": "Coverage/coverage-chronic-kidney-disease-stage-5-b896"
    }
  }, {
    "fullUrl": "https://madie.cms.gov/Organization/123456",
    "resource": {
      "resourceType": "Organization",
      "id": "123456",
      "meta": {
        "profile": [ "http://hl7.org/fhir/us/qicore/StructureDefinition/qicore-organization" ]
      },
      "identifier": [ {
        "use": "temp",
        "system": "urn:oid:2.16.840.1.113883.4.4",
        "value": "21-3259825"
      } ],
      "active": true,
      "type": [ {
        "coding": [ {
          "system": "http://terminology.hl7.org/CodeSystem/organization-type",
          "code": "pay",
          "display": "Payer"
        } ]
      } ],
      "name": "Blue Cross Blue Shield of Texas",
      "telecom": [ {
        "system": "phone",
        "value": "(+1) 972-766-6900"
      } ],
      "address": [ {
        "use": "billing",
        "type": "postal",
        "line": [ "P.O. Box 660044" ],
        "city": "Dallas",
        "state": "TX",
        "postalCode": "75266-0044",
        "country": "USA"
      } ]
    },
    "request": {
      "method": "POST",
      "url": "Organization/123456"
    }
  }, {
    "fullUrl": "https://madie.cms.gov/Condition/chronic-kidney-disease-stage-5-b896",
    "resource": {
      "resourceType": "Condition",
      "id": "chronic-kidney-disease-stage-5-b896",
      "meta": {
        "profile": [ "http://hl7.org/fhir/us/qicore/StructureDefinition/qicore-condition" ]
      },
      "clinicalStatus": {
        "coding": [ {
          "system": "http://terminology.hl7.org/CodeSystem/condition-clinical",
          "code": "active",
          "display": "active",
          "userSelected": true
        } ]
      },
      "category": [ {
        "coding": [ {
          "system": "http://terminology.hl7.org/CodeSystem/condition-category",
          "code": "problem-list-item",
          "display": "problem-list-item",
          "userSelected": true
        } ]
      } ],
      "code": {
        "coding": [ {
          "system": "http://snomed.info/sct",
          "version": "2021-09",
          "code": "433146000",
          "display": "Chronic kidney disease stage 5 (disorder)",
          "userSelected": true
        } ]
      },
      "subject": {
        "reference": "Patient/c13a82b6-fb44-4fc7-befd-d762b9fafa97"
      },
      "onsetDateTime": "2026-03-16T08:00:00.000+00:00"
    },
    "request": {
      "method": "POST",
      "url": "Condition/chronic-kidney-disease-stage-5-b896"
    }
  }, {
    "fullUrl": "https://madie.cms.gov/MeasureReport/26cc83a1-109a-4f83-9962-007e516f3646",
    "resource": {
      "resourceType": "MeasureReport",
      "id": "26cc83a1-109a-4f83-9962-007e516f3646",
      "meta": {
        "profile": [ "http://hl7.org/fhir/us/cqfmeasures/StructureDefinition/test-case-cqfm" ]
      },
      "contained": [ {
        "resourceType": "Parameters",
        "id": "f484e9dc-a5f5-45d3-b41b-cc257da4f1c2-parameters",
        "parameter": [ {
          "name": "subject",
          "valueString": "c13a82b6-fb44-4fc7-befd-d762b9fafa97"
        } ]
      } ],
      "extension": [ {
        "url": "http://hl7.org/fhir/us/cqfmeasures/StructureDefinition/cqfm-inputParameters",
        "valueReference": {
          "reference": "#f484e9dc-a5f5-45d3-b41b-cc257da4f1c2-parameters"
        }
      }, {
        "url": "http://hl7.org/fhir/us/cqfmeasures/StructureDefinition/cqfm-testCaseDescription",
        "valueMarkdown": "This patient is 85 years old with a qualifying encounter and active diabetes diagnosis, with a diagnosis of chronic kidney disease, stage 5 as well but diagnosed after MP. This case test the denominator exclusion criteria."
      } ],
      "modifierExtension": [ {
        "url": "http://hl7.org/fhir/us/cqfmeasures/StructureDefinition/cqfm-isTestCase",
        "valueBoolean": true
      } ],
      "status": "complete",
      "type": "individual",
      "measure": "https://madie.cms.gov/Measure/KidneyHealthEvaluationFHIR",
      "period": {
        "start": "2025-01-01",
        "end": "2025-12-31"
      },
      "group": [ {
        "population": [ {
          "code": {
            "coding": [ {
              "system": "http://terminology.hl7.org/CodeSystem/measure-population",
              "code": "initial-population",
              "display": "Initial Population"
            } ]
          },
          "count": 1
        }, {
          "code": {
            "coding": [ {
              "system": "http://terminology.hl7.org/CodeSystem/measure-population",
              "code": "denominator",
              "display": "Denominator"
            } ]
          },
          "count": 1
        }, {
          "code": {
            "coding": [ {
              "system": "http://terminology.hl7.org/CodeSystem/measure-population",
              "code": "denominator-exclusion",
              "display": "Denominator Exclusion"
            } ]
          },
          "count": 0
        }, {
          "code": {
            "coding": [ {
              "system": "http://terminology.hl7.org/CodeSystem/measure-population",
              "code": "numerator",
              "display": "Numerator"
            } ]
          },
          "count": 0
        } ]
      } ],
      "evaluatedResource": [ {
        "reference": "Patient/c13a82b6-fb44-4fc7-befd-d762b9fafa97"
      }, {
        "reference": "Condition/diabetes-b894"
      }, {
        "reference": "Encounter/preventive-care-services-established-office-visit-18-and-up-b895"
      }, {
        "reference": "Coverage/coverage-chronic-kidney-disease-stage-5-b896"
      }, {
        "reference": "Organization/123456"
      }, {
        "reference": "Condition/chronic-kidney-disease-stage-5-b896"
      } ]
    },
    "request": {
      "method": "POST",
      "url": "MeasureReport/26cc83a1-109a-4f83-9962-007e516f3646"
    }
  } ]
}