{"resourceType":"Bundle","id":"tests-5f205f02-5010-4195-a45a-6f2536e32255-bundle","type":"transaction","entry":[{"fullUrl":"https://madie.cms.gov/Patient/5f205f02-5010-4195-a45a-6f2536e32255","resource":{"resourceType":"Patient","id":"5f205f02-5010-4195-a45a-6f2536e32255","meta":{"profile":["http://hl7.org/fhir/us/qicore/StructureDefinition/qicore-patient"]},"extension":[{"url":"http://hl7.org/fhir/us/core/StructureDefinition/us-core-race","extension":[{"url":"ombCategory","valueCoding":{"system":"urn:oid:2.16.840.1.113883.6.238","code":"2028-9","display":"Asian"}},{"url":"text","valueString":"Asian"}]},{"url":"http://hl7.org/fhir/us/core/StructureDefinition/us-core-ethnicity","extension":[{"url":"ombCategory","valueCoding":{"system":"urn:oid:2.16.840.1.113883.6.238","code":"2135-2","display":"Hispanic or Latino"}},{"url":"text","valueString":"Hispanic or Latino"}]}],"identifier":[{"system":"http://hospital.smarthealthit.org","value":"999999995"}],"name":[{"family":"Bertha","given":["Betty"]}],"gender":"female","birthDate":"2007-01-01"},"request":{"method":"PUT","url":"Patient/5f205f02-5010-4195-a45a-6f2536e32255"}},{"fullUrl":"https://madie.cms.gov/Encounter/Encounter-41","resource":{"resourceType":"Encounter","id":"87f7b944-829d-44dc-9317-9d67174bf9cf","meta":{"profile":["http://hl7.org/fhir/us/qicore/StructureDefinition/qicore-encounter"]},"status":"finished","class":{"system":"http://terminology.hl7.org/CodeSystem/v3-ActCode","code":"AMB","display":"ambulatory"},"type":[{"coding":[{"system":"http://snomed.info/sct","code":"185317003","display":"Telephone encounter (procedure)"}]}],"subject":{"reference":"Patient/5f205f02-5010-4195-a45a-6f2536e32255"},"period":{"start":"2025-01-01T01:00:00.000Z","end":"2025-01-01T01:15:00.000Z"}},"request":{"method":"PUT","url":"Encounter/87f7b944-829d-44dc-9317-9d67174bf9cf"}},{"fullUrl":"https://madie.cms.gov/Encounter/Encounter-42","resource":{"resourceType":"Encounter","id":"835adfe8-1711-49ee-af62-d1558f5253d7","meta":{"profile":["http://hl7.org/fhir/us/qicore/StructureDefinition/qicore-encounter"]},"status":"finished","class":{"system":"http://terminology.hl7.org/CodeSystem/v3-ActCode","code":"AMB","display":"ambulatory"},"type":[{"coding":[{"system":"http://snomed.info/sct","code":"185317003","display":"Telephone encounter (procedure)"}]}],"subject":{"reference":"Patient/5f205f02-5010-4195-a45a-6f2536e32255"},"period":{"start":"2025-01-02T01:00:00.000Z","end":"2025-01-02T01:15:00.000Z"}},"request":{"method":"PUT","url":"Encounter/835adfe8-1711-49ee-af62-d1558f5253d7"}},{"fullUrl":"https://madie.cms.gov/Condition/Condition-20","resource":{"resourceType":"Condition","id":"f4a730da-63c6-4927-8ccc-33c7e4691f25","meta":{"profile":["http://hl7.org/fhir/us/qicore/StructureDefinition/qicore-condition"]},"clinicalStatus":{"coding":[{"system":"http://terminology.hl7.org/CodeSystem/condition-clinical","code":"active"}]},"category":[{"coding":[{"system":"http://terminology.hl7.org/CodeSystem/condition-category","code":"problem-list-item","display":"Problem List Item"}]}],"code":{"coding":[{"system":"http://snomed.info/sct","code":"10091002","display":"High output heart failure (disorder)"}]},"subject":{"reference":"Patient/5f205f02-5010-4195-a45a-6f2536e32255"},"onsetDateTime":"2024-12-31T23:59:00.000Z"},"request":{"method":"PUT","url":"Condition/f4a730da-63c6-4927-8ccc-33c7e4691f25"}},{"fullUrl":"https://madie.cms.gov/Observation/Observation-61","resource":{"resourceType":"Observation","id":"3411f791-8a17-4bed-bc56-82117f33faf9","meta":{"profile":["http://hl7.org/fhir/us/qicore/StructureDefinition/qicore-observation"]},"status":"final","category":[{"coding":[{"system":"http://terminology.hl7.org/CodeSystem/observation-category","code":"survey","display":"survey"}],"text":"survey"}],"code":{"coding":[{"system":"http://loinc.org","code":"85609-6","display":"Physical score [MLHFQ]"}]},"subject":{"reference":"Patient/5f205f02-5010-4195-a45a-6f2536e32255"},"effectivePeriod":{"start":"2025-01-01T23:00:00.000Z","end":"2025-01-01T23:59:00.000Z"},"valueInteger":4},"request":{"method":"PUT","url":"Observation/3411f791-8a17-4bed-bc56-82117f33faf9"}},{"fullUrl":"https://madie.cms.gov/Observation/Observation-62","resource":{"resourceType":"Observation","id":"065f7bdc-1a34-452b-8df8-fb092bcac5e2","meta":{"profile":["http://hl7.org/fhir/us/qicore/StructureDefinition/qicore-observation"]},"status":"final","category":[{"coding":[{"system":"http://terminology.hl7.org/CodeSystem/observation-category","code":"survey","display":"survey"}],"text":"survey"}],"code":{"coding":[{"system":"http://loinc.org","code":"85609-6","display":"Physical score [MLHFQ]"}]},"subject":{"reference":"Patient/5f205f02-5010-4195-a45a-6f2536e32255"},"effectivePeriod":{"start":"2025-06-30T23:00:00.000Z","end":"2025-06-30T23:59:00.000Z"},"valueInteger":4},"request":{"method":"PUT","url":"Observation/065f7bdc-1a34-452b-8df8-fb092bcac5e2"}},{"fullUrl":"https://madie.cms.gov/Observation/Observation-63","resource":{"resourceType":"Observation","id":"cfaf74b4-8881-4709-8100-f12c28218bbd","meta":{"profile":["http://hl7.org/fhir/us/qicore/StructureDefinition/qicore-observation"]},"status":"final","category":[{"coding":[{"system":"http://terminology.hl7.org/CodeSystem/observation-category","code":"survey","display":"survey"}],"text":"survey"}],"code":{"coding":[{"system":"http://loinc.org","code":"85618-7","display":"Emotional score [MLHFQ]"}]},"subject":{"reference":"Patient/5f205f02-5010-4195-a45a-6f2536e32255"},"effectivePeriod":{"start":"2025-01-01T23:00:00.000Z","end":"2025-01-01T23:59:00.000Z"},"valueInteger":4},"request":{"method":"PUT","url":"Observation/cfaf74b4-8881-4709-8100-f12c28218bbd"}},{"fullUrl":"https://madie.cms.gov/Observation/Observation-64","resource":{"resourceType":"Observation","id":"94909bfa-25df-468c-b09c-0b06f61f3c7a","meta":{"profile":["http://hl7.org/fhir/us/qicore/StructureDefinition/qicore-observation"]},"status":"final","category":[{"coding":[{"system":"http://terminology.hl7.org/CodeSystem/observation-category","code":"survey","display":"survey"}],"text":"survey"}],"code":{"coding":[{"system":"http://loinc.org","code":"85618-7","display":"Emotional score [MLHFQ]"}]},"subject":{"reference":"Patient/5f205f02-5010-4195-a45a-6f2536e32255"},"effectivePeriod":{"start":"2025-05-30T23:00:00.000Z","end":"2025-05-30T23:59:00.000Z"},"valueInteger":4},"request":{"method":"PUT","url":"Observation/94909bfa-25df-468c-b09c-0b06f61f3c7a"}},{"fullUrl":"https://madie.cms.gov/MeasureReport/ee35798b-1c0d-436e-9d7c-4f42fc2d6f42","resource":{"resourceType":"MeasureReport","id":"ee35798b-1c0d-436e-9d7c-4f42fc2d6f42","meta":{"profile":["http://hl7.org/fhir/us/cqfmeasures/StructureDefinition/test-case-cqfm"]},"contained":[{"resourceType":"Parameters","id":"ca17be74-d452-445d-a109-164b119e888c-parameters","parameter":[{"name":"subject","valueString":"5f205f02-5010-4195-a45a-6f2536e32255"}]}],"extension":[{"url":"http://hl7.org/fhir/us/cqfmeasures/StructureDefinition/cqfm-inputParameters","valueReference":{"reference":"#ca17be74-d452-445d-a109-164b119e888c-parameters"}},{"url":"http://hl7.org/fhir/us/cqfmeasures/StructureDefinition/cqfm-testCaseDescription","valueMarkdown":"Patient has all KCCQ12 with results but one follow up occurs 181 days after initial follow up."}],"modifierExtension":[{"url":"http://hl7.org/fhir/us/cqfmeasures/StructureDefinition/cqfm-isTestCase","valueBoolean":true}],"status":"complete","type":"individual","measure":"https://madie.cms.gov/Measure/FunctionalStatusAssessmentsforHeartFailureFHIR","period":{"start":"2025-01-01","end":"2025-12-31"},"group":[{"population":[{"code":{"coding":[{"system":"http://terminology.hl7.org/CodeSystem/measure-population","code":"initial-population","display":"Initial Population"}]},"count":1},{"code":{"coding":[{"system":"http://terminology.hl7.org/CodeSystem/measure-population","code":"denominator","display":"Denominator"}]},"count":1},{"code":{"coding":[{"system":"http://terminology.hl7.org/CodeSystem/measure-population","code":"denominator-exclusion","display":"Denominator Exclusion"}]},"count":0},{"code":{"coding":[{"system":"http://terminology.hl7.org/CodeSystem/measure-population","code":"numerator","display":"Numerator"}]},"count":0}]}]},"request":{"method":"PUT","url":"MeasureReport/ee35798b-1c0d-436e-9d7c-4f42fc2d6f42"}}]}