{"resourceType":"Bundle","id":"tests-6ae39591-1119-4753-ab8e-e81f448d766d-bundle","type":"transaction","entry":[{"fullUrl":"https://madie.cms.gov/Patient/6ae39591-1119-4753-ab8e-e81f448d766d","resource":{"resourceType":"Patient","id":"6ae39591-1119-4753-ab8e-e81f448d766d","meta":{"profile":["http://hl7.org/fhir/us/qicore/StructureDefinition/qicore-patient"]},"extension":[{"url":"http://hl7.org/fhir/us/core/StructureDefinition/us-core-race","extension":[{"url":"ombCategory","valueCoding":{"system":"urn:oid:2.16.840.1.113883.6.238","code":"2028-9","display":"Asian"}},{"url":"text","valueString":"Asian"}]},{"url":"http://hl7.org/fhir/us/core/StructureDefinition/us-core-ethnicity","extension":[{"url":"ombCategory","valueCoding":{"system":"urn:oid:2.16.840.1.113883.6.238","code":"2135-2","display":"Hispanic or Latino"}},{"url":"text","valueString":"Hispanic or Latino"}]}],"identifier":[{"system":"http://hospital.smarthealthit.org","value":"999999995"}],"name":[{"family":"Bertha","given":["Betty"]}],"gender":"female","birthDate":"2007-01-01"},"request":{"method":"PUT","url":"Patient/6ae39591-1119-4753-ab8e-e81f448d766d"}},{"fullUrl":"https://madie.cms.gov/Encounter/Encounter-53","resource":{"resourceType":"Encounter","id":"490a4ba1-ff79-4867-a56b-740f8a042e60","meta":{"profile":["http://hl7.org/fhir/us/qicore/StructureDefinition/qicore-encounter"]},"status":"finished","class":{"system":"http://terminology.hl7.org/CodeSystem/v3-ActCode","code":"AMB","display":"ambulatory"},"type":[{"coding":[{"system":"http://snomed.info/sct","code":"185317003","display":"Telephone encounter (procedure)"}]}],"subject":{"reference":"Patient/6ae39591-1119-4753-ab8e-e81f448d766d"},"period":{"start":"2025-01-01T01:00:00.000Z","end":"2025-01-01T01:15:00.000Z"}},"request":{"method":"PUT","url":"Encounter/490a4ba1-ff79-4867-a56b-740f8a042e60"}},{"fullUrl":"https://madie.cms.gov/Encounter/Encounter-54","resource":{"resourceType":"Encounter","id":"a01e1a16-f4a9-40dd-8d7d-bb3da0e2197c","meta":{"profile":["http://hl7.org/fhir/us/qicore/StructureDefinition/qicore-encounter"]},"status":"finished","class":{"system":"http://terminology.hl7.org/CodeSystem/v3-ActCode","code":"AMB","display":"ambulatory"},"type":[{"coding":[{"system":"http://snomed.info/sct","code":"185317003","display":"Telephone encounter (procedure)"}]}],"subject":{"reference":"Patient/6ae39591-1119-4753-ab8e-e81f448d766d"},"period":{"start":"2025-01-02T01:00:00.000Z","end":"2025-01-02T01:15:00.000Z"}},"request":{"method":"PUT","url":"Encounter/a01e1a16-f4a9-40dd-8d7d-bb3da0e2197c"}},{"fullUrl":"https://madie.cms.gov/Condition/Condition-25","resource":{"resourceType":"Condition","id":"4056c85e-3c80-4035-b045-e61b37fb0b7b","meta":{"profile":["http://hl7.org/fhir/us/qicore/StructureDefinition/qicore-condition"]},"clinicalStatus":{"coding":[{"system":"http://terminology.hl7.org/CodeSystem/condition-clinical","code":"active"}]},"category":[{"coding":[{"system":"http://terminology.hl7.org/CodeSystem/condition-category","code":"problem-list-item","display":"Problem List Item"}]}],"code":{"coding":[{"system":"http://snomed.info/sct","code":"10091002","display":"High output heart failure (disorder)"}]},"subject":{"reference":"Patient/6ae39591-1119-4753-ab8e-e81f448d766d"},"onsetDateTime":"2024-12-31T00:00:00.000Z"},"request":{"method":"PUT","url":"Condition/4056c85e-3c80-4035-b045-e61b37fb0b7b"}},{"fullUrl":"https://madie.cms.gov/Condition/Condition-26","resource":{"resourceType":"Condition","id":"c5c253fb-c3e0-4e8f-a148-88bdf096d6ed","meta":{"profile":["http://hl7.org/fhir/us/qicore/StructureDefinition/qicore-condition"]},"clinicalStatus":{"coding":[{"system":"http://terminology.hl7.org/CodeSystem/condition-clinical","code":"active"}]},"category":[{"coding":[{"system":"http://terminology.hl7.org/CodeSystem/condition-category","code":"problem-list-item","display":"Problem List Item"}]}],"code":{"coding":[{"system":"http://snomed.info/sct","code":"702956004","display":"Severe cognitive impairment (finding)"}]},"subject":{"reference":"Patient/6ae39591-1119-4753-ab8e-e81f448d766d"},"onsetDateTime":"2025-12-31T23:59:59.000Z"},"request":{"method":"PUT","url":"Condition/c5c253fb-c3e0-4e8f-a148-88bdf096d6ed"}},{"fullUrl":"https://madie.cms.gov/MeasureReport/f69d17e1-e6dc-4a2f-a27a-a7899e7f1cf1","resource":{"resourceType":"MeasureReport","id":"f69d17e1-e6dc-4a2f-a27a-a7899e7f1cf1","meta":{"profile":["http://hl7.org/fhir/us/cqfmeasures/StructureDefinition/test-case-cqfm"]},"contained":[{"resourceType":"Parameters","id":"6333845f-cd46-4aab-9c5f-16c332f9913b-parameters","parameter":[{"name":"subject","valueString":"6ae39591-1119-4753-ab8e-e81f448d766d"}]}],"extension":[{"url":"http://hl7.org/fhir/us/cqfmeasures/StructureDefinition/cqfm-inputParameters","valueReference":{"reference":"#6333845f-cd46-4aab-9c5f-16c332f9913b-parameters"}},{"url":"http://hl7.org/fhir/us/cqfmeasures/StructureDefinition/cqfm-testCaseDescription","valueMarkdown":"Patient has severe cognitive impairment during the MP."}],"modifierExtension":[{"url":"http://hl7.org/fhir/us/cqfmeasures/StructureDefinition/cqfm-isTestCase","valueBoolean":true}],"status":"complete","type":"individual","measure":"https://madie.cms.gov/Measure/FunctionalStatusAssessmentsforHeartFailureFHIR","period":{"start":"2025-01-01","end":"2025-12-31"},"group":[{"population":[{"code":{"coding":[{"system":"http://terminology.hl7.org/CodeSystem/measure-population","code":"initial-population","display":"Initial Population"}]},"count":1},{"code":{"coding":[{"system":"http://terminology.hl7.org/CodeSystem/measure-population","code":"denominator","display":"Denominator"}]},"count":1},{"code":{"coding":[{"system":"http://terminology.hl7.org/CodeSystem/measure-population","code":"denominator-exclusion","display":"Denominator Exclusion"}]},"count":1},{"code":{"coding":[{"system":"http://terminology.hl7.org/CodeSystem/measure-population","code":"numerator","display":"Numerator"}]},"count":0}]}]},"request":{"method":"PUT","url":"MeasureReport/f69d17e1-e6dc-4a2f-a27a-a7899e7f1cf1"}}]}