{"resourceType":"Bundle","id":"tests-0c9f039a-2055-4fc3-943c-79dadb0e5271-bundle","type":"transaction","entry":[{"fullUrl":"https://madie.cms.gov/Patient/0c9f039a-2055-4fc3-943c-79dadb0e5271","resource":{"resourceType":"Patient","id":"0c9f039a-2055-4fc3-943c-79dadb0e5271","meta":{"profile":["http://hl7.org/fhir/us/qicore/StructureDefinition/qicore-patient"]},"extension":[{"url":"http://hl7.org/fhir/us/core/StructureDefinition/us-core-race","extension":[{"url":"ombCategory","valueCoding":{"system":"urn:oid:2.16.840.1.113883.6.238","code":"2028-9","display":"Asian"}},{"url":"text","valueString":"Asian"}]},{"url":"http://hl7.org/fhir/us/core/StructureDefinition/us-core-ethnicity","extension":[{"url":"ombCategory","valueCoding":{"system":"urn:oid:2.16.840.1.113883.6.238","code":"2135-2","display":"Hispanic or Latino"}},{"url":"text","valueString":"Hispanic or Latino"}]}],"identifier":[{"system":"http://hospital.smarthealthit.org","value":"999999995"}],"name":[{"family":"Bertha","given":["Betty"]}],"gender":"female","birthDate":"2007-01-01"},"request":{"method":"PUT","url":"Patient/0c9f039a-2055-4fc3-943c-79dadb0e5271"}},{"fullUrl":"https://madie.cms.gov/Encounter/Encounter-24","resource":{"resourceType":"Encounter","id":"e417100b-942d-42b5-9501-8eebdd242042","meta":{"profile":["http://hl7.org/fhir/us/qicore/StructureDefinition/qicore-encounter"]},"status":"finished","class":{"system":"http://terminology.hl7.org/CodeSystem/v3-ActCode","code":"AMB","display":"ambulatory"},"type":[{"coding":[{"system":"http://snomed.info/sct","code":"185317003","display":"Telephone encounter (procedure)"}]}],"subject":{"reference":"Patient/0c9f039a-2055-4fc3-943c-79dadb0e5271"},"period":{"start":"2025-01-01T01:00:00.000Z","end":"2025-01-01T01:15:00.000Z"}},"request":{"method":"PUT","url":"Encounter/e417100b-942d-42b5-9501-8eebdd242042"}},{"fullUrl":"https://madie.cms.gov/Encounter/Encounter-25","resource":{"resourceType":"Encounter","id":"256332ba-39bc-43a1-83d4-99f2f24b6b1a","meta":{"profile":["http://hl7.org/fhir/us/qicore/StructureDefinition/qicore-encounter"]},"status":"finished","class":{"system":"http://terminology.hl7.org/CodeSystem/v3-ActCode","code":"AMB","display":"ambulatory"},"type":[{"coding":[{"system":"http://snomed.info/sct","code":"185317003","display":"Telephone encounter (procedure)"}]}],"subject":{"reference":"Patient/0c9f039a-2055-4fc3-943c-79dadb0e5271"},"period":{"start":"2025-01-02T01:00:00.000Z","end":"2025-01-02T01:15:00.000Z"}},"request":{"method":"PUT","url":"Encounter/256332ba-39bc-43a1-83d4-99f2f24b6b1a"}},{"fullUrl":"https://madie.cms.gov/Condition/Condition-12","resource":{"resourceType":"Condition","id":"b927ea44-b6a2-4c79-ae25-1b68fa3c9e2f","meta":{"profile":["http://hl7.org/fhir/us/qicore/StructureDefinition/qicore-condition"]},"clinicalStatus":{"coding":[{"system":"http://terminology.hl7.org/CodeSystem/condition-clinical","code":"active"}]},"category":[{"coding":[{"system":"http://terminology.hl7.org/CodeSystem/condition-category","code":"problem-list-item","display":"Problem List Item"}]}],"code":{"coding":[{"system":"http://snomed.info/sct","code":"10091002","display":"High output heart failure (disorder)"}]},"subject":{"reference":"Patient/0c9f039a-2055-4fc3-943c-79dadb0e5271"},"onsetDateTime":"2024-12-31T23:59:00.000Z"},"request":{"method":"PUT","url":"Condition/b927ea44-b6a2-4c79-ae25-1b68fa3c9e2f"}},{"fullUrl":"https://madie.cms.gov/Observation/Observation-34","resource":{"resourceType":"Observation","id":"1e99c3ea-0e65-4cfd-a0ce-fa97fcfad6f1","meta":{"profile":["http://hl7.org/fhir/us/qicore/StructureDefinition/qicore-observation"]},"status":"final","category":[{"coding":[{"system":"http://terminology.hl7.org/CodeSystem/observation-category","code":"survey","display":"survey"}],"text":"survey"}],"code":{"coding":[{"system":"http://loinc.org","code":"72008-6","display":"VR-36 Mental component summary (MCS) score - orthogonal method T-score"}]},"subject":{"reference":"Patient/0c9f039a-2055-4fc3-943c-79dadb0e5271"},"effectivePeriod":{"start":"2025-01-01T23:00:00.000Z","end":"2025-01-01T23:59:00.000Z"},"valueInteger":4},"request":{"method":"PUT","url":"Observation/1e99c3ea-0e65-4cfd-a0ce-fa97fcfad6f1"}},{"fullUrl":"https://madie.cms.gov/Observation/Observation-35","resource":{"resourceType":"Observation","id":"394a8403-6837-42ab-bf6d-1f0a1627b800","meta":{"profile":["http://hl7.org/fhir/us/qicore/StructureDefinition/qicore-observation"]},"status":"final","category":[{"coding":[{"system":"http://terminology.hl7.org/CodeSystem/observation-category","code":"survey","display":"survey"}],"text":"survey"}],"code":{"coding":[{"system":"http://loinc.org","code":"72008-6","display":"VR-36 Mental component summary (MCS) score - orthogonal method T-score"}]},"subject":{"reference":"Patient/0c9f039a-2055-4fc3-943c-79dadb0e5271"},"effectivePeriod":{"start":"2025-01-31T23:00:00.000Z","end":"2025-01-31T23:59:00.000Z"},"valueInteger":4},"request":{"method":"PUT","url":"Observation/394a8403-6837-42ab-bf6d-1f0a1627b800"}},{"fullUrl":"https://madie.cms.gov/Observation/Observation-36","resource":{"resourceType":"Observation","id":"cf44b3f1-b618-4de1-921e-baddf7acb485","meta":{"profile":["http://hl7.org/fhir/us/qicore/StructureDefinition/qicore-observation"]},"status":"final","category":[{"coding":[{"system":"http://terminology.hl7.org/CodeSystem/observation-category","code":"survey","display":"survey"}],"text":"survey"}],"code":{"coding":[{"system":"http://loinc.org","code":"72007-8","display":"VR-36 Physical component summary (PCS) score - orthogonal method T-score"}]},"subject":{"reference":"Patient/0c9f039a-2055-4fc3-943c-79dadb0e5271"},"effectivePeriod":{"start":"2025-01-01T23:00:00.000Z","end":"2025-01-01T23:59:00.000Z"},"valueInteger":4},"request":{"method":"PUT","url":"Observation/cf44b3f1-b618-4de1-921e-baddf7acb485"}},{"fullUrl":"https://madie.cms.gov/Observation/Observation-37","resource":{"resourceType":"Observation","id":"542a4e4e-1d49-4411-9223-737ede7fab24","meta":{"profile":["http://hl7.org/fhir/us/qicore/StructureDefinition/qicore-observation"]},"status":"final","category":[{"coding":[{"system":"http://terminology.hl7.org/CodeSystem/observation-category","code":"survey","display":"survey"}],"text":"survey"}],"code":{"coding":[{"system":"http://loinc.org","code":"72007-8","display":"VR-36 Physical component summary (PCS) score - orthogonal method T-score"}]},"subject":{"reference":"Patient/0c9f039a-2055-4fc3-943c-79dadb0e5271"},"effectivePeriod":{"start":"2025-01-31T23:00:00.000Z","end":"2025-01-31T23:59:00.000Z"},"valueInteger":4},"request":{"method":"PUT","url":"Observation/542a4e4e-1d49-4411-9223-737ede7fab24"}},{"fullUrl":"https://madie.cms.gov/MeasureReport/41d44ae3-2497-4ae6-8728-10be47876e3c","resource":{"resourceType":"MeasureReport","id":"41d44ae3-2497-4ae6-8728-10be47876e3c","meta":{"profile":["http://hl7.org/fhir/us/cqfmeasures/StructureDefinition/test-case-cqfm"]},"contained":[{"resourceType":"Parameters","id":"0e8d9d85-00c9-428b-8651-fd877dfc1d44-parameters","parameter":[{"name":"subject","valueString":"0c9f039a-2055-4fc3-943c-79dadb0e5271"}]}],"extension":[{"url":"http://hl7.org/fhir/us/cqfmeasures/StructureDefinition/cqfm-inputParameters","valueReference":{"reference":"#0e8d9d85-00c9-428b-8651-fd877dfc1d44-parameters"}},{"url":"http://hl7.org/fhir/us/cqfmeasures/StructureDefinition/cqfm-testCaseDescription","valueMarkdown":"Patient has all VR36 Orthogonal Assessments with results during the correct timeframe."}],"modifierExtension":[{"url":"http://hl7.org/fhir/us/cqfmeasures/StructureDefinition/cqfm-isTestCase","valueBoolean":true}],"status":"complete","type":"individual","measure":"https://madie.cms.gov/Measure/FunctionalStatusAssessmentsforHeartFailureFHIR","period":{"start":"2025-01-01","end":"2025-12-31"},"group":[{"population":[{"code":{"coding":[{"system":"http://terminology.hl7.org/CodeSystem/measure-population","code":"initial-population","display":"Initial Population"}]},"count":1},{"code":{"coding":[{"system":"http://terminology.hl7.org/CodeSystem/measure-population","code":"denominator","display":"Denominator"}]},"count":1},{"code":{"coding":[{"system":"http://terminology.hl7.org/CodeSystem/measure-population","code":"denominator-exclusion","display":"Denominator Exclusion"}]},"count":0},{"code":{"coding":[{"system":"http://terminology.hl7.org/CodeSystem/measure-population","code":"numerator","display":"Numerator"}]},"count":1}]}]},"request":{"method":"PUT","url":"MeasureReport/41d44ae3-2497-4ae6-8728-10be47876e3c"}}]}