{"resourceType":"Bundle","id":"tests-b472b9b5-419f-4e40-81c7-2086b4b3962d-bundle","type":"transaction","entry":[{"fullUrl":"https://madie.cms.gov/Patient/b472b9b5-419f-4e40-81c7-2086b4b3962d","resource":{"resourceType":"Patient","id":"b472b9b5-419f-4e40-81c7-2086b4b3962d","meta":{"profile":["http://hl7.org/fhir/us/qicore/StructureDefinition/qicore-patient"]},"extension":[{"url":"http://hl7.org/fhir/us/core/StructureDefinition/us-core-race","extension":[{"url":"ombCategory","valueCoding":{"system":"urn:oid:2.16.840.1.113883.6.238","code":"1002-5","display":"American Indian or Alaska Native"}},{"url":"text","valueString":"American Indian or Alaska Native"}]},{"url":"http://hl7.org/fhir/us/core/StructureDefinition/us-core-ethnicity","extension":[{"url":"ombCategory","valueCoding":{"system":"urn:oid:2.16.840.1.113883.6.238","code":"2186-5","display":"Not Hispanic or Latino"}},{"url":"text","valueString":"Not Hispanic or Latino"}]}],"identifier":[{"type":{"coding":[{"system":"http://terminology.hl7.org/CodeSystem/v2-0203","code":"MR"}]},"system":"https://bonnie-fhir.healthit.gov/","value":"62d99a52aa9f5c6ec34ff3c2"}],"active":true,"name":[{"use":"usual","family":"DENEXCEPPop1Fail","given":["AtrioBlockCardiacPacerPx"]}],"gender":"female","birthDate":"1982-06-28"},"request":{"method":"PUT","url":"Patient/b472b9b5-419f-4e40-81c7-2086b4b3962d"}},{"fullUrl":"https://madie.cms.gov/Encounter/5c954d9db848462de0ae6fff","resource":{"resourceType":"Encounter","id":"bb0c9bfc-34ad-434d-8894-d0a0851cef84","meta":{"profile":["http://hl7.org/fhir/us/qicore/StructureDefinition/qicore-encounter"]},"status":"finished","class":{"system":"http://terminology.hl7.org/CodeSystem/v3-ActCode","code":"AMB","display":"ambulatory encounter"},"type":[{"coding":[{"system":"http://www.ama-assn.org/go/cpt","version":"2024","code":"99205"}]}],"subject":{"reference":"Patient/b472b9b5-419f-4e40-81c7-2086b4b3962d"},"period":{"start":"2025-01-23T11:00:00.000+00:00","end":"2025-01-23T11:15:00.000+00:00"}},"request":{"method":"PUT","url":"Encounter/bb0c9bfc-34ad-434d-8894-d0a0851cef84"}},{"fullUrl":"https://madie.cms.gov/Encounter/5c954d9db848462de0ae7000","resource":{"resourceType":"Encounter","id":"45a229c9-5355-483c-bc17-9106d8beae11","meta":{"profile":["http://hl7.org/fhir/us/qicore/StructureDefinition/qicore-encounter"]},"status":"finished","class":{"system":"http://terminology.hl7.org/CodeSystem/v3-ActCode","code":"AMB","display":"ambulatory encounter"},"type":[{"coding":[{"system":"http://snomed.info/sct","version":"http://snomed.info/sct/731000124108/version/20230901","code":"185320006","display":"Encounter by computer link (procedure)"}]}],"subject":{"reference":"Patient/b472b9b5-419f-4e40-81c7-2086b4b3962d"},"period":{"start":"2025-02-25T13:15:00+00:00","end":"2025-02-25T14:15:00+00:00"}},"request":{"method":"PUT","url":"Encounter/45a229c9-5355-483c-bc17-9106d8beae11"}},{"fullUrl":"https://madie.cms.gov/Condition/5c954d9db848462de0ae6ffd","resource":{"resourceType":"Condition","id":"5a46d161-062c-4fc8-a9e3-d9de886d1447","meta":{"profile":["http://hl7.org/fhir/us/qicore/StructureDefinition/qicore-condition"]},"clinicalStatus":{"coding":[{"system":"http://terminology.hl7.org/CodeSystem/condition-clinical","code":"active","display":"Active"}]},"verificationStatus":{"coding":[{"system":"http://terminology.hl7.org/CodeSystem/condition-ver-status","code":"confirmed","display":"Confirmed"}]},"category":[{"coding":[{"system":"http://terminology.hl7.org/CodeSystem/condition-category","code":"problem-list-item","display":"Problem List Item"}]}],"code":{"coding":[{"system":"http://hl7.org/fhir/sid/icd-10-cm","version":"2024","code":"I44.1"}]},"subject":{"reference":"Patient/b472b9b5-419f-4e40-81c7-2086b4b3962d"},"onsetPeriod":{"start":"2025-01-24T15:00:00+00:00"}},"request":{"method":"PUT","url":"Condition/5a46d161-062c-4fc8-a9e3-d9de886d1447"}},{"fullUrl":"https://madie.cms.gov/Observation/5c954d9db848462de0ae7002","resource":{"resourceType":"Observation","id":"012033da-16aa-4504-898f-f5c1825112c1","meta":{"profile":["http://hl7.org/fhir/StructureDefinition/heartrate"]},"status":"final","category":[{"coding":[{"system":"http://terminology.hl7.org/CodeSystem/observation-category","code":"vital-signs","display":"Vital Signs"}]}],"code":{"coding":[{"system":"http://loinc.org","version":"2.76","code":"8867-4"}]},"subject":{"reference":"Patient/b472b9b5-419f-4e40-81c7-2086b4b3962d"},"effectiveDateTime":"2025-02-25T13:15:00+00:00","valueQuantity":{"value":25,"unit":"/min","system":"http://unitsofmeasure.org","code":"/min"}},"request":{"method":"PUT","url":"Observation/012033da-16aa-4504-898f-f5c1825112c1"}},{"fullUrl":"https://madie.cms.gov/Observation/5c954d9db848462de0ae7004","resource":{"resourceType":"Observation","id":"7182c6ae-de18-408b-aefd-187149f04525","meta":{"profile":["http://hl7.org/fhir/StructureDefinition/heartrate"]},"status":"final","category":[{"coding":[{"system":"http://terminology.hl7.org/CodeSystem/observation-category","code":"vital-signs","display":"Vital Signs"}]}],"code":{"coding":[{"system":"http://loinc.org","version":"2.76","code":"8867-4"}]},"subject":{"reference":"Patient/b472b9b5-419f-4e40-81c7-2086b4b3962d"},"effectiveDateTime":"2025-02-25T18:15:00+00:00","valueQuantity":{"value":20,"unit":"/min","system":"http://unitsofmeasure.org","code":"/min"}},"request":{"method":"PUT","url":"Observation/7182c6ae-de18-408b-aefd-187149f04525"}},{"fullUrl":"https://madie.cms.gov/Condition/7681316354663468","resource":{"resourceType":"Condition","id":"dbc87551-94c9-4747-91f8-252603e0c58b","meta":{"profile":["http://hl7.org/fhir/us/qicore/StructureDefinition/qicore-condition"]},"clinicalStatus":{"coding":[{"system":"http://terminology.hl7.org/CodeSystem/condition-clinical","code":"active","display":"Active"}]},"verificationStatus":{"coding":[{"system":"http://terminology.hl7.org/CodeSystem/condition-ver-status","code":"confirmed","display":"Confirmed"}]},"category":[{"coding":[{"system":"http://terminology.hl7.org/CodeSystem/condition-category","code":"problem-list-item","display":"Problem List Item"}]}],"code":{"coding":[{"system":"http://snomed.info/sct","version":"http://snomed.info/sct/731000124108/version/20240301","code":"981000124106","display":"Moderate left ventricular systolic dysfunction (disorder)"}]},"subject":{"reference":"Patient/b472b9b5-419f-4e40-81c7-2086b4b3962d"},"onsetPeriod":{"start":"2025-01-05T17:00:00.000+00:00","end":"2025-02-02T17:00:00.000+00:00"}},"request":{"method":"PUT","url":"Condition/dbc87551-94c9-4747-91f8-252603e0c58b"}},{"fullUrl":"https://madie.cms.gov/Condition/1687498465165131","resource":{"resourceType":"Condition","id":"807e3e5d-64b3-4bb9-8d11-e09d8f2a87fe","meta":{"profile":["http://hl7.org/fhir/us/qicore/StructureDefinition/qicore-condition"]},"clinicalStatus":{"coding":[{"system":"http://terminology.hl7.org/CodeSystem/condition-clinical","code":"active","display":"Active"}]},"verificationStatus":{"coding":[{"system":"http://terminology.hl7.org/CodeSystem/condition-ver-status","code":"confirmed","display":"Confirmed"}]},"category":[{"coding":[{"system":"http://terminology.hl7.org/CodeSystem/condition-category","code":"problem-list-item","display":"Problem List Item"}]}],"code":{"coding":[{"system":"http://snomed.info/sct","version":"http://snomed.info/sct/731000124108/version/20240301","code":"10365005","display":"Right main coronary artery thrombosis (disorder)"}]},"subject":{"reference":"Patient/b472b9b5-419f-4e40-81c7-2086b4b3962d"},"onsetDateTime":"2025-01-23T11:00:00.000+00:00"},"request":{"method":"PUT","url":"Condition/807e3e5d-64b3-4bb9-8d11-e09d8f2a87fe"}},{"fullUrl":"https://madie.cms.gov/Procedure/4684984635165161","resource":{"resourceType":"Procedure","id":"eb4a5ba7-0b8e-4852-ae2e-46ae45cc500a","meta":{"profile":["http://hl7.org/fhir/us/qicore/StructureDefinition/qicore-procedure"]},"extension":[{"url":"http://hl7.org/fhir/us/qicore/StructureDefinition/qicore-recorded","valueDateTime":"2025-01-22T08:00:00.000+00:00"}],"status":"completed","code":{"coding":[{"system":"http://snomed.info/sct","version":"http://snomed.info/sct/731000124108/version/20240301","code":"1231779006","display":"Implantation of leadless cardiac pacemaker (procedure)"}]},"subject":{"reference":"Patient/b472b9b5-419f-4e40-81c7-2086b4b3962d"},"performedPeriod":{"start":"2025-01-22T08:00:00.000+00:00","end":"2025-01-22T08:30:00.000+00:00"}},"request":{"method":"PUT","url":"Procedure/eb4a5ba7-0b8e-4852-ae2e-46ae45cc500a"}},{"fullUrl":"https://madie.cms.gov/MeasureReport/306147ae-e450-407e-9b4a-46bab9d85a55","resource":{"resourceType":"MeasureReport","id":"306147ae-e450-407e-9b4a-46bab9d85a55","meta":{"profile":["http://hl7.org/fhir/us/cqfmeasures/StructureDefinition/test-case-cqfm"]},"contained":[{"resourceType":"Parameters","id":"c3ec3d04-ac2f-4c45-a8b5-6b93dd60b8c9-parameters","parameter":[{"name":"subject","valueString":"b472b9b5-419f-4e40-81c7-2086b4b3962d"}]}],"extension":[{"url":"http://hl7.org/fhir/us/cqfmeasures/StructureDefinition/cqfm-inputParameters","valueReference":{"reference":"#c3ec3d04-ac2f-4c45-a8b5-6b93dd60b8c9-parameters"}},{"url":"http://hl7.org/fhir/us/cqfmeasures/StructureDefinition/cqfm-testCaseDescription","valueMarkdown":"Pt > 18, 2 visits in MP, AV block onset after 1st visit b4 2nd visit, pulse of 25 bpm during 2nd visit, a pulse of 20 bpm after 2nd visit, moderate LVSD onset b4 1st visit, CAD Dx onset during 2nd visit, and Cardiac Pacer Px during MP b4 1st visit"}],"modifierExtension":[{"url":"http://hl7.org/fhir/us/cqfmeasures/StructureDefinition/cqfm-isTestCase","valueBoolean":true}],"status":"complete","type":"individual","measure":"https://madie.cms.gov/Measure/CADBetaBlockerTherapyPriorMIorLVSDFHIR","period":{"start":"2025-01-01","end":"2025-12-31"},"group":[{"population":[{"code":{"coding":[{"system":"http://terminology.hl7.org/CodeSystem/measure-population","code":"initial-population","display":"Initial Population"}]},"count":1},{"code":{"coding":[{"system":"http://terminology.hl7.org/CodeSystem/measure-population","code":"denominator","display":"Denominator"}]},"count":1},{"code":{"coding":[{"system":"http://terminology.hl7.org/CodeSystem/measure-population","code":"numerator","display":"Numerator"}]},"count":0},{"code":{"coding":[{"system":"http://terminology.hl7.org/CodeSystem/measure-population","code":"denominator-exception","display":"Denominator Exception"}]},"count":0}]},{"population":[{"code":{"coding":[{"system":"http://terminology.hl7.org/CodeSystem/measure-population","code":"initial-population","display":"Initial Population"}]},"count":1},{"code":{"coding":[{"system":"http://terminology.hl7.org/CodeSystem/measure-population","code":"denominator","display":"Denominator"}]},"count":0},{"code":{"coding":[{"system":"http://terminology.hl7.org/CodeSystem/measure-population","code":"numerator","display":"Numerator"}]},"count":0},{"code":{"coding":[{"system":"http://terminology.hl7.org/CodeSystem/measure-population","code":"denominator-exception","display":"Denominator Exception"}]},"count":0}]}]},"request":{"method":"PUT","url":"MeasureReport/306147ae-e450-407e-9b4a-46bab9d85a55"}}]}