{"resourceType":"Bundle","id":"tests-bfacfb96-e784-4346-bf29-a20359dc0ba5-bundle","type":"transaction","entry":[{"fullUrl":"https://madie.cms.gov/Patient/bfacfb96-e784-4346-bf29-a20359dc0ba5","resource":{"resourceType":"Patient","id":"bfacfb96-e784-4346-bf29-a20359dc0ba5","meta":{"profile":["http://hl7.org/fhir/us/qicore/StructureDefinition/qicore-patient"]},"extension":[{"url":"http://hl7.org/fhir/us/core/StructureDefinition/us-core-race","extension":[{"url":"ombCategory","valueCoding":{"system":"urn:oid:2.16.840.1.113883.6.238","code":"1002-5","display":"American Indian or Alaska Native"}},{"url":"text","valueString":"American Indian or Alaska Native"}]},{"url":"http://hl7.org/fhir/us/core/StructureDefinition/us-core-ethnicity","extension":[{"url":"ombCategory","valueCoding":{"system":"urn:oid:2.16.840.1.113883.6.238","code":"2186-5","display":"Not Hispanic or Latino"}},{"url":"text","valueString":"Not Hispanic or Latino"}]}],"identifier":[{"type":{"coding":[{"system":"http://terminology.hl7.org/CodeSystem/v2-0203","code":"MR"}]},"system":"https://bonnie-fhir.healthit.gov/","value":"4987465161613131321"}],"active":true,"name":[{"use":"usual","family":"DENEXCEPPop1Pass","given":["BetaAdrenergicAllergy"]}],"gender":"female","birthDate":"1922-03-24"},"request":{"method":"PUT","url":"Patient/bfacfb96-e784-4346-bf29-a20359dc0ba5"}},{"fullUrl":"https://madie.cms.gov/Encounter/879846516816513513","resource":{"resourceType":"Encounter","id":"099577c8-7c1e-4efa-bacf-9eadd2d45843","meta":{"profile":["http://hl7.org/fhir/us/qicore/StructureDefinition/qicore-encounter"]},"status":"finished","class":{"system":"http://terminology.hl7.org/CodeSystem/v3-ActCode","code":"AMB","display":"ambulatory encounter"},"type":[{"coding":[{"system":"http://www.ama-assn.org/go/cpt","version":"2024","code":"99205"}]}],"subject":{"reference":"Patient/bfacfb96-e784-4346-bf29-a20359dc0ba5"},"period":{"start":"2025-04-05T06:00:00+00:00","end":"2025-04-05T07:00:00+00:00"}},"request":{"method":"PUT","url":"Encounter/099577c8-7c1e-4efa-bacf-9eadd2d45843"}},{"fullUrl":"https://madie.cms.gov/Encounter/46513513135135204","resource":{"resourceType":"Encounter","id":"57b47e05-db7b-4dd9-ba0f-c81e5fec154e","meta":{"profile":["http://hl7.org/fhir/us/qicore/StructureDefinition/qicore-encounter"]},"status":"finished","class":{"system":"http://terminology.hl7.org/CodeSystem/v3-ActCode","code":"AMB","display":"ambulatory encounter"},"type":[{"coding":[{"system":"http://www.ama-assn.org/go/cpt","version":"2024","code":"99205"}]}],"subject":{"reference":"Patient/bfacfb96-e784-4346-bf29-a20359dc0ba5"},"period":{"start":"2025-07-08T09:00:00+00:00","end":"2025-07-08T09:00:00+00:00"}},"request":{"method":"PUT","url":"Encounter/57b47e05-db7b-4dd9-ba0f-c81e5fec154e"}},{"fullUrl":"https://madie.cms.gov/Condition/498431684613131353","resource":{"resourceType":"Condition","id":"78819ac3-9bfc-46a6-860e-17844242a655","meta":{"profile":["http://hl7.org/fhir/us/qicore/StructureDefinition/qicore-condition"]},"clinicalStatus":{"coding":[{"system":"http://terminology.hl7.org/CodeSystem/condition-clinical","code":"active","display":"Active"}]},"verificationStatus":{"coding":[{"system":"http://terminology.hl7.org/CodeSystem/condition-ver-status","code":"confirmed","display":"Confirmed"}]},"category":[{"coding":[{"system":"http://terminology.hl7.org/CodeSystem/condition-category","code":"problem-list-item","display":"Problem List Item"}]}],"code":{"coding":[{"system":"http://hl7.org/fhir/sid/icd-10-cm","version":"2024","code":"I21.01"}]},"subject":{"reference":"Patient/bfacfb96-e784-4346-bf29-a20359dc0ba5"},"onsetPeriod":{"start":"2022-11-22T07:30:00+00:00","end":"2022-11-22T08:30:00+00:00"}},"request":{"method":"PUT","url":"Condition/78819ac3-9bfc-46a6-860e-17844242a655"}},{"fullUrl":"https://madie.cms.gov/Condition/5446131635165132","resource":{"resourceType":"Condition","id":"24210932-e342-48f0-92ac-4646f9be2371","meta":{"profile":["http://hl7.org/fhir/us/qicore/StructureDefinition/qicore-condition"]},"clinicalStatus":{"coding":[{"system":"http://terminology.hl7.org/CodeSystem/condition-clinical","code":"active","display":"Active"}]},"verificationStatus":{"coding":[{"system":"http://terminology.hl7.org/CodeSystem/condition-ver-status","code":"confirmed"}]},"category":[{"coding":[{"system":"http://terminology.hl7.org/CodeSystem/condition-category","code":"problem-list-item","display":"Problem List Item"}]}],"severity":{"coding":[{"system":"http://snomed.info/sct","version":"http://snomed.info/sct/731000124108/version/20240301","code":"24484000","display":"Severe (severity modifier) (qualifier value)"}]},"code":{"coding":[{"system":"http://snomed.info/sct","version":"http://snomed.info/sct/731000124108/version/20240301","code":"134401001"}]},"subject":{"reference":"Patient/bfacfb96-e784-4346-bf29-a20359dc0ba5"},"onsetPeriod":{"start":"2025-01-21T07:00:00.000+00:00"}},"request":{"method":"PUT","url":"Condition/24210932-e342-48f0-92ac-4646f9be2371"}},{"fullUrl":"https://madie.cms.gov/Condition/16465467964365165465","resource":{"resourceType":"Condition","id":"fb88cca2-db31-4d06-9a36-128b02105e7a","meta":{"profile":["http://hl7.org/fhir/us/qicore/StructureDefinition/qicore-condition"]},"clinicalStatus":{"coding":[{"system":"http://terminology.hl7.org/CodeSystem/condition-clinical","code":"active","display":"Active"}]},"verificationStatus":{"coding":[{"system":"http://terminology.hl7.org/CodeSystem/condition-ver-status","code":"confirmed","display":"Confirmed"}]},"category":[{"coding":[{"system":"http://terminology.hl7.org/CodeSystem/condition-category","code":"problem-list-item","display":"Problem List Item"}]}],"code":{"coding":[{"system":"http://snomed.info/sct","version":"http://snomed.info/sct/731000124108/version/20240301","code":"10365005","display":"Right main coronary artery thrombosis (disorder)"}]},"subject":{"reference":"Patient/bfacfb96-e784-4346-bf29-a20359dc0ba5"},"onsetPeriod":{"start":"2025-07-06T00:00:00+00:00"}},"request":{"method":"PUT","url":"Condition/fb88cca2-db31-4d06-9a36-128b02105e7a"}},{"fullUrl":"https://madie.cms.gov/AllergyIntolerance/4641346846351351352","resource":{"resourceType":"AllergyIntolerance","id":"eb07b52a-8b8c-4c87-b34f-6ed3fcf82869","meta":{"profile":["http://hl7.org/fhir/us/qicore/StructureDefinition/qicore-allergyintolerance"]},"clinicalStatus":{"coding":[{"system":"http://terminology.hl7.org/CodeSystem/allergyintolerance-clinical","code":"active"}]},"verificationStatus":{"coding":[{"system":"http://terminology.hl7.org/CodeSystem/allergyintolerance-verification","code":"confirmed"}]},"type":"allergy","criticality":"high","code":{"coding":[{"system":"http://snomed.info/sct","version":"http://snomed.info/sct/731000124108/version/20240301","code":"373254001","display":"Substance with beta adrenergic receptor antagonist mechanism of action (substance)"}]},"patient":{"reference":"Patient/bfacfb96-e784-4346-bf29-a20359dc0ba5"},"onsetDateTime":"2021-10-01","recordedDate":"2021-10-01T14:00:00+00:00"},"request":{"method":"PUT","url":"AllergyIntolerance/eb07b52a-8b8c-4c87-b34f-6ed3fcf82869"}},{"fullUrl":"https://madie.cms.gov/MeasureReport/e5360095-c1bf-4264-a688-e062a3d0b7aa","resource":{"resourceType":"MeasureReport","id":"e5360095-c1bf-4264-a688-e062a3d0b7aa","meta":{"profile":["http://hl7.org/fhir/us/cqfmeasures/StructureDefinition/test-case-cqfm"]},"contained":[{"resourceType":"Parameters","id":"15dcd7e4-0d51-443d-a2e8-fbab11b3ae9c-parameters","parameter":[{"name":"subject","valueString":"bfacfb96-e784-4346-bf29-a20359dc0ba5"}]}],"extension":[{"url":"http://hl7.org/fhir/us/cqfmeasures/StructureDefinition/cqfm-inputParameters","valueReference":{"reference":"#15dcd7e4-0d51-443d-a2e8-fbab11b3ae9c-parameters"}},{"url":"http://hl7.org/fhir/us/cqfmeasures/StructureDefinition/cqfm-testCaseDescription","valueMarkdown":"Pt > 18, 2 amb. visits during MP, an MI Dx with onset > 2 yrs before MP, an LVSD Dx with onset during MP but before 1st visit, a qualifying CAD Encounter, and a beta adrenergic receptor allergy start > 3 years before MP and ongoing"}],"modifierExtension":[{"url":"http://hl7.org/fhir/us/cqfmeasures/StructureDefinition/cqfm-isTestCase","valueBoolean":true}],"status":"complete","type":"individual","measure":"https://madie.cms.gov/Measure/CADBetaBlockerTherapyPriorMIorLVSDFHIR","period":{"start":"2025-01-01","end":"2025-12-31"},"group":[{"population":[{"code":{"coding":[{"system":"http://terminology.hl7.org/CodeSystem/measure-population","code":"initial-population","display":"Initial Population"}]},"count":1},{"code":{"coding":[{"system":"http://terminology.hl7.org/CodeSystem/measure-population","code":"denominator","display":"Denominator"}]},"count":1},{"code":{"coding":[{"system":"http://terminology.hl7.org/CodeSystem/measure-population","code":"numerator","display":"Numerator"}]},"count":0},{"code":{"coding":[{"system":"http://terminology.hl7.org/CodeSystem/measure-population","code":"denominator-exception","display":"Denominator Exception"}]},"count":1}]},{"population":[{"code":{"coding":[{"system":"http://terminology.hl7.org/CodeSystem/measure-population","code":"initial-population","display":"Initial Population"}]},"count":1},{"code":{"coding":[{"system":"http://terminology.hl7.org/CodeSystem/measure-population","code":"denominator","display":"Denominator"}]},"count":0},{"code":{"coding":[{"system":"http://terminology.hl7.org/CodeSystem/measure-population","code":"numerator","display":"Numerator"}]},"count":0},{"code":{"coding":[{"system":"http://terminology.hl7.org/CodeSystem/measure-population","code":"denominator-exception","display":"Denominator Exception"}]},"count":0}]}]},"request":{"method":"PUT","url":"MeasureReport/e5360095-c1bf-4264-a688-e062a3d0b7aa"}}]}