{"resourceType":"Bundle","id":"tests-5fd0d626-e9c5-4e6c-a10d-1a1183fa7702-bundle","type":"transaction","entry":[{"fullUrl":"https://madie.cms.gov/Patient/5fd0d626-e9c5-4e6c-a10d-1a1183fa7702","resource":{"resourceType":"Patient","id":"5fd0d626-e9c5-4e6c-a10d-1a1183fa7702","meta":{"profile":["http://hl7.org/fhir/us/qicore/StructureDefinition/qicore-patient"]},"extension":[{"url":"http://hl7.org/fhir/us/core/StructureDefinition/us-core-race","extension":[{"url":"ombCategory","valueCoding":{"system":"urn:oid:2.16.840.1.113883.6.238","code":"1002-5","display":"American Indian or Alaska Native"}},{"url":"text","valueString":"American Indian or Alaska Native"}]},{"url":"http://hl7.org/fhir/us/core/StructureDefinition/us-core-ethnicity","extension":[{"url":"ombCategory","valueCoding":{"system":"urn:oid:2.16.840.1.113883.6.238","code":"2186-5","display":"Not Hispanic or Latino"}},{"url":"text","valueString":"Not Hispanic or Latino"}]}],"identifier":[{"type":{"coding":[{"system":"http://terminology.hl7.org/CodeSystem/v2-0203","code":"MR"}]},"system":"https://bonnie-fhir.healthit.gov/","value":"63516844554684641"}],"active":true,"name":[{"use":"usual","family":"DENEXCEPPop1Pass","given":["BetaBlockerAllergyDiagnosis"]}],"gender":"female","birthDate":"1922-03-24"},"request":{"method":"PUT","url":"Patient/5fd0d626-e9c5-4e6c-a10d-1a1183fa7702"}},{"fullUrl":"https://madie.cms.gov/Encounter/216546164613131","resource":{"resourceType":"Encounter","id":"ccd702af-dfd7-445e-9c55-4316f8531c14","meta":{"profile":["http://hl7.org/fhir/us/qicore/StructureDefinition/qicore-encounter"]},"status":"finished","class":{"system":"http://terminology.hl7.org/CodeSystem/v3-ActCode","code":"AMB","display":"ambulatory encounter"},"type":[{"coding":[{"system":"http://www.ama-assn.org/go/cpt","version":"2024","code":"99205"}]}],"subject":{"reference":"Patient/5fd0d626-e9c5-4e6c-a10d-1a1183fa7702"},"period":{"start":"2025-04-05T06:00:00+00:00","end":"2025-04-05T07:00:00+00:00"}},"request":{"method":"PUT","url":"Encounter/ccd702af-dfd7-445e-9c55-4316f8531c14"}},{"fullUrl":"https://madie.cms.gov/Encounter/6516431341311221","resource":{"resourceType":"Encounter","id":"ce37bd85-74bb-4293-a629-724530b9f241","meta":{"profile":["http://hl7.org/fhir/us/qicore/StructureDefinition/qicore-encounter"]},"status":"finished","class":{"system":"http://terminology.hl7.org/CodeSystem/v3-ActCode","code":"AMB","display":"ambulatory encounter"},"type":[{"coding":[{"system":"http://www.ama-assn.org/go/cpt","version":"2024","code":"99205"}]}],"subject":{"reference":"Patient/5fd0d626-e9c5-4e6c-a10d-1a1183fa7702"},"period":{"start":"2025-07-08T09:00:00+00:00","end":"2025-07-08T09:00:00+00:00"}},"request":{"method":"PUT","url":"Encounter/ce37bd85-74bb-4293-a629-724530b9f241"}},{"fullUrl":"https://madie.cms.gov/Condition/54515245413435454","resource":{"resourceType":"Condition","id":"0abda46b-caf9-411e-8167-09a5bfbfa3bb","meta":{"profile":["http://hl7.org/fhir/us/qicore/StructureDefinition/qicore-condition"]},"clinicalStatus":{"coding":[{"system":"http://terminology.hl7.org/CodeSystem/condition-clinical","code":"active","display":"Active"}]},"verificationStatus":{"coding":[{"system":"http://terminology.hl7.org/CodeSystem/condition-ver-status","code":"confirmed","display":"Confirmed"}]},"category":[{"coding":[{"system":"http://terminology.hl7.org/CodeSystem/condition-category","code":"problem-list-item","display":"Problem List Item"}]}],"code":{"coding":[{"system":"http://snomed.info/sct","version":"http://snomed.info/sct/731000124108/version/20240301","code":"981000124106","display":"Moderate left ventricular systolic dysfunction (disorder)"}]},"subject":{"reference":"Patient/5fd0d626-e9c5-4e6c-a10d-1a1183fa7702"},"onsetPeriod":{"start":"2025-04-05T06:00:00.000+00:00"}},"request":{"method":"PUT","url":"Condition/0abda46b-caf9-411e-8167-09a5bfbfa3bb"}},{"fullUrl":"https://madie.cms.gov/Condition/465481635163543215","resource":{"resourceType":"Condition","id":"cfa3ce84-a12d-4ecc-8aa1-5d190e8da98e","meta":{"profile":["http://hl7.org/fhir/us/qicore/StructureDefinition/qicore-condition"]},"clinicalStatus":{"coding":[{"system":"http://terminology.hl7.org/CodeSystem/condition-clinical","code":"active","display":"Active"}]},"verificationStatus":{"coding":[{"system":"http://terminology.hl7.org/CodeSystem/condition-ver-status","code":"confirmed","display":"Confirmed"}]},"category":[{"coding":[{"system":"http://terminology.hl7.org/CodeSystem/condition-category","code":"problem-list-item","display":"Problem List Item"}]}],"code":{"coding":[{"system":"http://snomed.info/sct","version":"http://snomed.info/sct/731000124108/version/20240301","code":"10365005","display":"Right main coronary artery thrombosis (disorder)"}]},"subject":{"reference":"Patient/5fd0d626-e9c5-4e6c-a10d-1a1183fa7702"},"onsetPeriod":{"start":"2025-04-05T06:00:00.000+00:00"}},"request":{"method":"PUT","url":"Condition/cfa3ce84-a12d-4ecc-8aa1-5d190e8da98e"}},{"fullUrl":"https://madie.cms.gov/Condition/135416546546512121","resource":{"resourceType":"Condition","id":"5f297a80-edaf-44bb-af13-3ea2151a8afe","meta":{"profile":["http://hl7.org/fhir/us/qicore/StructureDefinition/qicore-condition"]},"clinicalStatus":{"coding":[{"system":"http://terminology.hl7.org/CodeSystem/condition-clinical","code":"active","display":"Active"}]},"verificationStatus":{"coding":[{"system":"http://terminology.hl7.org/CodeSystem/condition-ver-status","code":"confirmed","display":"Confirmed"}]},"category":[{"coding":[{"system":"http://terminology.hl7.org/CodeSystem/condition-category","code":"problem-list-item","display":"Problem List Item"}]}],"code":{"coding":[{"system":"http://snomed.info/sct","version":"http://snomed.info/sct/731000124108/version/20240301","code":"293970004","display":"Allergy to metoprolol (finding)"}]},"subject":{"reference":"Patient/5fd0d626-e9c5-4e6c-a10d-1a1183fa7702"},"onsetPeriod":{"start":"2024-04-05T06:00:00.000+00:00"}},"request":{"method":"PUT","url":"Condition/5f297a80-edaf-44bb-af13-3ea2151a8afe"}},{"fullUrl":"https://madie.cms.gov/MeasureReport/c2e97a5a-f94b-425b-a631-988f1d878f52","resource":{"resourceType":"MeasureReport","id":"c2e97a5a-f94b-425b-a631-988f1d878f52","meta":{"profile":["http://hl7.org/fhir/us/cqfmeasures/StructureDefinition/test-case-cqfm"]},"contained":[{"resourceType":"Parameters","id":"26c7fa46-614e-49c6-a176-b296a8a0703f-parameters","parameter":[{"name":"subject","valueString":"5fd0d626-e9c5-4e6c-a10d-1a1183fa7702"}]}],"extension":[{"url":"http://hl7.org/fhir/us/cqfmeasures/StructureDefinition/cqfm-inputParameters","valueReference":{"reference":"#26c7fa46-614e-49c6-a176-b296a8a0703f-parameters"}},{"url":"http://hl7.org/fhir/us/cqfmeasures/StructureDefinition/cqfm-testCaseDescription","valueMarkdown":"Pt > 18, 2 amb. visits during MP, moderate LVSD and CAD (both with onset during 1st visit), and a Beta Blocker allergy Dx with onset during 1st visit"}],"modifierExtension":[{"url":"http://hl7.org/fhir/us/cqfmeasures/StructureDefinition/cqfm-isTestCase","valueBoolean":true}],"status":"complete","type":"individual","measure":"https://madie.cms.gov/Measure/CADBetaBlockerTherapyPriorMIorLVSDFHIR","period":{"start":"2025-01-01","end":"2025-12-31"},"group":[{"population":[{"code":{"coding":[{"system":"http://terminology.hl7.org/CodeSystem/measure-population","code":"initial-population","display":"Initial Population"}]},"count":1},{"code":{"coding":[{"system":"http://terminology.hl7.org/CodeSystem/measure-population","code":"denominator","display":"Denominator"}]},"count":1},{"code":{"coding":[{"system":"http://terminology.hl7.org/CodeSystem/measure-population","code":"numerator","display":"Numerator"}]},"count":0},{"code":{"coding":[{"system":"http://terminology.hl7.org/CodeSystem/measure-population","code":"denominator-exception","display":"Denominator Exception"}]},"count":1}]},{"population":[{"code":{"coding":[{"system":"http://terminology.hl7.org/CodeSystem/measure-population","code":"initial-population","display":"Initial Population"}]},"count":1},{"code":{"coding":[{"system":"http://terminology.hl7.org/CodeSystem/measure-population","code":"denominator","display":"Denominator"}]},"count":0},{"code":{"coding":[{"system":"http://terminology.hl7.org/CodeSystem/measure-population","code":"numerator","display":"Numerator"}]},"count":0},{"code":{"coding":[{"system":"http://terminology.hl7.org/CodeSystem/measure-population","code":"denominator-exception","display":"Denominator Exception"}]},"count":0}]}]},"request":{"method":"PUT","url":"MeasureReport/c2e97a5a-f94b-425b-a631-988f1d878f52"}}]}