{"resourceType":"Bundle","id":"tests-4e9c7cf3-c1ae-4110-9ead-86fadfbbf3e4-bundle","type":"transaction","entry":[{"fullUrl":"https://madie.cms.gov/Patient/4e9c7cf3-c1ae-4110-9ead-86fadfbbf3e4","resource":{"resourceType":"Patient","id":"4e9c7cf3-c1ae-4110-9ead-86fadfbbf3e4","meta":{"profile":["http://hl7.org/fhir/us/qicore/StructureDefinition/qicore-patient"]},"extension":[{"url":"http://hl7.org/fhir/us/core/StructureDefinition/us-core-race","extension":[{"url":"ombCategory","valueCoding":{"system":"urn:oid:2.16.840.1.113883.6.238","code":"1002-5","display":"American Indian or Alaska Native"}},{"url":"text","valueString":"American Indian or Alaska Native"}]},{"url":"http://hl7.org/fhir/us/core/StructureDefinition/us-core-ethnicity","extension":[{"url":"ombCategory","valueCoding":{"system":"urn:oid:2.16.840.1.113883.6.238","code":"2186-5","display":"Not Hispanic or Latino"}},{"url":"text","valueString":"Not Hispanic or Latino"}]}],"identifier":[{"type":{"coding":[{"system":"http://terminology.hl7.org/CodeSystem/v2-0203","code":"MR"}]},"system":"https://bonnie-fhir.healthit.gov/","value":"649846516846516316"}],"active":true,"name":[{"use":"usual","family":"DENEXCEPPop2Fail","given":["AtrioBlockCardiacPacerPx"]}],"gender":"female","birthDate":"1922-03-24"},"request":{"method":"PUT","url":"Patient/4e9c7cf3-c1ae-4110-9ead-86fadfbbf3e4"}},{"fullUrl":"https://madie.cms.gov/Encounter/98798165148613131","resource":{"resourceType":"Encounter","id":"40a9fe11-c219-4e39-a192-4fc733d27e18","meta":{"profile":["http://hl7.org/fhir/us/qicore/StructureDefinition/qicore-encounter"]},"status":"finished","class":{"system":"http://terminology.hl7.org/CodeSystem/v3-ActCode","code":"AMB","display":"ambulatory encounter"},"type":[{"coding":[{"system":"http://www.ama-assn.org/go/cpt","version":"2024","code":"99205"}]}],"subject":{"reference":"Patient/4e9c7cf3-c1ae-4110-9ead-86fadfbbf3e4"},"period":{"start":"2025-04-05T06:00:00+00:00","end":"2025-04-05T07:00:00+00:00"}},"request":{"method":"PUT","url":"Encounter/40a9fe11-c219-4e39-a192-4fc733d27e18"}},{"fullUrl":"https://madie.cms.gov/Encounter/1611684651351313516","resource":{"resourceType":"Encounter","id":"dff78248-e94d-4dff-885b-7d7bae44703a","meta":{"profile":["http://hl7.org/fhir/us/qicore/StructureDefinition/qicore-encounter"]},"status":"finished","class":{"system":"http://terminology.hl7.org/CodeSystem/v3-ActCode","code":"AMB","display":"ambulatory encounter"},"type":[{"coding":[{"system":"http://www.ama-assn.org/go/cpt","version":"2024","code":"99205"}]}],"subject":{"reference":"Patient/4e9c7cf3-c1ae-4110-9ead-86fadfbbf3e4"},"period":{"start":"2025-07-08T08:45:00+00:00","end":"2025-07-08T09:00:00+00:00"}},"request":{"method":"PUT","url":"Encounter/dff78248-e94d-4dff-885b-7d7bae44703a"}},{"fullUrl":"https://madie.cms.gov/Condition/4651651351313513135","resource":{"resourceType":"Condition","id":"0350a594-0643-40f8-8fcb-dd69e5bee6d1","meta":{"profile":["http://hl7.org/fhir/us/qicore/StructureDefinition/qicore-condition"]},"clinicalStatus":{"coding":[{"system":"http://terminology.hl7.org/CodeSystem/condition-clinical","code":"active","display":"Active"}]},"verificationStatus":{"coding":[{"system":"http://terminology.hl7.org/CodeSystem/condition-ver-status","code":"confirmed","display":"Confirmed"}]},"category":[{"coding":[{"system":"http://terminology.hl7.org/CodeSystem/condition-category","code":"problem-list-item","display":"Problem List Item"}]}],"code":{"coding":[{"system":"http://hl7.org/fhir/sid/icd-10-cm","version":"2024","code":"I21.09"}]},"subject":{"reference":"Patient/4e9c7cf3-c1ae-4110-9ead-86fadfbbf3e4"},"onsetPeriod":{"start":"2025-04-05T06:00:00.000+00:00"}},"request":{"method":"PUT","url":"Condition/0350a594-0643-40f8-8fcb-dd69e5bee6d1"}},{"fullUrl":"https://madie.cms.gov/Condition/46513516513513513","resource":{"resourceType":"Condition","id":"da8b7f0e-1270-450c-9a65-97f6b936867f","meta":{"profile":["http://hl7.org/fhir/us/qicore/StructureDefinition/qicore-condition"]},"clinicalStatus":{"coding":[{"system":"http://terminology.hl7.org/CodeSystem/condition-clinical","code":"active","display":"Active"}]},"verificationStatus":{"coding":[{"system":"http://terminology.hl7.org/CodeSystem/condition-ver-status","code":"confirmed","display":"Confirmed"}]},"category":[{"coding":[{"system":"http://terminology.hl7.org/CodeSystem/condition-category","code":"problem-list-item","display":"Problem List Item"}]}],"code":{"coding":[{"system":"http://snomed.info/sct","version":"http://snomed.info/sct/731000124108/version/20240301","code":"10365005","display":"Right main coronary artery thrombosis (disorder)"}]},"subject":{"reference":"Patient/4e9c7cf3-c1ae-4110-9ead-86fadfbbf3e4"},"onsetPeriod":{"start":"2025-04-05T06:00:00.000+00:00"}},"request":{"method":"PUT","url":"Condition/da8b7f0e-1270-450c-9a65-97f6b936867f"}},{"fullUrl":"https://madie.cms.gov/Condition/49819849465161313","resource":{"resourceType":"Condition","id":"cf00f4b3-6ee5-41cf-a1e7-d82739ca8f4b","meta":{"profile":["http://hl7.org/fhir/us/qicore/StructureDefinition/qicore-condition"]},"clinicalStatus":{"coding":[{"system":"http://terminology.hl7.org/CodeSystem/condition-clinical","code":"active","display":"Active"}]},"verificationStatus":{"coding":[{"system":"http://terminology.hl7.org/CodeSystem/condition-ver-status","code":"confirmed","display":"Confirmed"}]},"category":[{"coding":[{"system":"http://terminology.hl7.org/CodeSystem/condition-category","code":"problem-list-item","display":"Problem List Item"}]}],"code":{"coding":[{"system":"http://snomed.info/sct","version":"http://snomed.info/sct/731000124108/version/20240301","code":"102451000119107","display":"Complete atrioventricular block as complication of atrioventricular nodal ablation (disorder)"}]},"subject":{"reference":"Patient/4e9c7cf3-c1ae-4110-9ead-86fadfbbf3e4"},"onsetDateTime":"2025-07-07T10:00:00+00:00"},"request":{"method":"PUT","url":"Condition/cf00f4b3-6ee5-41cf-a1e7-d82739ca8f4b"}},{"fullUrl":"https://madie.cms.gov/Procedure/54674981351631531351","resource":{"resourceType":"Procedure","id":"80415320-fb51-4b30-887d-eba0d16939f4","meta":{"profile":["http://hl7.org/fhir/us/qicore/StructureDefinition/qicore-procedure"]},"extension":[{"url":"http://hl7.org/fhir/us/qicore/StructureDefinition/qicore-recorded","valueDateTime":"2024-04-05T09:20:00-04:00"}],"status":"completed","code":{"coding":[{"system":"http://snomed.info/sct","version":"http://snomed.info/sct/731000124108/version/20240301","code":"175142009","display":"Implantation of permanent intravenous cardiac pacemaker (procedure)"}]},"subject":{"reference":"Patient/4e9c7cf3-c1ae-4110-9ead-86fadfbbf3e4"},"performedPeriod":{"start":"2024-04-05T09:20:00-04:00","end":"2024-04-05T10:30:00-04:00"}},"request":{"method":"PUT","url":"Procedure/80415320-fb51-4b30-887d-eba0d16939f4"}},{"fullUrl":"https://madie.cms.gov/MeasureReport/3cc93dd0-39a9-4a57-8013-641bc8c9ff10","resource":{"resourceType":"MeasureReport","id":"3cc93dd0-39a9-4a57-8013-641bc8c9ff10","meta":{"profile":["http://hl7.org/fhir/us/cqfmeasures/StructureDefinition/test-case-cqfm"]},"contained":[{"resourceType":"Parameters","id":"02692eef-38d8-4596-97c0-4cfcac0f4695-parameters","parameter":[{"name":"subject","valueString":"4e9c7cf3-c1ae-4110-9ead-86fadfbbf3e4"}]}],"extension":[{"url":"http://hl7.org/fhir/us/cqfmeasures/StructureDefinition/cqfm-inputParameters","valueReference":{"reference":"#02692eef-38d8-4596-97c0-4cfcac0f4695-parameters"}},{"url":"http://hl7.org/fhir/us/cqfmeasures/StructureDefinition/cqfm-testCaseDescription","valueMarkdown":"Pt > 18, 2 visits in MP, MI and CAD Dx (both with onset during 1st visit), AV block onset b4 2nd visit, and Cardiac Pacer implanted after 1st visit"}],"modifierExtension":[{"url":"http://hl7.org/fhir/us/cqfmeasures/StructureDefinition/cqfm-isTestCase","valueBoolean":true}],"status":"complete","type":"individual","measure":"https://madie.cms.gov/Measure/CADBetaBlockerTherapyPriorMIorLVSDFHIR","period":{"start":"2025-01-01","end":"2025-12-31"},"group":[{"population":[{"code":{"coding":[{"system":"http://terminology.hl7.org/CodeSystem/measure-population","code":"initial-population","display":"Initial Population"}]},"count":1},{"code":{"coding":[{"system":"http://terminology.hl7.org/CodeSystem/measure-population","code":"denominator","display":"Denominator"}]},"count":0},{"code":{"coding":[{"system":"http://terminology.hl7.org/CodeSystem/measure-population","code":"numerator","display":"Numerator"}]},"count":0},{"code":{"coding":[{"system":"http://terminology.hl7.org/CodeSystem/measure-population","code":"denominator-exception","display":"Denominator Exception"}]},"count":0}]},{"population":[{"code":{"coding":[{"system":"http://terminology.hl7.org/CodeSystem/measure-population","code":"initial-population","display":"Initial Population"}]},"count":1},{"code":{"coding":[{"system":"http://terminology.hl7.org/CodeSystem/measure-population","code":"denominator","display":"Denominator"}]},"count":1},{"code":{"coding":[{"system":"http://terminology.hl7.org/CodeSystem/measure-population","code":"numerator","display":"Numerator"}]},"count":0},{"code":{"coding":[{"system":"http://terminology.hl7.org/CodeSystem/measure-population","code":"denominator-exception","display":"Denominator Exception"}]},"count":0}]}]},"request":{"method":"PUT","url":"MeasureReport/3cc93dd0-39a9-4a57-8013-641bc8c9ff10"}}]}