{"resourceType":"Bundle","id":"tests-641aaa7a-d227-475a-a648-9c048522b62f-bundle","type":"transaction","entry":[{"fullUrl":"https://madie.cms.gov/Patient/641aaa7a-d227-475a-a648-9c048522b62f","resource":{"resourceType":"Patient","id":"641aaa7a-d227-475a-a648-9c048522b62f","meta":{"profile":["http://hl7.org/fhir/us/qicore/StructureDefinition/qicore-patient"]},"extension":[{"url":"http://hl7.org/fhir/us/core/StructureDefinition/us-core-race","extension":[{"url":"ombCategory","valueCoding":{"system":"urn:oid:2.16.840.1.113883.6.238","code":"1002-5","display":"American Indian or Alaska Native"}},{"url":"text","valueString":"American Indian or Alaska Native"}]},{"url":"http://hl7.org/fhir/us/core/StructureDefinition/us-core-ethnicity","extension":[{"url":"ombCategory","valueCoding":{"system":"urn:oid:2.16.840.1.113883.6.238","code":"2186-5","display":"Not Hispanic or Latino"}},{"url":"text","valueString":"Not Hispanic or Latino"}]}],"identifier":[{"type":{"coding":[{"system":"http://terminology.hl7.org/CodeSystem/v2-0203","code":"MR"}]},"system":"https://bonnie-fhir.healthit.gov/","value":"6846416461351611"}],"active":true,"name":[{"use":"usual","family":"DENEXCEPPop2Fail","given":["BradycardiaAfterEncounter"]}],"gender":"female","birthDate":"1922-03-24"},"request":{"method":"PUT","url":"Patient/641aaa7a-d227-475a-a648-9c048522b62f"}},{"fullUrl":"https://madie.cms.gov/Encounter/6451346813513131","resource":{"resourceType":"Encounter","id":"ee653268-bf1d-404f-9b81-1e227cdb5691","meta":{"profile":["http://hl7.org/fhir/us/qicore/StructureDefinition/qicore-encounter"]},"status":"finished","class":{"system":"http://terminology.hl7.org/CodeSystem/v3-ActCode","code":"AMB","display":"ambulatory encounter"},"type":[{"coding":[{"system":"http://www.ama-assn.org/go/cpt","version":"2024","code":"99205"}]}],"subject":{"reference":"Patient/641aaa7a-d227-475a-a648-9c048522b62f"},"period":{"start":"2025-04-05T06:00:00+00:00","end":"2025-04-05T07:00:00+00:00"}},"request":{"method":"PUT","url":"Encounter/ee653268-bf1d-404f-9b81-1e227cdb5691"}},{"fullUrl":"https://madie.cms.gov/Encounter/4646816468651351311","resource":{"resourceType":"Encounter","id":"5e25c83e-226c-449b-b798-64cf5a434a28","meta":{"profile":["http://hl7.org/fhir/us/qicore/StructureDefinition/qicore-encounter"]},"status":"finished","class":{"system":"http://terminology.hl7.org/CodeSystem/v3-ActCode","code":"AMB","display":"ambulatory encounter"},"type":[{"coding":[{"system":"http://www.ama-assn.org/go/cpt","version":"2024","code":"99205"}]}],"subject":{"reference":"Patient/641aaa7a-d227-475a-a648-9c048522b62f"},"period":{"start":"2025-07-08T09:00:00+00:00","end":"2025-07-08T09:00:00+00:00"}},"request":{"method":"PUT","url":"Encounter/5e25c83e-226c-449b-b798-64cf5a434a28"}},{"fullUrl":"https://madie.cms.gov/Condition/4645616461351313516","resource":{"resourceType":"Condition","id":"a958aec6-7484-4050-9b6d-9f9aa7167871","meta":{"profile":["http://hl7.org/fhir/us/qicore/StructureDefinition/qicore-condition"]},"clinicalStatus":{"coding":[{"system":"http://terminology.hl7.org/CodeSystem/condition-clinical","code":"active","display":"Active"}]},"verificationStatus":{"coding":[{"system":"http://terminology.hl7.org/CodeSystem/condition-ver-status","code":"confirmed","display":"Confirmed"}]},"category":[{"coding":[{"system":"http://terminology.hl7.org/CodeSystem/condition-category","code":"problem-list-item","display":"Problem List Item"}]}],"code":{"coding":[{"system":"http://hl7.org/fhir/sid/icd-10-cm","version":"2024","code":"I21.09"}]},"subject":{"reference":"Patient/641aaa7a-d227-475a-a648-9c048522b62f"},"onsetPeriod":{"start":"2025-04-05T06:00:00.000+00:00"}},"request":{"method":"PUT","url":"Condition/a958aec6-7484-4050-9b6d-9f9aa7167871"}},{"fullUrl":"https://madie.cms.gov/Condition/494654684313135131","resource":{"resourceType":"Condition","id":"ff78f1c9-cc67-4eb4-8f2f-ee3361913532","meta":{"profile":["http://hl7.org/fhir/us/qicore/StructureDefinition/qicore-condition"]},"clinicalStatus":{"coding":[{"system":"http://terminology.hl7.org/CodeSystem/condition-clinical","code":"active","display":"Active"}]},"verificationStatus":{"coding":[{"system":"http://terminology.hl7.org/CodeSystem/condition-ver-status","code":"confirmed","display":"Confirmed"}]},"category":[{"coding":[{"system":"http://terminology.hl7.org/CodeSystem/condition-category","code":"problem-list-item","display":"Problem List Item"}]}],"code":{"coding":[{"system":"http://snomed.info/sct","version":"http://snomed.info/sct/731000124108/version/20240301","code":"10365005","display":"Right main coronary artery thrombosis (disorder)"}]},"subject":{"reference":"Patient/641aaa7a-d227-475a-a648-9c048522b62f"},"onsetPeriod":{"start":"2025-04-05T06:00:00.000+00:00"}},"request":{"method":"PUT","url":"Condition/ff78f1c9-cc67-4eb4-8f2f-ee3361913532"}},{"fullUrl":"https://madie.cms.gov/Condition/4648946146468541641351","resource":{"resourceType":"Condition","id":"20dddfe4-539b-4282-b60e-d7f52321985a","meta":{"profile":["http://hl7.org/fhir/us/qicore/StructureDefinition/qicore-condition"]},"clinicalStatus":{"coding":[{"system":"http://terminology.hl7.org/CodeSystem/condition-clinical","code":"active","display":"Active"}]},"verificationStatus":{"coding":[{"system":"http://terminology.hl7.org/CodeSystem/condition-ver-status","code":"confirmed","display":"Confirmed"}]},"category":[{"coding":[{"system":"http://terminology.hl7.org/CodeSystem/condition-category","code":"problem-list-item","display":"Problem List Item"}]}],"code":{"coding":[{"system":"http://snomed.info/sct","version":"http://snomed.info/sct/731000124108/version/20240301","code":"29894000"}]},"subject":{"reference":"Patient/641aaa7a-d227-475a-a648-9c048522b62f"},"onsetDateTime":"2026-01-05T06:00:00+00:00"},"request":{"method":"PUT","url":"Condition/20dddfe4-539b-4282-b60e-d7f52321985a"}},{"fullUrl":"https://madie.cms.gov/MeasureReport/ae46de12-66dc-4b72-a42e-c7df53222932","resource":{"resourceType":"MeasureReport","id":"ae46de12-66dc-4b72-a42e-c7df53222932","meta":{"profile":["http://hl7.org/fhir/us/cqfmeasures/StructureDefinition/test-case-cqfm"]},"contained":[{"resourceType":"Parameters","id":"a652afb6-08e5-4a6a-8a35-87f4b7a29648-parameters","parameter":[{"name":"subject","valueString":"641aaa7a-d227-475a-a648-9c048522b62f"}]}],"extension":[{"url":"http://hl7.org/fhir/us/cqfmeasures/StructureDefinition/cqfm-inputParameters","valueReference":{"reference":"#a652afb6-08e5-4a6a-8a35-87f4b7a29648-parameters"}},{"url":"http://hl7.org/fhir/us/cqfmeasures/StructureDefinition/cqfm-testCaseDescription","valueMarkdown":"Pt > 18, 2 visits during MP, MI and CAD (both with onset during 1st visit), and Bradycardia onset year after MP"}],"modifierExtension":[{"url":"http://hl7.org/fhir/us/cqfmeasures/StructureDefinition/cqfm-isTestCase","valueBoolean":true}],"status":"complete","type":"individual","measure":"https://madie.cms.gov/Measure/CADBetaBlockerTherapyPriorMIorLVSDFHIR","period":{"start":"2025-01-01","end":"2025-12-31"},"group":[{"population":[{"code":{"coding":[{"system":"http://terminology.hl7.org/CodeSystem/measure-population","code":"initial-population","display":"Initial Population"}]},"count":1},{"code":{"coding":[{"system":"http://terminology.hl7.org/CodeSystem/measure-population","code":"denominator","display":"Denominator"}]},"count":0},{"code":{"coding":[{"system":"http://terminology.hl7.org/CodeSystem/measure-population","code":"numerator","display":"Numerator"}]},"count":0},{"code":{"coding":[{"system":"http://terminology.hl7.org/CodeSystem/measure-population","code":"denominator-exception","display":"Denominator Exception"}]},"count":0}]},{"population":[{"code":{"coding":[{"system":"http://terminology.hl7.org/CodeSystem/measure-population","code":"initial-population","display":"Initial Population"}]},"count":1},{"code":{"coding":[{"system":"http://terminology.hl7.org/CodeSystem/measure-population","code":"denominator","display":"Denominator"}]},"count":1},{"code":{"coding":[{"system":"http://terminology.hl7.org/CodeSystem/measure-population","code":"numerator","display":"Numerator"}]},"count":0},{"code":{"coding":[{"system":"http://terminology.hl7.org/CodeSystem/measure-population","code":"denominator-exception","display":"Denominator Exception"}]},"count":0}]}]},"request":{"method":"PUT","url":"MeasureReport/ae46de12-66dc-4b72-a42e-c7df53222932"}}]}