{"resourceType":"Bundle","id":"tests-79e4e453-f52d-41a1-a86b-4229a89733c4-bundle","type":"transaction","entry":[{"fullUrl":"https://madie.cms.gov/Patient/79e4e453-f52d-41a1-a86b-4229a89733c4","resource":{"resourceType":"Patient","id":"79e4e453-f52d-41a1-a86b-4229a89733c4","meta":{"profile":["http://hl7.org/fhir/us/qicore/StructureDefinition/qicore-patient"]},"extension":[{"url":"http://hl7.org/fhir/us/core/StructureDefinition/us-core-race","extension":[{"url":"ombCategory","valueCoding":{"system":"urn:oid:2.16.840.1.113883.6.238","code":"1002-5","display":"American Indian or Alaska Native"}},{"url":"text","valueString":"American Indian or Alaska Native"}]},{"url":"http://hl7.org/fhir/us/core/StructureDefinition/us-core-ethnicity","extension":[{"url":"ombCategory","valueCoding":{"system":"urn:oid:2.16.840.1.113883.6.238","code":"2186-5","display":"Not Hispanic or Latino"}},{"url":"text","valueString":"Not Hispanic or Latino"}]}],"identifier":[{"type":{"coding":[{"system":"http://terminology.hl7.org/CodeSystem/v2-0203","code":"MR"}]},"system":"https://bonnie-fhir.healthit.gov/","value":"684613146846131"}],"active":true,"name":[{"use":"usual","family":"DENOMPop1Pass","given":["LVSD"]}],"gender":"female","birthDate":"1957-11-01"},"request":{"method":"PUT","url":"Patient/79e4e453-f52d-41a1-a86b-4229a89733c4"}},{"fullUrl":"https://madie.cms.gov/Encounter/968461316468543131","resource":{"resourceType":"Encounter","id":"43b8bb69-e10c-433b-9a6a-65369fcfbe9e","meta":{"profile":["http://hl7.org/fhir/us/qicore/StructureDefinition/qicore-encounter"]},"status":"finished","class":{"system":"http://terminology.hl7.org/CodeSystem/v3-ActCode","code":"AMB","display":"ambulatory"},"type":[{"coding":[{"system":"http://www.ama-assn.org/go/cpt","version":"2024","code":"99202","display":"Office or other outpatient visit for the evaluation and management of a new patient, which requires a medically appropriate history and/or examination and straightforward medical decision making. When using time for code selection, 15-29 minutes of total time is spent on the date of the encounter."}]}],"subject":{"reference":"Patient/79e4e453-f52d-41a1-a86b-4229a89733c4"},"period":{"start":"2025-01-22T11:30:00+00:00","end":"2025-01-22T12:30:00+00:00"},"length":{"value":0,"unit":"days"}},"request":{"method":"PUT","url":"Encounter/43b8bb69-e10c-433b-9a6a-65369fcfbe9e"}},{"fullUrl":"https://madie.cms.gov/Encounter/6135131316313130","resource":{"resourceType":"Encounter","id":"6ea6272b-e914-4bec-88b4-5d49614f6f05","meta":{"profile":["http://hl7.org/fhir/us/qicore/StructureDefinition/qicore-encounter"]},"status":"finished","class":{"system":"http://terminology.hl7.org/CodeSystem/v3-ActCode","code":"AMB","display":"ambulatory"},"type":[{"coding":[{"system":"http://www.ama-assn.org/go/cpt","version":"2024","code":"99212","display":"Office or other outpatient visit for the evaluation and management of an established patient, which requires a medically appropriate history and/or examination and straightforward medical decision making. When using time for code selection, 10-19 minutes of total time is spent on the date of the encounter."}]}],"subject":{"reference":"Patient/79e4e453-f52d-41a1-a86b-4229a89733c4"},"period":{"start":"2025-11-22T07:30:00+00:00","end":"2025-11-22T08:30:00+00:00"},"length":{"value":0,"unit":"days"}},"request":{"method":"PUT","url":"Encounter/6ea6272b-e914-4bec-88b4-5d49614f6f05"}},{"fullUrl":"https://madie.cms.gov/Condition/984651313132","resource":{"resourceType":"Condition","id":"eaf476a9-9eaf-4913-892c-8d94c3b6c361","meta":{"profile":["http://hl7.org/fhir/us/qicore/StructureDefinition/qicore-condition"]},"clinicalStatus":{"coding":[{"system":"http://terminology.hl7.org/CodeSystem/condition-clinical","code":"active","display":"Active"}]},"verificationStatus":{"coding":[{"system":"http://terminology.hl7.org/CodeSystem/condition-ver-status","code":"confirmed","display":"Confirmed"}]},"category":[{"coding":[{"system":"http://terminology.hl7.org/CodeSystem/condition-category","code":"problem-list-item","display":"Problem List Item"}]}],"severity":{"coding":[{"system":"http://snomed.info/sct","version":"http://snomed.info/sct/731000124108/version/20240301","code":"24484000","display":"Severe (severity modifier) (qualifier value)"}]},"code":{"coding":[{"system":"http://snomed.info/sct","version":"http://snomed.info/sct/731000124108/version/20240301","code":"134401001"}]},"subject":{"reference":"Patient/79e4e453-f52d-41a1-a86b-4229a89733c4"},"onsetPeriod":{"start":"2025-01-22T11:30:00+00:00","end":"2025-01-22T11:30:00+00:00"}},"request":{"method":"PUT","url":"Condition/eaf476a9-9eaf-4913-892c-8d94c3b6c361"}},{"fullUrl":"https://madie.cms.gov/Condition/5c954d9bb848462de0ae6e4c","resource":{"resourceType":"Condition","id":"198a2448-196f-47ec-bedf-0d53fe7bf0cb","meta":{"profile":["http://hl7.org/fhir/us/qicore/StructureDefinition/qicore-condition"]},"clinicalStatus":{"coding":[{"system":"http://terminology.hl7.org/CodeSystem/condition-clinical","code":"active","display":"Active"}]},"verificationStatus":{"coding":[{"system":"http://terminology.hl7.org/CodeSystem/condition-ver-status","code":"confirmed","display":"Confirmed"}]},"category":[{"coding":[{"system":"http://terminology.hl7.org/CodeSystem/condition-category","code":"problem-list-item","display":"Problem List Item"}]}],"code":{"coding":[{"system":"http://snomed.info/sct","version":"http://snomed.info/sct/731000124108/version/20240301","code":"10365005","display":"Right main coronary artery thrombosis (disorder)"}]},"subject":{"reference":"Patient/79e4e453-f52d-41a1-a86b-4229a89733c4"},"onsetPeriod":{"start":"2025-01-21T07:00:00.000+00:00"}},"request":{"method":"PUT","url":"Condition/198a2448-196f-47ec-bedf-0d53fe7bf0cb"}},{"fullUrl":"https://madie.cms.gov/Condition/987498131313131","resource":{"resourceType":"Condition","id":"447d61db-25ad-4886-be75-578fede0cf66","meta":{"profile":["http://hl7.org/fhir/us/qicore/StructureDefinition/qicore-condition"]},"clinicalStatus":{"coding":[{"system":"http://terminology.hl7.org/CodeSystem/condition-clinical","code":"active","display":"Active"}]},"category":[{"coding":[{"system":"http://terminology.hl7.org/CodeSystem/condition-category","code":"problem-list-item","display":"Problem List Item"}]}],"code":{"coding":[{"system":"http://snomed.info/sct","version":"http://snomed.info/sct/731000124108/version/20240301","code":"981000124106","display":"Moderate left ventricular systolic dysfunction (disorder)"}]},"subject":{"reference":"Patient/79e4e453-f52d-41a1-a86b-4229a89733c4"},"onsetPeriod":{"start":"2025-01-22T11:30:00.000+00:00","end":"2025-01-22T11:30:00.000+00:00"}},"request":{"method":"PUT","url":"Condition/447d61db-25ad-4886-be75-578fede0cf66"}},{"fullUrl":"https://madie.cms.gov/MeasureReport/f10e049d-aa90-4e60-b52d-c53df94fb520","resource":{"resourceType":"MeasureReport","id":"f10e049d-aa90-4e60-b52d-c53df94fb520","meta":{"profile":["http://hl7.org/fhir/us/cqfmeasures/StructureDefinition/test-case-cqfm"]},"contained":[{"resourceType":"Parameters","id":"f2d9887a-994a-4088-bde6-6e5d9a0a0983-parameters","parameter":[{"name":"subject","valueString":"79e4e453-f52d-41a1-a86b-4229a89733c4"}]}],"extension":[{"url":"http://hl7.org/fhir/us/cqfmeasures/StructureDefinition/cqfm-inputParameters","valueReference":{"reference":"#f2d9887a-994a-4088-bde6-6e5d9a0a0983-parameters"}},{"url":"http://hl7.org/fhir/us/cqfmeasures/StructureDefinition/cqfm-testCaseDescription","valueMarkdown":"Pt > 18, two ambulatory visits during MP, a CAD Dx with onset before first visit, and onset of moderate LVSD Dx'd during first visit"}],"modifierExtension":[{"url":"http://hl7.org/fhir/us/cqfmeasures/StructureDefinition/cqfm-isTestCase","valueBoolean":true}],"status":"complete","type":"individual","measure":"https://madie.cms.gov/Measure/CADBetaBlockerTherapyPriorMIorLVSDFHIR","period":{"start":"2025-01-01","end":"2025-12-31"},"group":[{"population":[{"code":{"coding":[{"system":"http://terminology.hl7.org/CodeSystem/measure-population","code":"initial-population","display":"Initial Population"}]},"count":1},{"code":{"coding":[{"system":"http://terminology.hl7.org/CodeSystem/measure-population","code":"denominator","display":"Denominator"}]},"count":1},{"code":{"coding":[{"system":"http://terminology.hl7.org/CodeSystem/measure-population","code":"numerator","display":"Numerator"}]},"count":0},{"code":{"coding":[{"system":"http://terminology.hl7.org/CodeSystem/measure-population","code":"denominator-exception","display":"Denominator Exception"}]},"count":0}]},{"population":[{"code":{"coding":[{"system":"http://terminology.hl7.org/CodeSystem/measure-population","code":"initial-population","display":"Initial Population"}]},"count":1},{"code":{"coding":[{"system":"http://terminology.hl7.org/CodeSystem/measure-population","code":"denominator","display":"Denominator"}]},"count":0},{"code":{"coding":[{"system":"http://terminology.hl7.org/CodeSystem/measure-population","code":"numerator","display":"Numerator"}]},"count":0},{"code":{"coding":[{"system":"http://terminology.hl7.org/CodeSystem/measure-population","code":"denominator-exception","display":"Denominator Exception"}]},"count":0}]}]},"request":{"method":"PUT","url":"MeasureReport/f10e049d-aa90-4e60-b52d-c53df94fb520"}}]}