{"resourceType":"Bundle","id":"tests-13ce1b7d-3af6-4ef3-a4ae-6cd7c3075be8-bundle","type":"transaction","entry":[{"fullUrl":"https://madie.cms.gov/Patient/13ce1b7d-3af6-4ef3-a4ae-6cd7c3075be8","resource":{"resourceType":"Patient","id":"13ce1b7d-3af6-4ef3-a4ae-6cd7c3075be8","meta":{"profile":["http://hl7.org/fhir/us/qicore/StructureDefinition/qicore-patient"]},"extension":[{"url":"http://hl7.org/fhir/us/core/StructureDefinition/us-core-race","extension":[{"url":"ombCategory","valueCoding":{"system":"urn:oid:2.16.840.1.113883.6.238","code":"1002-5","display":"American Indian or Alaska Native"}},{"url":"text","valueString":"American Indian or Alaska Native"}]},{"url":"http://hl7.org/fhir/us/core/StructureDefinition/us-core-ethnicity","extension":[{"url":"ombCategory","valueCoding":{"system":"urn:oid:2.16.840.1.113883.6.238","code":"2186-5","display":"Not Hispanic or Latino"}},{"url":"text","valueString":"Not Hispanic or Latino"}]}],"identifier":[{"type":{"coding":[{"system":"http://terminology.hl7.org/CodeSystem/v2-0203","code":"MR"}]},"system":"https://bonnie-fhir.healthit.gov/","value":"68465413513131313"}],"active":true,"name":[{"use":"usual","family":"DENEXCEPPop1Fail","given":["HypotensionAfterEncounter"]}],"gender":"female","birthDate":"1946-03-24"},"request":{"method":"PUT","url":"Patient/13ce1b7d-3af6-4ef3-a4ae-6cd7c3075be8"}},{"fullUrl":"https://madie.cms.gov/Encounter/494651346846153131","resource":{"resourceType":"Encounter","id":"ec2e81e1-77cc-43bd-a61f-af7a09883c22","meta":{"profile":["http://hl7.org/fhir/us/qicore/StructureDefinition/qicore-encounter"]},"status":"finished","class":{"system":"http://terminology.hl7.org/CodeSystem/v3-ActCode","code":"AMB","display":"ambulatory encounter"},"type":[{"coding":[{"system":"http://www.ama-assn.org/go/cpt","version":"2024","code":"99205"}]}],"subject":{"reference":"Patient/13ce1b7d-3af6-4ef3-a4ae-6cd7c3075be8"},"period":{"start":"2025-04-05T06:00:00+00:00","end":"2025-04-05T07:00:00+00:00"}},"request":{"method":"PUT","url":"Encounter/ec2e81e1-77cc-43bd-a61f-af7a09883c22"}},{"fullUrl":"https://madie.cms.gov/Encounter/794651351641351131","resource":{"resourceType":"Encounter","id":"7670317e-2d08-40fe-80f8-1d80fd738291","meta":{"profile":["http://hl7.org/fhir/us/qicore/StructureDefinition/qicore-encounter"]},"status":"finished","class":{"system":"http://terminology.hl7.org/CodeSystem/v3-ActCode","code":"AMB","display":"ambulatory encounter"},"type":[{"coding":[{"system":"http://www.ama-assn.org/go/cpt","version":"2024","code":"99205"}]}],"subject":{"reference":"Patient/13ce1b7d-3af6-4ef3-a4ae-6cd7c3075be8"},"period":{"start":"2025-07-08T09:00:00+00:00","end":"2025-07-08T09:00:00+00:00"}},"request":{"method":"PUT","url":"Encounter/7670317e-2d08-40fe-80f8-1d80fd738291"}},{"fullUrl":"https://madie.cms.gov/Condition/48468413468461351313","resource":{"resourceType":"Condition","id":"45520f2e-2ac9-4ea7-b8a3-88a4be46f751","meta":{"profile":["http://hl7.org/fhir/us/qicore/StructureDefinition/qicore-condition"]},"clinicalStatus":{"coding":[{"system":"http://terminology.hl7.org/CodeSystem/condition-clinical","code":"active","display":"Active"}]},"verificationStatus":{"coding":[{"system":"http://terminology.hl7.org/CodeSystem/condition-ver-status","code":"confirmed","display":"Confirmed"}]},"category":[{"coding":[{"system":"http://terminology.hl7.org/CodeSystem/condition-category","code":"problem-list-item","display":"Problem List Item"}]}],"code":{"coding":[{"system":"http://snomed.info/sct","version":"http://snomed.info/sct/731000124108/version/20240301","code":"981000124106","display":"Moderate left ventricular systolic dysfunction (disorder)"}]},"subject":{"reference":"Patient/13ce1b7d-3af6-4ef3-a4ae-6cd7c3075be8"},"onsetPeriod":{"start":"2025-04-05T06:00:00.000+00:00"}},"request":{"method":"PUT","url":"Condition/45520f2e-2ac9-4ea7-b8a3-88a4be46f751"}},{"fullUrl":"https://madie.cms.gov/Condition/794641646413513131","resource":{"resourceType":"Condition","id":"ebced6c5-c252-44fb-a707-848d6357fa09","meta":{"profile":["http://hl7.org/fhir/us/qicore/StructureDefinition/qicore-condition"]},"clinicalStatus":{"coding":[{"system":"http://terminology.hl7.org/CodeSystem/condition-clinical","code":"active","display":"Active"}]},"verificationStatus":{"coding":[{"system":"http://terminology.hl7.org/CodeSystem/condition-ver-status","code":"confirmed","display":"Confirmed"}]},"category":[{"coding":[{"system":"http://terminology.hl7.org/CodeSystem/condition-category","code":"problem-list-item","display":"Problem List Item"}]}],"code":{"coding":[{"system":"http://snomed.info/sct","version":"http://snomed.info/sct/731000124108/version/20240301","code":"10365005","display":"Right main coronary artery thrombosis (disorder)"}]},"subject":{"reference":"Patient/13ce1b7d-3af6-4ef3-a4ae-6cd7c3075be8"},"onsetPeriod":{"start":"2025-04-05T06:00:00.000+00:00"}},"request":{"method":"PUT","url":"Condition/ebced6c5-c252-44fb-a707-848d6357fa09"}},{"fullUrl":"https://madie.cms.gov/Condition/789465135468135154","resource":{"resourceType":"Condition","id":"3014e5fc-1310-428b-b4e9-5ab41b20b2b6","meta":{"profile":["http://hl7.org/fhir/us/qicore/StructureDefinition/qicore-condition"]},"clinicalStatus":{"coding":[{"system":"http://terminology.hl7.org/CodeSystem/condition-clinical","code":"active","display":"Active"}]},"verificationStatus":{"coding":[{"system":"http://terminology.hl7.org/CodeSystem/condition-ver-status","code":"confirmed","display":"Confirmed"}]},"category":[{"coding":[{"system":"http://terminology.hl7.org/CodeSystem/condition-category","code":"problem-list-item","display":"Problem List Item"}]}],"code":{"coding":[{"system":"http://snomed.info/sct","version":"http://snomed.info/sct/731000124108/version/20240301","code":"195506001","display":"Idiopathic hypotension (disorder)"}]},"subject":{"reference":"Patient/13ce1b7d-3af6-4ef3-a4ae-6cd7c3075be8"},"onsetPeriod":{"start":"2025-12-05T06:00:00+00:00"}},"request":{"method":"PUT","url":"Condition/3014e5fc-1310-428b-b4e9-5ab41b20b2b6"}},{"fullUrl":"https://madie.cms.gov/MeasureReport/51e15117-ff4b-47c8-9a84-943b1472de40","resource":{"resourceType":"MeasureReport","id":"51e15117-ff4b-47c8-9a84-943b1472de40","meta":{"profile":["http://hl7.org/fhir/us/cqfmeasures/StructureDefinition/test-case-cqfm"]},"contained":[{"resourceType":"Parameters","id":"28e27708-3bc0-4ed6-9d3a-01ccfe1357cf-parameters","parameter":[{"name":"subject","valueString":"13ce1b7d-3af6-4ef3-a4ae-6cd7c3075be8"}]}],"extension":[{"url":"http://hl7.org/fhir/us/cqfmeasures/StructureDefinition/cqfm-inputParameters","valueReference":{"reference":"#28e27708-3bc0-4ed6-9d3a-01ccfe1357cf-parameters"}},{"url":"http://hl7.org/fhir/us/cqfmeasures/StructureDefinition/cqfm-testCaseDescription","valueMarkdown":"Pt > 18, 2 visits during MP, Moderate LVSD and CAD (both with onset during 1st visit), and Hypotension after 2nd visit"}],"modifierExtension":[{"url":"http://hl7.org/fhir/us/cqfmeasures/StructureDefinition/cqfm-isTestCase","valueBoolean":true}],"status":"complete","type":"individual","measure":"https://madie.cms.gov/Measure/CADBetaBlockerTherapyPriorMIorLVSDFHIR","period":{"start":"2025-01-01","end":"2025-12-31"},"group":[{"population":[{"code":{"coding":[{"system":"http://terminology.hl7.org/CodeSystem/measure-population","code":"initial-population","display":"Initial Population"}]},"count":1},{"code":{"coding":[{"system":"http://terminology.hl7.org/CodeSystem/measure-population","code":"denominator","display":"Denominator"}]},"count":1},{"code":{"coding":[{"system":"http://terminology.hl7.org/CodeSystem/measure-population","code":"numerator","display":"Numerator"}]},"count":0},{"code":{"coding":[{"system":"http://terminology.hl7.org/CodeSystem/measure-population","code":"denominator-exception","display":"Denominator Exception"}]},"count":0}]},{"population":[{"code":{"coding":[{"system":"http://terminology.hl7.org/CodeSystem/measure-population","code":"initial-population","display":"Initial Population"}]},"count":1},{"code":{"coding":[{"system":"http://terminology.hl7.org/CodeSystem/measure-population","code":"denominator","display":"Denominator"}]},"count":0},{"code":{"coding":[{"system":"http://terminology.hl7.org/CodeSystem/measure-population","code":"numerator","display":"Numerator"}]},"count":0},{"code":{"coding":[{"system":"http://terminology.hl7.org/CodeSystem/measure-population","code":"denominator-exception","display":"Denominator Exception"}]},"count":0}]}]},"request":{"method":"PUT","url":"MeasureReport/51e15117-ff4b-47c8-9a84-943b1472de40"}}]}