{"resourceType":"Bundle","id":"tests-40b4796d-dba8-4232-8cb4-8daf5d13a554-bundle","type":"transaction","entry":[{"fullUrl":"https://madie.cms.gov/Patient/40b4796d-dba8-4232-8cb4-8daf5d13a554","resource":{"resourceType":"Patient","id":"40b4796d-dba8-4232-8cb4-8daf5d13a554","meta":{"profile":["http://hl7.org/fhir/us/qicore/StructureDefinition/qicore-patient"]},"extension":[{"url":"http://hl7.org/fhir/us/core/StructureDefinition/us-core-race","extension":[{"url":"ombCategory","valueCoding":{"system":"urn:oid:2.16.840.1.113883.6.238","code":"1002-5","display":"American Indian or Alaska Native"}},{"url":"text","valueString":"American Indian or Alaska Native"}]},{"url":"http://hl7.org/fhir/us/core/StructureDefinition/us-core-ethnicity","extension":[{"url":"ombCategory","valueCoding":{"system":"urn:oid:2.16.840.1.113883.6.238","code":"2186-5","display":"Not Hispanic or Latino"}},{"url":"text","valueString":"Not Hispanic or Latino"}]}],"identifier":[{"type":{"coding":[{"system":"http://terminology.hl7.org/CodeSystem/v2-0203","code":"MR"}]},"system":"https://bonnie-fhir.healthit.gov/","value":"654613165163513"}],"active":true,"name":[{"use":"usual","family":"NUMERPop1Fail","given":["OverlapsAfterSameDay"]}],"gender":"male","birthDate":"1967-12-14"},"request":{"method":"PUT","url":"Patient/40b4796d-dba8-4232-8cb4-8daf5d13a554"}},{"fullUrl":"https://madie.cms.gov/Encounter/5c954d9cb848462de0ae6eee","resource":{"resourceType":"Encounter","id":"8a99aa8c-01ed-4d6d-8d56-64cb156b6bd0","meta":{"profile":["http://hl7.org/fhir/us/qicore/StructureDefinition/qicore-encounter"]},"status":"finished","class":{"system":"http://terminology.hl7.org/CodeSystem/v3-ActCode","code":"AMB","display":"ambulatory encounter"},"type":[{"coding":[{"system":"http://snomed.info/sct","version":"http://snomed.info/sct/731000124108/version/20240301","code":"185463005"}]}],"subject":{"reference":"Patient/40b4796d-dba8-4232-8cb4-8daf5d13a554"},"period":{"start":"2025-03-04T20:00:00+00:00","end":"2025-03-04T20:00:00+00:00"},"length":{"value":0,"unit":"days"}},"request":{"method":"PUT","url":"Encounter/8a99aa8c-01ed-4d6d-8d56-64cb156b6bd0"}},{"fullUrl":"https://madie.cms.gov/Encounter/5c954d9cb848462de0ae6eef","resource":{"resourceType":"Encounter","id":"cf7e887d-c07d-4a3e-a7fa-459ac27f8dda","meta":{"profile":["http://hl7.org/fhir/us/qicore/StructureDefinition/qicore-encounter"]},"status":"finished","class":{"system":"http://terminology.hl7.org/CodeSystem/v3-ActCode","code":"AMB","display":"ambulatory encounter"},"type":[{"coding":[{"system":"http://www.ama-assn.org/go/cpt","version":"2024","code":"99205"}]}],"subject":{"reference":"Patient/40b4796d-dba8-4232-8cb4-8daf5d13a554"},"period":{"start":"2025-08-23T06:00:00+00:00","end":"2025-08-23T06:00:00+00:00"},"length":{"value":0,"unit":"days"}},"request":{"method":"PUT","url":"Encounter/cf7e887d-c07d-4a3e-a7fa-459ac27f8dda"}},{"fullUrl":"https://madie.cms.gov/Observation/5c954d9cb848462de0ae6ef1","resource":{"resourceType":"Observation","id":"31828bdd-cf61-4aee-8f6b-8db11587b4e1","meta":{"profile":["http://hl7.org/fhir/us/qicore/StructureDefinition/qicore-observation"]},"status":"final","category":[{"coding":[{"system":"http://terminology.hl7.org/CodeSystem/observation-category","code":"imaging","display":"Imaging"}]}],"code":{"coding":[{"system":"http://loinc.org","code":"18049-7"}]},"subject":{"reference":"Patient/40b4796d-dba8-4232-8cb4-8daf5d13a554"},"effectiveDateTime":"2025-03-04T08:00:00.000+00:00","valueQuantity":{"value":30,"unit":"%","system":"http://unitsofmeasure.org","code":"%"}},"request":{"method":"PUT","url":"Observation/31828bdd-cf61-4aee-8f6b-8db11587b4e1"}},{"fullUrl":"https://madie.cms.gov/MedicationRequest/1684946981651163","resource":{"resourceType":"MedicationRequest","id":"029f9a4a-a3fb-4204-a251-47ca2b27a43e","meta":{"profile":["http://hl7.org/fhir/us/qicore/StructureDefinition/qicore-medicationrequest"]},"status":"active","intent":"order","doNotPerform":false,"medicationCodeableConcept":{"coding":[{"system":"http://www.nlm.nih.gov/research/umls/rxnorm","version":"04032023","code":"1999031","display":"24 HR metoprolol succinate 100 MG Extended Release Oral Capsule"}]},"subject":{"reference":"Patient/40b4796d-dba8-4232-8cb4-8daf5d13a554"},"authoredOn":"2024-03-04T10:45:00+00:00","requester":{"reference":"Practitioner/685451313213"},"dosageInstruction":[{"timing":{"repeat":{"boundsPeriod":{"start":"2024-03-04T10:45:00+00:00","end":"2025-08-23T10:00:00+00:00"}}}}]},"request":{"method":"PUT","url":"MedicationRequest/029f9a4a-a3fb-4204-a251-47ca2b27a43e"}},{"fullUrl":"https://madie.cms.gov/Practitioner/685451313213","resource":{"resourceType":"Practitioner","id":"9b1a0887-4d0e-47b7-a31d-d594a766ac21","meta":{"profile":["http://hl7.org/fhir/us/qicore/StructureDefinition/qicore-practitioner"]},"identifier":[{"use":"temp","system":"urn:oid:2.16.840.1.113883.4.336","value":"Practitioner-23"}],"active":true,"name":[{"family":"Careful","given":["Adam"],"prefix":["Dr"]}],"address":[{"use":"home","line":["534 Erewhon St"],"city":"PleasantVille","state":"UT","postalCode":"84414"}],"qualification":[{"identifier":[{"system":"http://example.org/UniversityIdentifier","value":"12345"}],"code":{"coding":[{"system":"http://terminology.hl7.org/CodeSystem/v2-0360|2.7","code":"BS","display":"Bachelor of Science"}],"text":"Bachelor of Science"},"period":{"start":"1995"},"issuer":{"display":"Example University"}}]},"request":{"method":"PUT","url":"Practitioner/9b1a0887-4d0e-47b7-a31d-d594a766ac21"}},{"fullUrl":"https://madie.cms.gov/Condition/10354165435135134","resource":{"resourceType":"Condition","id":"f80c2bf4-9064-42be-a759-22be2c6da749","meta":{"profile":["http://hl7.org/fhir/us/qicore/StructureDefinition/qicore-condition"]},"clinicalStatus":{"coding":[{"system":"http://terminology.hl7.org/CodeSystem/condition-clinical","code":"active","display":"Active"}]},"verificationStatus":{"coding":[{"system":"http://terminology.hl7.org/CodeSystem/condition-ver-status","code":"confirmed","display":"Confirmed"}]},"category":[{"coding":[{"system":"http://terminology.hl7.org/CodeSystem/condition-category","code":"problem-list-item","display":"Problem List Item"}]}],"code":{"coding":[{"system":"http://snomed.info/sct","version":"http://snomed.info/sct/731000124108/version/20240301","code":"10365005","display":"Right main coronary artery thrombosis (disorder)","userSelected":true}]},"subject":{"reference":"Patient/40b4796d-dba8-4232-8cb4-8daf5d13a554"},"onsetPeriod":{"start":"2025-08-23T05:00:00.000+00:00"}},"request":{"method":"PUT","url":"Condition/f80c2bf4-9064-42be-a759-22be2c6da749"}},{"fullUrl":"https://madie.cms.gov/MeasureReport/cc5bf159-acf2-4235-b9e2-ae7bb4314518","resource":{"resourceType":"MeasureReport","id":"cc5bf159-acf2-4235-b9e2-ae7bb4314518","meta":{"profile":["http://hl7.org/fhir/us/cqfmeasures/StructureDefinition/test-case-cqfm"]},"contained":[{"resourceType":"Parameters","id":"8a5b884a-8282-43d0-9fb7-0069e4b25375-parameters","parameter":[{"name":"subject","valueString":"40b4796d-dba8-4232-8cb4-8daf5d13a554"}]}],"extension":[{"url":"http://hl7.org/fhir/us/cqfmeasures/StructureDefinition/cqfm-inputParameters","valueReference":{"reference":"#8a5b884a-8282-43d0-9fb7-0069e4b25375-parameters"}},{"url":"http://hl7.org/fhir/us/cqfmeasures/StructureDefinition/cqfm-testCaseDescription","valueMarkdown":"Pt > 18, 2 visits in MP, a CAD Encounter, a LVEF of 30%, but a medication order b4 1st visit"}],"modifierExtension":[{"url":"http://hl7.org/fhir/us/cqfmeasures/StructureDefinition/cqfm-isTestCase","valueBoolean":true}],"status":"complete","type":"individual","measure":"https://madie.cms.gov/Measure/CADBetaBlockerTherapyPriorMIorLVSDFHIR","period":{"start":"2025-01-01","end":"2025-12-31"},"group":[{"population":[{"code":{"coding":[{"system":"http://terminology.hl7.org/CodeSystem/measure-population","code":"initial-population","display":"Initial Population"}]},"count":1},{"code":{"coding":[{"system":"http://terminology.hl7.org/CodeSystem/measure-population","code":"denominator","display":"Denominator"}]},"count":1},{"code":{"coding":[{"system":"http://terminology.hl7.org/CodeSystem/measure-population","code":"numerator","display":"Numerator"}]},"count":0},{"code":{"coding":[{"system":"http://terminology.hl7.org/CodeSystem/measure-population","code":"denominator-exception","display":"Denominator Exception"}]},"count":0}]},{"population":[{"code":{"coding":[{"system":"http://terminology.hl7.org/CodeSystem/measure-population","code":"initial-population","display":"Initial Population"}]},"count":1},{"code":{"coding":[{"system":"http://terminology.hl7.org/CodeSystem/measure-population","code":"denominator","display":"Denominator"}]},"count":0},{"code":{"coding":[{"system":"http://terminology.hl7.org/CodeSystem/measure-population","code":"numerator","display":"Numerator"}]},"count":0},{"code":{"coding":[{"system":"http://terminology.hl7.org/CodeSystem/measure-population","code":"denominator-exception","display":"Denominator Exception"}]},"count":0}]}]},"request":{"method":"PUT","url":"MeasureReport/cc5bf159-acf2-4235-b9e2-ae7bb4314518"}}]}