{"resourceType":"Bundle","id":"tests-f9a24bdb-a835-4851-8e50-eb11a5c9fb50-bundle","type":"transaction","entry":[{"fullUrl":"https://madie.cms.gov/Patient/f9a24bdb-a835-4851-8e50-eb11a5c9fb50","resource":{"resourceType":"Patient","id":"f9a24bdb-a835-4851-8e50-eb11a5c9fb50","meta":{"profile":["http://hl7.org/fhir/us/qicore/StructureDefinition/qicore-patient"]},"extension":[{"url":"http://hl7.org/fhir/us/core/StructureDefinition/us-core-race","extension":[{"url":"ombCategory","valueCoding":{"system":"urn:oid:2.16.840.1.113883.6.238","code":"1002-5","display":"American Indian or Alaska Native"}},{"url":"text","valueString":"American Indian or Alaska Native"}]},{"url":"http://hl7.org/fhir/us/core/StructureDefinition/us-core-ethnicity","extension":[{"url":"ombCategory","valueCoding":{"system":"urn:oid:2.16.840.1.113883.6.238","code":"2186-5","display":"Not Hispanic or Latino"}},{"url":"text","valueString":"Not Hispanic or Latino"}]}],"identifier":[{"type":{"coding":[{"system":"http://terminology.hl7.org/CodeSystem/v2-0203","code":"MR"}]},"system":"https://bonnie-fhir.healthit.gov/","value":"4987465161613131321"}],"active":true,"name":[{"use":"usual","family":"DENEXCEPPop2Pass","given":["BetaBlockerAllergy"]}],"gender":"female","birthDate":"1922-03-24"},"request":{"method":"PUT","url":"Patient/f9a24bdb-a835-4851-8e50-eb11a5c9fb50"}},{"fullUrl":"https://madie.cms.gov/Encounter/876513516463164613","resource":{"resourceType":"Encounter","id":"7600aa41-e2d5-4b30-9b35-57d7194715f3","meta":{"profile":["http://hl7.org/fhir/us/qicore/StructureDefinition/qicore-encounter"]},"status":"finished","class":{"system":"http://terminology.hl7.org/CodeSystem/v3-ActCode","code":"AMB","display":"ambulatory encounter"},"type":[{"coding":[{"system":"http://www.ama-assn.org/go/cpt","version":"2024","code":"99205"}]}],"subject":{"reference":"Patient/f9a24bdb-a835-4851-8e50-eb11a5c9fb50"},"period":{"start":"2025-04-05T06:00:00+00:00","end":"2025-04-05T07:00:00+00:00"}},"request":{"method":"PUT","url":"Encounter/7600aa41-e2d5-4b30-9b35-57d7194715f3"}},{"fullUrl":"https://madie.cms.gov/Encounter/87613486461631684","resource":{"resourceType":"Encounter","id":"6fd4a315-1989-4fec-858e-b84b5bfca31e","meta":{"profile":["http://hl7.org/fhir/us/qicore/StructureDefinition/qicore-encounter"]},"status":"finished","class":{"system":"http://terminology.hl7.org/CodeSystem/v3-ActCode","code":"AMB","display":"ambulatory encounter"},"type":[{"coding":[{"system":"http://www.ama-assn.org/go/cpt","version":"2024","code":"99205"}]}],"subject":{"reference":"Patient/f9a24bdb-a835-4851-8e50-eb11a5c9fb50"},"period":{"start":"2025-07-08T09:00:00+00:00","end":"2025-07-08T09:00:00+00:00"}},"request":{"method":"PUT","url":"Encounter/6fd4a315-1989-4fec-858e-b84b5bfca31e"}},{"fullUrl":"https://madie.cms.gov/Condition/78941351681351351","resource":{"resourceType":"Condition","id":"352df5a0-225b-41f7-b705-70f1ef77cff6","meta":{"profile":["http://hl7.org/fhir/us/qicore/StructureDefinition/qicore-condition"]},"clinicalStatus":{"coding":[{"system":"http://terminology.hl7.org/CodeSystem/condition-clinical","code":"active","display":"Active"}]},"verificationStatus":{"coding":[{"system":"http://terminology.hl7.org/CodeSystem/condition-ver-status","code":"confirmed","display":"Confirmed"}]},"category":[{"coding":[{"system":"http://terminology.hl7.org/CodeSystem/condition-category","code":"problem-list-item","display":"Problem List Item"}]}],"code":{"coding":[{"system":"http://hl7.org/fhir/sid/icd-10-cm","version":"2024","code":"I21.01"}]},"subject":{"reference":"Patient/f9a24bdb-a835-4851-8e50-eb11a5c9fb50"},"onsetPeriod":{"start":"2022-11-22T07:30:00+00:00","end":"2022-11-22T08:30:00+00:00"}},"request":{"method":"PUT","url":"Condition/352df5a0-225b-41f7-b705-70f1ef77cff6"}},{"fullUrl":"https://madie.cms.gov/Condition/54618491651616103","resource":{"resourceType":"Condition","id":"193563ef-9657-4aab-b87b-263df2eb1574","meta":{"profile":["http://hl7.org/fhir/us/qicore/StructureDefinition/qicore-condition"]},"clinicalStatus":{"coding":[{"system":"http://terminology.hl7.org/CodeSystem/condition-clinical","code":"active","display":"Active"}]},"verificationStatus":{"coding":[{"system":"http://terminology.hl7.org/CodeSystem/condition-ver-status","code":"confirmed"}]},"category":[{"coding":[{"system":"http://terminology.hl7.org/CodeSystem/condition-category","code":"problem-list-item","display":"Problem List Item"}]}],"code":{"coding":[{"system":"http://snomed.info/sct","version":"http://snomed.info/sct/731000124108/version/20240301","code":"10365005","display":"Right main coronary artery thrombosis (disorder)"}]},"subject":{"reference":"Patient/f9a24bdb-a835-4851-8e50-eb11a5c9fb50"},"onsetPeriod":{"start":"2025-01-21T07:00:00.000+00:00"}},"request":{"method":"PUT","url":"Condition/193563ef-9657-4aab-b87b-263df2eb1574"}},{"fullUrl":"https://madie.cms.gov/AllergyIntolerance/4651654161316351685","resource":{"resourceType":"AllergyIntolerance","id":"0bad8b25-1d4e-4f95-95ba-b214fc6cfd64","meta":{"profile":["http://hl7.org/fhir/us/qicore/StructureDefinition/qicore-allergyintolerance"]},"clinicalStatus":{"coding":[{"system":"http://terminology.hl7.org/CodeSystem/allergyintolerance-clinical","code":"active"}]},"verificationStatus":{"coding":[{"system":"http://terminology.hl7.org/CodeSystem/allergyintolerance-verification","code":"confirmed"}]},"type":"allergy","criticality":"high","code":{"coding":[{"system":"http://snomed.info/sct","version":"http://snomed.info/sct/731000124108/version/20240301","code":"373254001","display":"Substance with beta adrenergic receptor antagonist mechanism of action (substance)"}]},"patient":{"reference":"Patient/f9a24bdb-a835-4851-8e50-eb11a5c9fb50"},"onsetDateTime":"2021-10-01","recordedDate":"2021-10-01T14:00:00+00:00"},"request":{"method":"PUT","url":"AllergyIntolerance/0bad8b25-1d4e-4f95-95ba-b214fc6cfd64"}},{"fullUrl":"https://madie.cms.gov/MeasureReport/f0e45018-cf70-497c-8a75-00924ab83003","resource":{"resourceType":"MeasureReport","id":"f0e45018-cf70-497c-8a75-00924ab83003","meta":{"profile":["http://hl7.org/fhir/us/cqfmeasures/StructureDefinition/test-case-cqfm"]},"contained":[{"resourceType":"Parameters","id":"56d06795-48e1-4d83-8e84-96d6002b4303-parameters","parameter":[{"name":"subject","valueString":"f9a24bdb-a835-4851-8e50-eb11a5c9fb50"}]}],"extension":[{"url":"http://hl7.org/fhir/us/cqfmeasures/StructureDefinition/cqfm-inputParameters","valueReference":{"reference":"#56d06795-48e1-4d83-8e84-96d6002b4303-parameters"}},{"url":"http://hl7.org/fhir/us/cqfmeasures/StructureDefinition/cqfm-testCaseDescription","valueMarkdown":"Pt > 18, 2 amb. visits during MP, a MI Dx with onset > 2 yrs before MP, a CAD Dx with onset during MP but before 1st visit, and a beta adrenergic receptor allergy start > 3 years before MP and ongoing"}],"modifierExtension":[{"url":"http://hl7.org/fhir/us/cqfmeasures/StructureDefinition/cqfm-isTestCase","valueBoolean":true}],"status":"complete","type":"individual","measure":"https://madie.cms.gov/Measure/CADBetaBlockerTherapyPriorMIorLVSDFHIR","period":{"start":"2025-01-01","end":"2025-12-31"},"group":[{"population":[{"code":{"coding":[{"system":"http://terminology.hl7.org/CodeSystem/measure-population","code":"initial-population","display":"Initial Population"}]},"count":1},{"code":{"coding":[{"system":"http://terminology.hl7.org/CodeSystem/measure-population","code":"denominator","display":"Denominator"}]},"count":0},{"code":{"coding":[{"system":"http://terminology.hl7.org/CodeSystem/measure-population","code":"numerator","display":"Numerator"}]},"count":0},{"code":{"coding":[{"system":"http://terminology.hl7.org/CodeSystem/measure-population","code":"denominator-exception","display":"Denominator Exception"}]},"count":0}]},{"population":[{"code":{"coding":[{"system":"http://terminology.hl7.org/CodeSystem/measure-population","code":"initial-population","display":"Initial Population"}]},"count":1},{"code":{"coding":[{"system":"http://terminology.hl7.org/CodeSystem/measure-population","code":"denominator","display":"Denominator"}]},"count":1},{"code":{"coding":[{"system":"http://terminology.hl7.org/CodeSystem/measure-population","code":"numerator","display":"Numerator"}]},"count":0},{"code":{"coding":[{"system":"http://terminology.hl7.org/CodeSystem/measure-population","code":"denominator-exception","display":"Denominator Exception"}]},"count":1}]}]},"request":{"method":"PUT","url":"MeasureReport/f0e45018-cf70-497c-8a75-00924ab83003"}}]}