{
  "resourceType": "Bundle",
  "id": "denomfail-missingresults",
  "type": "transaction",
  "entry": [ {
    "fullUrl": "https://madie.cms.gov/Patient/7da634ce-7f31-438c-9ae0-3426405a1a0e",
    "resource": {
      "resourceType": "Patient",
      "id": "7da634ce-7f31-438c-9ae0-3426405a1a0e",
      "meta": {
        "profile": [ "http://hl7.org/fhir/us/core/StructureDefinition/us-core-patient", "http://hl7.org/fhir/us/qicore/StructureDefinition/qicore-patient" ]
      },
      "extension": [ {
        "url": "http://hl7.org/fhir/us/core/StructureDefinition/us-core-race",
        "extension": [ {
          "url": "ombCategory",
          "valueCoding": {
            "system": "urn:oid:2.16.840.1.113883.6.238",
            "code": "2028-9",
            "display": "Asian"
          }
        }, {
          "url": "text",
          "valueString": "Asian"
        } ]
      }, {
        "url": "http://hl7.org/fhir/us/core/StructureDefinition/us-core-ethnicity",
        "extension": [ {
          "url": "ombCategory",
          "valueCoding": {
            "system": "urn:oid:2.16.840.1.113883.6.238",
            "code": "2135-2",
            "display": "Hispanic or Latino"
          }
        }, {
          "url": "text",
          "valueString": "Hispanic or Latino"
        } ]
      } ],
      "identifier": [ {
        "system": "http://hospital.smarthealthit.org",
        "value": "999999995"
      } ],
      "name": [ {
        "family": "MissingResults",
        "given": [ "DENOMFail" ]
      } ],
      "gender": "female",
      "birthDate": "1986-06-12"
    },
    "request": {
      "method": "PUT",
      "url": "Patient/7da634ce-7f31-438c-9ae0-3426405a1a0e"
    }
  }, {
    "fullUrl": "https://madie.cms.gov/Observation/9c833f9f-4ac3-4f93-b76b-88c55568b874",
    "resource": {
      "resourceType": "Observation",
      "id": "9c833f9f-4ac3-4f93-b76b-88c55568b874",
      "meta": {
        "profile": [ "http://hl7.org/fhir/us/qicore/StructureDefinition/qicore-observation" ]
      },
      "status": "final",
      "category": [ {
        "coding": [ {
          "system": "http://terminology.hl7.org/CodeSystem/observation-category",
          "code": "imaging",
          "display": "Imaging"
        } ]
      } ],
      "code": {
        "coding": [ {
          "system": "http://loinc.org",
          "code": "96914-7",
          "display": "CT dose and image quality category"
        } ],
        "text": "CT dose and image quality category"
      },
      "subject": {
        "reference": "Patient/7da634ce-7f31-438c-9ae0-3426405a1a0e"
      },
      "effectiveDateTime": "2025-03-02T00:00:00.000Z",
      "valueCodeableConcept": {
        "coding": [ {
          "system": "http://loinc.org",
          "code": "LA31753-9",
          "display": "Abdomen and Pelvis Routine Dose"
        } ]
      }
    },
    "request": {
      "method": "PUT",
      "url": "Observation/9c833f9f-4ac3-4f93-b76b-88c55568b874"
    }
  }, {
    "fullUrl": "https://madie.cms.gov/MeasureReport/1efc565d-5d6b-49e6-ad73-29017307f1bb",
    "resource": {
      "resourceType": "MeasureReport",
      "id": "1efc565d-5d6b-49e6-ad73-29017307f1bb",
      "meta": {
        "profile": [ "http://hl7.org/fhir/us/cqfmeasures/StructureDefinition/test-case-cqfm" ]
      },
      "contained": [ {
        "resourceType": "Parameters",
        "id": "6028efec-43a6-4281-82d1-3d80609af27d-parameters",
        "parameter": [ {
          "name": "subject",
          "valueString": "7da634ce-7f31-438c-9ae0-3426405a1a0e"
        } ]
      } ],
      "extension": [ {
        "url": "http://hl7.org/fhir/us/cqfmeasures/StructureDefinition/cqfm-inputParameters",
        "valueReference": {
          "reference": "#6028efec-43a6-4281-82d1-3d80609af27d-parameters"
        }
      }, {
        "url": "http://hl7.org/fhir/us/cqfmeasures/StructureDefinition/cqfm-testCaseDescription",
        "valueMarkdown": "Patient has a valid scan but it is missing result values"
      } ],
      "modifierExtension": [ {
        "url": "http://hl7.org/fhir/us/cqfmeasures/StructureDefinition/cqfm-isTestCase",
        "valueBoolean": true
      } ],
      "status": "complete",
      "type": "individual",
      "measure": "https://madie.cms.gov/Measure/AlaraCTClinicalFHIR",
      "period": {
        "start": "2025-01-01",
        "end": "2025-12-31"
      },
      "group": [ {
        "population": [ {
          "code": {
            "coding": [ {
              "system": "http://terminology.hl7.org/CodeSystem/measure-population",
              "code": "initial-population",
              "display": "Initial Population"
            } ]
          },
          "count": 1
        }, {
          "code": {
            "coding": [ {
              "system": "http://terminology.hl7.org/CodeSystem/measure-population",
              "code": "denominator",
              "display": "Denominator"
            } ]
          },
          "count": 0
        }, {
          "code": {
            "coding": [ {
              "system": "http://terminology.hl7.org/CodeSystem/measure-population",
              "code": "denominator-exclusion",
              "display": "Denominator Exclusion"
            } ]
          },
          "count": 0
        }, {
          "code": {
            "coding": [ {
              "system": "http://terminology.hl7.org/CodeSystem/measure-population",
              "code": "numerator",
              "display": "Numerator"
            } ]
          },
          "count": 0
        } ]
      } ],
      "evaluatedResource": [ {
        "reference": "Patient/7da634ce-7f31-438c-9ae0-3426405a1a0e"
      }, {
        "reference": "Observation/9c833f9f-4ac3-4f93-b76b-88c55568b874"
      } ]
    },
    "request": {
      "method": "PUT",
      "url": "MeasureReport/1efc565d-5d6b-49e6-ad73-29017307f1bb"
    }
  } ]
}