{"resourceType":"Bundle","id":"tests-8f713481-66ba-4a58-be92-91b8c7212959-bundle","type":"transaction","entry":[{"fullUrl":"https://madie.cms.gov/Patient/8f713481-66ba-4a58-be92-91b8c7212959","resource":{"resourceType":"Patient","id":"8f713481-66ba-4a58-be92-91b8c7212959","meta":{"profile":["http://hl7.org/fhir/us/qicore/StructureDefinition/qicore-patient"]},"extension":[{"url":"http://hl7.org/fhir/us/core/StructureDefinition/us-core-race","extension":[{"url":"ombCategory","valueCoding":{"system":"urn:oid:2.16.840.1.113883.6.238","code":"2028-9","display":"Asian","userSelected":true}},{"url":"text","valueString":"Asian"}]},{"url":"http://hl7.org/fhir/us/core/StructureDefinition/us-core-ethnicity","extension":[{"url":"ombCategory","valueCoding":{"system":"urn:oid:2.16.840.1.113883.6.238","code":"2135-2","display":"Hispanic or Latino","userSelected":true}},{"url":"text","valueString":"Hispanic or Latino"}]}],"identifier":[{"type":{"coding":[{"system":"http://terminology.hl7.org/CodeSystem/v2-0203","code":"MR"}]},"system":"http://hospital.smarthealthit.org","value":"999999995"}],"name":[{"family":"Bertha","given":["Betty"]}],"gender":"female","birthDate":"1960-01-01"},"request":{"method":"PUT","url":"Patient/8f713481-66ba-4a58-be92-91b8c7212959"}},{"fullUrl":"https://madie.cms.gov/Encounter/Encounter-40","resource":{"resourceType":"Encounter","id":"746996ba-70ea-4c26-bf90-a950db85b77b","meta":{"profile":["http://hl7.org/fhir/us/qicore/StructureDefinition/qicore-encounter"]},"status":"finished","class":{"system":"http://terminology.hl7.org/CodeSystem/v3-ActCode","code":"AMB","display":"ambulatory"},"type":[{"coding":[{"system":"http://snomed.info/sct","code":"185317003","display":"Telephone contact by consultant (procedure)"}]}],"subject":{"reference":"Patient/8f713481-66ba-4a58-be92-91b8c7212959"},"period":{"start":"2025-01-01T00:00:00.000Z","end":"2025-01-01T01:15:00.000Z"}},"request":{"method":"PUT","url":"Encounter/746996ba-70ea-4c26-bf90-a950db85b77b"}},{"fullUrl":"https://madie.cms.gov/MedicationRequest/MedicationRequest-40","resource":{"resourceType":"MedicationRequest","id":"42e91645-726f-46c8-a8e4-ed1131fb1b41","meta":{"profile":["http://hl7.org/fhir/us/qicore/StructureDefinition/qicore-medicationrequest"]},"status":"active","intent":"order","category":[{"coding":[{"system":"http://terminology.hl7.org/CodeSystem/medicationrequest-category","code":"discharge","display":"Discharge"}]}],"medicationCodeableConcept":{"coding":[{"system":"http://www.nlm.nih.gov/research/umls/rxnorm","code":"1490727","display":"indomethacin 20 MG Oral Capsule","userSelected":true}]},"subject":{"reference":"Patient/8f713481-66ba-4a58-be92-91b8c7212959"},"authoredOn":"2025-01-01T00:00:00.000Z","requester":{"reference":"Practitioner/example"}},"request":{"method":"PUT","url":"MedicationRequest/42e91645-726f-46c8-a8e4-ed1131fb1b41"}},{"fullUrl":"https://madie.cms.gov/MedicationRequest/MedicationRequest-41","resource":{"resourceType":"MedicationRequest","id":"e9ed0a2a-d017-416d-87f3-1862b81897a5","meta":{"profile":["http://hl7.org/fhir/us/qicore/StructureDefinition/qicore-medicationrequest"]},"status":"active","intent":"order","category":[{"coding":[{"system":"http://terminology.hl7.org/CodeSystem/medicationrequest-category","code":"discharge","display":"Discharge"}]}],"medicationCodeableConcept":{"coding":[{"system":"http://www.nlm.nih.gov/research/umls/rxnorm","code":"1490727","display":"indomethacin 20 MG Oral Capsule","userSelected":true}]},"subject":{"reference":"Patient/8f713481-66ba-4a58-be92-91b8c7212959"},"authoredOn":"2025-01-02T00:00:00.000Z","requester":{"reference":"Practitioner/example"}},"request":{"method":"PUT","url":"MedicationRequest/e9ed0a2a-d017-416d-87f3-1862b81897a5"}},{"fullUrl":"https://madie.cms.gov/MeasureReport/cfaa25c0-f7bb-4dea-ae49-68a4bc3cbff1","resource":{"resourceType":"MeasureReport","id":"cfaa25c0-f7bb-4dea-ae49-68a4bc3cbff1","meta":{"profile":["http://hl7.org/fhir/us/cqfmeasures/StructureDefinition/test-case-cqfm"]},"contained":[{"resourceType":"Parameters","id":"c65d19f9-10e3-4d47-99bd-11514851ca6e-parameters","parameter":[{"name":"subject","valueString":"8f713481-66ba-4a58-be92-91b8c7212959"}]}],"extension":[{"url":"http://hl7.org/fhir/us/cqfmeasures/StructureDefinition/cqfm-inputParameters","valueReference":{"reference":"#c65d19f9-10e3-4d47-99bd-11514851ca6e-parameters"}},{"url":"http://hl7.org/fhir/us/cqfmeasures/StructureDefinition/cqfm-testCaseDescription","valueMarkdown":"Pain meds ordered on different days"}],"modifierExtension":[{"url":"http://hl7.org/fhir/us/cqfmeasures/StructureDefinition/cqfm-isTestCase","valueBoolean":true}],"status":"complete","type":"individual","measure":"https://madie.cms.gov/Measure/UseofHighRiskMedicationsintheElderlyFHIR","period":{"start":"2025-01-01","end":"2025-12-31"},"group":[{"population":[{"code":{"coding":[{"system":"http://terminology.hl7.org/CodeSystem/measure-population","code":"initial-population","display":"Initial Population"}]},"count":1},{"code":{"coding":[{"system":"http://terminology.hl7.org/CodeSystem/measure-population","code":"denominator","display":"Denominator"}]},"count":1},{"code":{"coding":[{"system":"http://terminology.hl7.org/CodeSystem/measure-population","code":"denominator-exclusion","display":"Denominator Exclusion"}]},"count":0},{"code":{"coding":[{"system":"http://terminology.hl7.org/CodeSystem/measure-population","code":"numerator","display":"Numerator"}]},"count":1}]},{"population":[{"code":{"coding":[{"system":"http://terminology.hl7.org/CodeSystem/measure-population","code":"initial-population","display":"Initial Population"}]},"count":1},{"code":{"coding":[{"system":"http://terminology.hl7.org/CodeSystem/measure-population","code":"denominator","display":"Denominator"}]},"count":1},{"code":{"coding":[{"system":"http://terminology.hl7.org/CodeSystem/measure-population","code":"denominator-exclusion","display":"Denominator Exclusion"}]},"count":0},{"code":{"coding":[{"system":"http://terminology.hl7.org/CodeSystem/measure-population","code":"numerator","display":"Numerator"}]},"count":0}]},{"population":[{"code":{"coding":[{"system":"http://terminology.hl7.org/CodeSystem/measure-population","code":"initial-population","display":"Initial Population"}]},"count":1},{"code":{"coding":[{"system":"http://terminology.hl7.org/CodeSystem/measure-population","code":"denominator","display":"Denominator"}]},"count":1},{"code":{"coding":[{"system":"http://terminology.hl7.org/CodeSystem/measure-population","code":"denominator-exclusion","display":"Denominator Exclusion"}]},"count":0},{"code":{"coding":[{"system":"http://terminology.hl7.org/CodeSystem/measure-population","code":"numerator","display":"Numerator"}]},"count":1}]}]},"request":{"method":"PUT","url":"MeasureReport/cfaa25c0-f7bb-4dea-ae49-68a4bc3cbff1"}}]}