{"resourceType":"Bundle","id":"tests-ce747de2-3f8f-4ad8-8370-3ed53b990094-bundle","type":"transaction","entry":[{"fullUrl":"https://madie.cms.gov/Patient/ce747de2-3f8f-4ad8-8370-3ed53b990094","resource":{"resourceType":"Patient","id":"ce747de2-3f8f-4ad8-8370-3ed53b990094","meta":{"profile":["http://hl7.org/fhir/us/qicore/StructureDefinition/qicore-patient"]},"extension":[{"url":"http://hl7.org/fhir/us/core/StructureDefinition/us-core-race","extension":[{"url":"ombCategory","valueCoding":{"system":"urn:oid:2.16.840.1.113883.6.238","code":"2028-9","display":"Asian","userSelected":true}},{"url":"text","valueString":"Asian"}]},{"url":"http://hl7.org/fhir/us/core/StructureDefinition/us-core-ethnicity","extension":[{"url":"ombCategory","valueCoding":{"system":"urn:oid:2.16.840.1.113883.6.238","code":"2135-2","display":"Hispanic or Latino","userSelected":true}},{"url":"text","valueString":"Hispanic or Latino"}]}],"identifier":[{"type":{"coding":[{"system":"http://terminology.hl7.org/CodeSystem/v2-0203","code":"MR"}]},"system":"http://hospital.smarthealthit.org","value":"999999995"}],"name":[{"family":"Bertha","given":["Betty"]}],"gender":"male","birthDate":"2007-01-01"},"request":{"method":"PUT","url":"Patient/ce747de2-3f8f-4ad8-8370-3ed53b990094"}},{"fullUrl":"https://madie.cms.gov/Encounter/Encounter-1","resource":{"resourceType":"Encounter","id":"f71637a0-11bd-42f0-b96c-54f5f168cbb3","meta":{"profile":["http://hl7.org/fhir/us/qicore/StructureDefinition/qicore-encounter"]},"status":"finished","class":{"system":"http://terminology.hl7.org/CodeSystem/v3-ActCode","code":"AMB","display":"ambulatory"},"type":[{"coding":[{"system":"http://www.ama-assn.org/go/cpt","code":"90791","display":"Psychiatric diagnostic evaluation"}]}],"subject":{"reference":"Patient/ce747de2-3f8f-4ad8-8370-3ed53b990094"},"period":{"start":"2025-01-01T00:00:00.000Z","end":"2025-01-01T01:00:00.000Z"}},"request":{"method":"PUT","url":"Encounter/f71637a0-11bd-42f0-b96c-54f5f168cbb3"}},{"fullUrl":"https://madie.cms.gov/MedicationDispense/MedicationDispense-1","resource":{"resourceType":"MedicationDispense","id":"eb190a31-28f8-49a1-a9de-25ae261a5637","meta":{"profile":["http://hl7.org/fhir/us/qicore/StructureDefinition/qicore-medicationdispense"]},"status":"completed","medicationCodeableConcept":{"coding":[{"system":"http://www.nlm.nih.gov/research/umls/rxnorm","code":"1099316","display":"desipramine hydrochloride 75 MG Oral Tablet"}]},"subject":{"reference":"Patient/ce747de2-3f8f-4ad8-8370-3ed53b990094"},"daysSupply":{"value":10,"system":"http://unitsofmeasure.org","code":"days"},"whenHandedOver":"2025-01-01T01:00:00.000Z"},"request":{"method":"PUT","url":"MedicationDispense/eb190a31-28f8-49a1-a9de-25ae261a5637"}},{"fullUrl":"https://madie.cms.gov/MedicationDispense/MedicationDispense-2","resource":{"resourceType":"MedicationDispense","id":"8052a5c6-4345-4b87-8e91-9d8f3ea1e909","meta":{"profile":["http://hl7.org/fhir/us/qicore/StructureDefinition/qicore-medicationdispense"]},"status":"completed","medicationCodeableConcept":{"coding":[{"system":"http://www.nlm.nih.gov/research/umls/rxnorm","code":"1099316","display":"desipramine hydrochloride 75 MG Oral Tablet"}]},"subject":{"reference":"Patient/ce747de2-3f8f-4ad8-8370-3ed53b990094"},"daysSupply":{"value":10,"system":"http://unitsofmeasure.org","code":"days"},"whenHandedOver":"2025-03-01T01:00:00.000Z"},"request":{"method":"PUT","url":"MedicationDispense/8052a5c6-4345-4b87-8e91-9d8f3ea1e909"}},{"fullUrl":"https://madie.cms.gov/Condition/Condition-1","resource":{"resourceType":"Condition","id":"9683caaf-7af6-4982-9f29-3a48dbc9043b","meta":{"profile":["http://hl7.org/fhir/us/qicore/StructureDefinition/qicore-condition"]},"clinicalStatus":{"coding":[{"system":"http://terminology.hl7.org/CodeSystem/condition-clinical","code":"active"}]},"category":[{"coding":[{"system":"http://terminology.hl7.org/CodeSystem/condition-category","code":"problem-list-item","display":"Problem List Item"}]}],"code":{"coding":[{"system":"http://snomed.info/sct","code":"15193003","display":"Severe recurrent major depression with psychotic features, mood-incongruent (disorder)"}]},"subject":{"reference":"Patient/ce747de2-3f8f-4ad8-8370-3ed53b990094"},"onsetDateTime":"2025-01-01T01:00:00.000Z"},"request":{"method":"PUT","url":"Condition/9683caaf-7af6-4982-9f29-3a48dbc9043b"}},{"fullUrl":"https://madie.cms.gov/MeasureReport/65d0c623-3f6b-46be-98fc-8493e1d03dec","resource":{"resourceType":"MeasureReport","id":"65d0c623-3f6b-46be-98fc-8493e1d03dec","meta":{"profile":["http://hl7.org/fhir/us/cqfmeasures/StructureDefinition/test-case-cqfm"]},"contained":[{"resourceType":"Parameters","id":"3658b44a-d88a-422c-b73d-c95995d3c55e-parameters","parameter":[{"name":"subject","valueString":"ce747de2-3f8f-4ad8-8370-3ed53b990094"}]}],"extension":[{"url":"http://hl7.org/fhir/us/cqfmeasures/StructureDefinition/cqfm-inputParameters","valueReference":{"reference":"#3658b44a-d88a-422c-b73d-c95995d3c55e-parameters"}},{"url":"http://hl7.org/fhir/us/cqfmeasures/StructureDefinition/cqfm-testCaseDescription","valueMarkdown":"Qualifying encounter is Psych Visit Diagnostic Evaluation"}],"modifierExtension":[{"url":"http://hl7.org/fhir/us/cqfmeasures/StructureDefinition/cqfm-isTestCase","valueBoolean":true}],"status":"complete","type":"individual","measure":"https://madie.cms.gov/Measure/AntidepressantMedicationManagementFHIR","period":{"start":"2025-01-01","end":"2025-12-31"},"group":[{"population":[{"code":{"coding":[{"system":"http://terminology.hl7.org/CodeSystem/measure-population","code":"initial-population","display":"Initial Population"}]},"count":1},{"code":{"coding":[{"system":"http://terminology.hl7.org/CodeSystem/measure-population","code":"denominator","display":"Denominator"}]},"count":1},{"code":{"coding":[{"system":"http://terminology.hl7.org/CodeSystem/measure-population","code":"denominator-exclusion","display":"Denominator Exclusion"}]},"count":0},{"code":{"coding":[{"system":"http://terminology.hl7.org/CodeSystem/measure-population","code":"numerator","display":"Numerator"}]},"count":0}]},{"population":[{"code":{"coding":[{"system":"http://terminology.hl7.org/CodeSystem/measure-population","code":"initial-population","display":"Initial Population"}]},"count":1},{"code":{"coding":[{"system":"http://terminology.hl7.org/CodeSystem/measure-population","code":"denominator","display":"Denominator"}]},"count":1},{"code":{"coding":[{"system":"http://terminology.hl7.org/CodeSystem/measure-population","code":"denominator-exclusion","display":"Denominator Exclusion"}]},"count":0},{"code":{"coding":[{"system":"http://terminology.hl7.org/CodeSystem/measure-population","code":"numerator","display":"Numerator"}]},"count":0}]}]},"request":{"method":"PUT","url":"MeasureReport/65d0c623-3f6b-46be-98fc-8493e1d03dec"}}]}