{"resourceType":"Bundle","id":"tests-ee6d52b0-149c-4ffe-b260-bb214151652c-bundle","type":"transaction","entry":[{"fullUrl":"https://madie.cms.gov/Patient/ee6d52b0-149c-4ffe-b260-bb214151652c","resource":{"resourceType":"Patient","id":"ee6d52b0-149c-4ffe-b260-bb214151652c","meta":{"profile":["http://hl7.org/fhir/us/qicore/StructureDefinition/qicore-patient"]},"extension":[{"url":"http://hl7.org/fhir/us/core/StructureDefinition/us-core-race","extension":[{"url":"ombCategory","valueCoding":{"system":"urn:oid:2.16.840.1.113883.6.238","code":"2028-9","display":"Asian","userSelected":true}},{"url":"text","valueString":"Asian"}]},{"url":"http://hl7.org/fhir/us/core/StructureDefinition/us-core-ethnicity","extension":[{"url":"ombCategory","valueCoding":{"system":"urn:oid:2.16.840.1.113883.6.238","code":"2135-2","display":"Hispanic or Latino","userSelected":true}},{"url":"text","valueString":"Hispanic or Latino"}]}],"identifier":[{"type":{"coding":[{"system":"http://terminology.hl7.org/CodeSystem/v2-0203","code":"MR"}]},"system":"http://hospital.smarthealthit.org","value":"999999995"}],"name":[{"family":"Bertha","given":["Betty"]}],"gender":"male","birthDate":"2007-01-01"},"request":{"method":"PUT","url":"Patient/ee6d52b0-149c-4ffe-b260-bb214151652c"}},{"fullUrl":"https://madie.cms.gov/Encounter/Encounter-1","resource":{"resourceType":"Encounter","id":"05205351-05a0-48cb-a10e-d973226e070b","meta":{"profile":["http://hl7.org/fhir/us/qicore/StructureDefinition/qicore-encounter"]},"status":"finished","class":{"system":"http://terminology.hl7.org/CodeSystem/v3-ActCode","code":"AMB","display":"ambulatory"},"type":[{"coding":[{"system":"http://snomed.info/sct","code":"3391000175108","display":"Office visit for pediatric care and assessment (procedure)"}]}],"subject":{"reference":"Patient/ee6d52b0-149c-4ffe-b260-bb214151652c"},"period":{"start":"2025-01-01T00:00:00.000Z","end":"2025-01-01T01:00:00.000Z"}},"request":{"method":"PUT","url":"Encounter/05205351-05a0-48cb-a10e-d973226e070b"}},{"fullUrl":"https://madie.cms.gov/MedicationDispense/MedicationDispense-1","resource":{"resourceType":"MedicationDispense","id":"c241617a-006a-4609-b135-23568ce18f65","meta":{"profile":["http://hl7.org/fhir/us/qicore/StructureDefinition/qicore-medicationdispense"]},"status":"completed","medicationCodeableConcept":{"coding":[{"system":"http://www.nlm.nih.gov/research/umls/rxnorm","code":"1099316","display":"desipramine hydrochloride 75 MG Oral Tablet"}]},"subject":{"reference":"Patient/ee6d52b0-149c-4ffe-b260-bb214151652c"},"daysSupply":{"value":10,"system":"http://unitsofmeasure.org","code":"days"},"whenHandedOver":"2025-01-01T01:00:00.000Z"},"request":{"method":"PUT","url":"MedicationDispense/c241617a-006a-4609-b135-23568ce18f65"}},{"fullUrl":"https://madie.cms.gov/MedicationDispense/MedicationDispense-2","resource":{"resourceType":"MedicationDispense","id":"efd08918-6341-4e99-b63e-7fd0c3ae61c5","meta":{"profile":["http://hl7.org/fhir/us/qicore/StructureDefinition/qicore-medicationdispense"]},"status":"completed","medicationCodeableConcept":{"coding":[{"system":"http://www.nlm.nih.gov/research/umls/rxnorm","code":"1099316","display":"desipramine hydrochloride 75 MG Oral Tablet"}]},"subject":{"reference":"Patient/ee6d52b0-149c-4ffe-b260-bb214151652c"},"daysSupply":{"value":10,"system":"http://unitsofmeasure.org","code":"days"},"whenHandedOver":"2025-03-01T01:00:00.000Z"},"request":{"method":"PUT","url":"MedicationDispense/efd08918-6341-4e99-b63e-7fd0c3ae61c5"}},{"fullUrl":"https://madie.cms.gov/Condition/Condition-1","resource":{"resourceType":"Condition","id":"07daeebb-55fa-42ba-8588-fedffa685010","meta":{"profile":["http://hl7.org/fhir/us/qicore/StructureDefinition/qicore-condition"]},"clinicalStatus":{"coding":[{"system":"http://terminology.hl7.org/CodeSystem/condition-clinical","code":"active"}]},"category":[{"coding":[{"system":"http://terminology.hl7.org/CodeSystem/condition-category","code":"problem-list-item","display":"Problem List Item"}]}],"code":{"coding":[{"system":"http://snomed.info/sct","code":"15193003","display":"Severe recurrent major depression with psychotic features, mood-incongruent (disorder)"}]},"subject":{"reference":"Patient/ee6d52b0-149c-4ffe-b260-bb214151652c"},"onsetDateTime":"2025-01-01T01:00:00.000Z"},"request":{"method":"PUT","url":"Condition/07daeebb-55fa-42ba-8588-fedffa685010"}},{"fullUrl":"https://madie.cms.gov/Procedure/Procedure-1","resource":{"resourceType":"Procedure","id":"95d4d29d-6c2e-463f-84ac-ab775ed53a4b","meta":{"profile":["http://hl7.org/fhir/us/qicore/StructureDefinition/qicore-procedure"]},"extension":[{"url":"http://hl7.org/fhir/us/qicore/StructureDefinition/qicore-recorded","valueDateTime":"2025-12-31T00:00:00.000Z"}],"status":"completed","code":{"coding":[{"system":"http://snomed.info/sct","code":"385763009","display":"Hospice care (regime/therapy)"}]},"subject":{"reference":"Patient/ee6d52b0-149c-4ffe-b260-bb214151652c"},"performedPeriod":{"start":"2025-12-31T00:00:00.000Z","end":"2025-12-31T23:59:59.000Z"}},"request":{"method":"PUT","url":"Procedure/95d4d29d-6c2e-463f-84ac-ab775ed53a4b"}},{"fullUrl":"https://madie.cms.gov/MeasureReport/a9ba03eb-e4b3-4554-a97e-dc3277353ee4","resource":{"resourceType":"MeasureReport","id":"a9ba03eb-e4b3-4554-a97e-dc3277353ee4","meta":{"profile":["http://hl7.org/fhir/us/cqfmeasures/StructureDefinition/test-case-cqfm"]},"contained":[{"resourceType":"Parameters","id":"20dcbd4b-1aef-4a15-865f-dfa98ab4a0f7-parameters","parameter":[{"name":"subject","valueString":"ee6d52b0-149c-4ffe-b260-bb214151652c"}]}],"extension":[{"url":"http://hl7.org/fhir/us/cqfmeasures/StructureDefinition/cqfm-inputParameters","valueReference":{"reference":"#20dcbd4b-1aef-4a15-865f-dfa98ab4a0f7-parameters"}},{"url":"http://hl7.org/fhir/us/cqfmeasures/StructureDefinition/cqfm-testCaseDescription","valueMarkdown":"Hospice procedure starts during the MP"}],"modifierExtension":[{"url":"http://hl7.org/fhir/us/cqfmeasures/StructureDefinition/cqfm-isTestCase","valueBoolean":true}],"status":"complete","type":"individual","measure":"https://madie.cms.gov/Measure/AntidepressantMedicationManagementFHIR","period":{"start":"2025-01-01","end":"2025-12-31"},"group":[{"population":[{"code":{"coding":[{"system":"http://terminology.hl7.org/CodeSystem/measure-population","code":"initial-population","display":"Initial Population"}]},"count":1},{"code":{"coding":[{"system":"http://terminology.hl7.org/CodeSystem/measure-population","code":"denominator","display":"Denominator"}]},"count":1},{"code":{"coding":[{"system":"http://terminology.hl7.org/CodeSystem/measure-population","code":"denominator-exclusion","display":"Denominator Exclusion"}]},"count":1},{"code":{"coding":[{"system":"http://terminology.hl7.org/CodeSystem/measure-population","code":"numerator","display":"Numerator"}]},"count":0}]},{"population":[{"code":{"coding":[{"system":"http://terminology.hl7.org/CodeSystem/measure-population","code":"initial-population","display":"Initial Population"}]},"count":1},{"code":{"coding":[{"system":"http://terminology.hl7.org/CodeSystem/measure-population","code":"denominator","display":"Denominator"}]},"count":1},{"code":{"coding":[{"system":"http://terminology.hl7.org/CodeSystem/measure-population","code":"denominator-exclusion","display":"Denominator Exclusion"}]},"count":1},{"code":{"coding":[{"system":"http://terminology.hl7.org/CodeSystem/measure-population","code":"numerator","display":"Numerator"}]},"count":0}]}]},"request":{"method":"PUT","url":"MeasureReport/a9ba03eb-e4b3-4554-a97e-dc3277353ee4"}}]}