{
  "resourceType": "Bundle",
  "id": "60f82c2e98086b570510e266",
  "type": "transaction",
  "entry": [ {
    "fullUrl": "https://madie.cms.gov/Patient/89275dc4-f4c1-41b5-a215-9c7228933cc0",
    "resource": {
      "resourceType": "Patient",
      "id": "89275dc4-f4c1-41b5-a215-9c7228933cc0",
      "meta": {
        "profile": [ "http://hl7.org/fhir/us/qicore/StructureDefinition/qicore-patient" ]
      },
      "text": {
        "status": "generated",
        "div": "<div xmlns=\"http://www.w3.org/1999/xhtml\"><div class=\"hapiHeaderText\">CMP=1Day_DuringEncIP <b>DENEXPASS </b></div><table class=\"hapiPropertyTable\"><tbody><tr><td>Identifier</td><td>912400d032c570bbcae9bbdbf6e22fb5</td></tr><tr><td>Date of birth</td><td><span>26 September 1975</span></td></tr></tbody></table></div>"
      },
      "extension": [ {
        "url": "http://hl7.org/fhir/us/core/StructureDefinition/us-core-race",
        "extension": [ {
          "url": "ombCategory",
          "valueCoding": {
            "system": "urn:oid:2.16.840.1.113883.6.238",
            "code": "2054-5",
            "display": "Black or African American",
            "userSelected": true
          }
        }, {
          "url": "text",
          "valueString": "Black or African American"
        } ]
      }, {
        "url": "http://hl7.org/fhir/us/core/StructureDefinition/us-core-ethnicity",
        "extension": [ {
          "url": "ombCategory",
          "valueCoding": {
            "system": "urn:oid:2.16.840.1.113883.6.238",
            "code": "2186-5",
            "display": "Not Hispanic or Latino",
            "userSelected": true
          }
        }, {
          "url": "text",
          "valueString": "Not Hispanic or Latino"
        } ]
      } ],
      "identifier": [ {
        "type": {
          "coding": [ {
            "system": "http://terminology.hl7.org/CodeSystem/v2-0203",
            "code": "MR"
          } ]
        },
        "system": "https://bonnie-fhir.healthit.gov/",
        "value": "60f82c2e98086b570510e266"
      } ],
      "active": true,
      "name": [ {
        "use": "usual",
        "family": "DENEXPass",
        "given": [ "CMP=1Day_DuringEncIP" ]
      } ],
      "gender": "female",
      "birthDate": "1975-09-26"
    },
    "request": {
      "method": "POST",
      "url": "Patient/89275dc4-f4c1-41b5-a215-9c7228933cc0"
    }
  }, {
    "fullUrl": "https://madie.cms.gov/Encounter/5c954892b848462de0ae61eb",
    "resource": {
      "resourceType": "Encounter",
      "id": "5c954892b848462de0ae61eb",
      "meta": {
        "profile": [ "http://hl7.org/fhir/us/qicore/StructureDefinition/qicore-encounter" ]
      },
      "status": "finished",
      "class": {
        "system": "http://terminology.hl7.org/CodeSystem/v3-ActCode",
        "code": "EMER",
        "display": "emergency",
        "userSelected": true
      },
      "type": [ {
        "coding": [ {
          "system": "http://snomed.info/sct",
          "code": "4525004"
        } ]
      } ],
      "subject": {
        "reference": "Patient/89275dc4-f4c1-41b5-a215-9c7228933cc0"
      },
      "period": {
        "start": "2025-10-10T04:00:00+00:00",
        "end": "2025-10-10T06:15:00+00:00"
      },
      "length": {
        "value": 0,
        "unit": "days"
      }
    },
    "request": {
      "method": "POST",
      "url": "Encounter/5c954892b848462de0ae61eb"
    }
  }, {
    "fullUrl": "https://madie.cms.gov/Encounter/5c954892b848462de0ae61ec",
    "resource": {
      "resourceType": "Encounter",
      "id": "5c954892b848462de0ae61ec",
      "meta": {
        "profile": [ "http://hl7.org/fhir/us/qicore/StructureDefinition/qicore-encounter" ]
      },
      "status": "finished",
      "class": {
        "system": "http://terminology.hl7.org/CodeSystem/v3-ActCode",
        "code": "IMP",
        "display": "inpatient encounter",
        "userSelected": true
      },
      "type": [ {
        "coding": [ {
          "system": "http://snomed.info/sct",
          "code": "32485007"
        } ]
      } ],
      "subject": {
        "reference": "Patient/89275dc4-f4c1-41b5-a215-9c7228933cc0"
      },
      "period": {
        "start": "2025-10-10T06:16:00+00:00",
        "end": "2025-10-12T06:31:00+00:00"
      },
      "length": {
        "value": 2,
        "unit": "days"
      },
      "diagnosis": [ {
        "condition": {
          "reference": "Condition/ischemic-stroke-8a9d"
        },
        "use": {
          "coding": [ {
            "system": "http://terminology.hl7.org/CodeSystem/diagnosis-role",
            "code": "billing",
            "display": "Billing"
          } ]
        },
        "rank": 1
      } ]
    },
    "request": {
      "method": "POST",
      "url": "Encounter/5c954892b848462de0ae61ec"
    }
  }, {
    "fullUrl": "https://madie.cms.gov/Procedure/5c954892b848462de0ae61ee",
    "resource": {
      "resourceType": "Procedure",
      "id": "5c954892b848462de0ae61ee",
      "meta": {
        "profile": [ "http://hl7.org/fhir/us/qicore/StructureDefinition/qicore-procedure" ]
      },
      "extension": [ {
        "url": "http://hl7.org/fhir/us/qicore/StructureDefinition/qicore-recorded",
        "valueDateTime": "2013-04-05T09:35:00-04:00"
      } ],
      "status": "completed",
      "code": {
        "coding": [ {
          "system": "http://snomed.info/sct",
          "code": "133918004"
        } ]
      },
      "subject": {
        "reference": "Patient/89275dc4-f4c1-41b5-a215-9c7228933cc0"
      },
      "performedPeriod": {
        "start": "2025-10-11T23:59:00+00:00"
      }
    },
    "request": {
      "method": "POST",
      "url": "Procedure/5c954892b848462de0ae61ee"
    }
  }, {
    "fullUrl": "https://madie.cms.gov/Coverage/5e20a3681c76ba6c5896ebc9",
    "resource": {
      "resourceType": "Coverage",
      "id": "5e20a3681c76ba6c5896ebc9",
      "status": "active",
      "beneficiary": {
        "reference": "Patient/89275dc4-f4c1-41b5-a215-9c7228933cc0"
      },
      "period": {
        "start": "1975-09-26T08:00:00+00:00"
      },
      "payor": [ {
        "reference": "Organization/123456"
      } ]
    },
    "request": {
      "method": "POST",
      "url": "Coverage/5e20a3681c76ba6c5896ebc9"
    }
  }, {
    "fullUrl": "https://madie.cms.gov/Condition/ischemic-stroke-8a9d",
    "resource": {
      "resourceType": "Condition",
      "id": "ischemic-stroke-8a9d",
      "meta": {
        "profile": [ "http://hl7.org/fhir/us/qicore/StructureDefinition/qicore-condition" ]
      },
      "clinicalStatus": {
        "coding": [ {
          "system": "http://terminology.hl7.org/CodeSystem/condition-clinical",
          "code": "active"
        } ]
      },
      "verificationStatus": {
        "coding": [ {
          "system": "http://terminology.hl7.org/CodeSystem/condition-ver-status",
          "code": "confirmed"
        } ]
      },
      "category": [ {
        "coding": [ {
          "system": "http://terminology.hl7.org/CodeSystem/condition-category",
          "code": "encounter-diagnosis",
          "display": "Encounter Diagnosis"
        } ]
      } ],
      "code": {
        "coding": [ {
          "system": "http://snomed.info/sct",
          "version": "2020-09",
          "code": "111297002",
          "display": "Nonparalytic stroke (disorder)",
          "userSelected": true
        } ]
      },
      "subject": {
        "reference": "Patient/89275dc4-f4c1-41b5-a215-9c7228933cc0"
      },
      "recordedDate": "2025-08-13T08:00:00.000+00:00"
    },
    "request": {
      "method": "POST",
      "url": "Condition/ischemic-stroke-8a9d"
    }
  }, {
    "fullUrl": "https://madie.cms.gov/Organization/123456",
    "resource": {
      "resourceType": "Organization",
      "id": "123456",
      "meta": {
        "profile": [ "http://hl7.org/fhir/us/qicore/StructureDefinition/qicore-organization" ]
      },
      "identifier": [ {
        "use": "temp",
        "system": "urn:oid:2.16.840.1.113883.4.4",
        "value": "21-3259825"
      } ],
      "active": true,
      "type": [ {
        "coding": [ {
          "system": "http://terminology.hl7.org/CodeSystem/organization-type",
          "code": "pay",
          "display": "Payer"
        } ]
      } ],
      "name": "Blue Cross Blue Shield of Texas",
      "telecom": [ {
        "system": "phone",
        "value": "(+1) 972-766-6900"
      } ],
      "address": [ {
        "use": "billing",
        "type": "postal",
        "line": [ "P.O. Box 660044" ],
        "city": "Dallas",
        "state": "TX",
        "postalCode": "75266-0044",
        "country": "USA"
      } ]
    },
    "request": {
      "method": "POST",
      "url": "Organization/123456"
    }
  }, {
    "fullUrl": "https://madie.cms.gov/MeasureReport/26b15678-668c-4ff8-8f53-dba454525296",
    "resource": {
      "resourceType": "MeasureReport",
      "id": "26b15678-668c-4ff8-8f53-dba454525296",
      "meta": {
        "profile": [ "http://hl7.org/fhir/us/cqfmeasures/StructureDefinition/test-case-cqfm" ]
      },
      "contained": [ {
        "resourceType": "Parameters",
        "id": "807f895c-65c3-4f40-ba71-1f214896a8d5-parameters",
        "parameter": [ {
          "name": "subject",
          "valueString": "89275dc4-f4c1-41b5-a215-9c7228933cc0"
        } ]
      } ],
      "extension": [ {
        "url": "http://hl7.org/fhir/us/cqfmeasures/StructureDefinition/cqfm-inputParameters",
        "valueReference": {
          "reference": "#807f895c-65c3-4f40-ba71-1f214896a8d5-parameters"
        }
      }, {
        "url": "http://hl7.org/fhir/us/cqfmeasures/StructureDefinition/cqfm-testCaseDescription",
        "valueMarkdown": "DENEXPass CMP=1Day_DuringEncIP"
      } ],
      "modifierExtension": [ {
        "url": "http://hl7.org/fhir/us/cqfmeasures/StructureDefinition/cqfm-isTestCase",
        "valueBoolean": true
      } ],
      "status": "complete",
      "type": "individual",
      "measure": "https://madie.cms.gov/Measure/AntithromboticTherapyByEndofHospitalDay2FHIR",
      "period": {
        "start": "2025-01-01",
        "end": "2025-12-31"
      },
      "group": [ {
        "population": [ {
          "code": {
            "coding": [ {
              "system": "http://terminology.hl7.org/CodeSystem/measure-population",
              "code": "initial-population",
              "display": "Initial Population"
            } ]
          },
          "count": 1
        }, {
          "code": {
            "coding": [ {
              "system": "http://terminology.hl7.org/CodeSystem/measure-population",
              "code": "denominator",
              "display": "Denominator"
            } ]
          },
          "count": 1
        }, {
          "code": {
            "coding": [ {
              "system": "http://terminology.hl7.org/CodeSystem/measure-population",
              "code": "denominator-exclusion",
              "display": "Denominator Exclusion"
            } ]
          },
          "count": 1
        }, {
          "code": {
            "coding": [ {
              "system": "http://terminology.hl7.org/CodeSystem/measure-population",
              "code": "numerator",
              "display": "Numerator"
            } ]
          },
          "count": 0
        }, {
          "code": {
            "coding": [ {
              "system": "http://terminology.hl7.org/CodeSystem/measure-population",
              "code": "denominator-exception",
              "display": "Denominator Exception"
            } ]
          },
          "count": 0
        } ]
      } ],
      "evaluatedResource": [ {
        "reference": "https://madie.cms.gov/Patient/89275dc4-f4c1-41b5-a215-9c7228933cc0"
      }, {
        "reference": "https://madie.cms.gov/Encounter/5c954892b848462de0ae61eb"
      }, {
        "reference": "https://madie.cms.gov/Encounter/5c954892b848462de0ae61ec"
      }, {
        "reference": "https://madie.cms.gov/Procedure/5c954892b848462de0ae61ee"
      }, {
        "reference": "https://madie.cms.gov/Coverage/5e20a3681c76ba6c5896ebc9"
      }, {
        "reference": "https://madie.cms.gov/Condition/ischemic-stroke-8a9d"
      }, {
        "reference": "https://madie.cms.gov/Organization/123456"
      } ]
    },
    "request": {
      "method": "POST",
      "url": "MeasureReport/26b15678-668c-4ff8-8f53-dba454525296"
    }
  } ]
}