{"resourceType":"Bundle","id":"tests-381d357f-6a0e-495e-bc74-ac5719465903-bundle","type":"transaction","entry":[{"fullUrl":"https://madie.cms.gov/Patient/381d357f-6a0e-495e-bc74-ac5719465903","resource":{"resourceType":"Patient","id":"381d357f-6a0e-495e-bc74-ac5719465903","meta":{"profile":["http://hl7.org/fhir/us/qicore/StructureDefinition/qicore-patient"]},"extension":[{"url":"http://hl7.org/fhir/us/core/StructureDefinition/us-core-race","extension":[{"url":"ombCategory","valueCoding":{"system":"urn:oid:2.16.840.1.113883.6.238","code":"2028-9","display":"Asian"}},{"url":"text","valueString":"Asian"}]},{"url":"http://hl7.org/fhir/us/core/StructureDefinition/us-core-ethnicity","extension":[{"url":"ombCategory","valueCoding":{"system":"urn:oid:2.16.840.1.113883.6.238","code":"2135-2","display":"Hispanic or Latino"}},{"url":"text","valueString":"Hispanic or Latino"}]}],"identifier":[{"system":"http://hospital.smarthealthit.org","value":"999999995"}],"name":[{"family":"Bertha","given":["Betty"]}],"gender":"female","birthDate":"2001-12-31"},"request":{"method":"PUT","url":"Patient/381d357f-6a0e-495e-bc74-ac5719465903"}},{"fullUrl":"https://madie.cms.gov/Encounter/Encounter-29","resource":{"resourceType":"Encounter","id":"1bf35b3a-41f7-4f76-a934-5ff52f0f5051","meta":{"profile":["http://hl7.org/fhir/us/qicore/StructureDefinition/qicore-encounter"]},"status":"finished","class":{"system":"http://terminology.hl7.org/CodeSystem/v3-ActCode","code":"AMB","display":"ambulatory"},"type":[{"coding":[{"system":"http://snomed.info/sct","code":"185317003","display":"Telephone encounter (procedure)"}]}],"subject":{"reference":"Patient/381d357f-6a0e-495e-bc74-ac5719465903"},"period":{"start":"2025-01-01T00:00:00.000Z","end":"2025-01-01T00:15:00.000Z"}},"request":{"method":"PUT","url":"Encounter/1bf35b3a-41f7-4f76-a934-5ff52f0f5051"}},{"fullUrl":"https://madie.cms.gov/ServiceRequest/ServiceRequest-13","resource":{"resourceType":"ServiceRequest","id":"72a8c53f-5aa1-47fb-bbac-548f1f634d1d","meta":{"profile":["http://hl7.org/fhir/us/qicore/StructureDefinition/qicore-servicerequest"]},"extension":[{"url":"http://hl7.org/fhir/StructureDefinition/request-statusReason","valueCodeableConcept":{"coding":[{"system":"http://snomed.info/sct","code":"15635006","display":"Requested by Patient"}]}}],"status":"completed","intent":"order","category":[{"coding":[{"system":"http://snomed.info/sct","code":"387713003","display":"Surgical procedure"}]}],"priority":"routine","code":{"coding":[{"system":"http://loinc.org","code":"19080-1","display":"Choriogonadotropin [Units/volume] in Serum or Plasma"}]},"subject":{"reference":"Patient/381d357f-6a0e-495e-bc74-ac5719465903"},"encounter":{"reference":"Encounter/Encounter-29"},"occurrenceDateTime":"2025-01-01T00:00:00.000Z","authoredOn":"2025-01-01T00:00:00.000Z","performerType":{"coding":[{"system":"http://snomed.info/sct","code":"405279007","display":"Attending physician (occupation)"}]},"reasonCode":[{"coding":[{"system":"http://snomed.info/sct","code":"123614006","display":"Partial Cataract (disorder)"}]}]},"request":{"method":"PUT","url":"ServiceRequest/72a8c53f-5aa1-47fb-bbac-548f1f634d1d"}},{"fullUrl":"https://madie.cms.gov/MedicationRequest/MedicationRequest-4","resource":{"resourceType":"MedicationRequest","id":"8d3a7aef-1be7-43e4-9600-fabceac4061c","meta":{"profile":["http://hl7.org/fhir/us/qicore/StructureDefinition/qicore-medicationrequest"]},"status":"active","intent":"plan","category":[{"coding":[{"system":"http://terminology.hl7.org/CodeSystem/medicationrequest-category","code":"discharge","display":"Discharge"}]}],"medicationCodeableConcept":{"coding":[{"system":"http://www.nlm.nih.gov/research/umls/rxnorm","code":"1547561","display":"isotretinoin 25 MG Oral Capsule","userSelected":true}]},"subject":{"reference":"Patient/381d357f-6a0e-495e-bc74-ac5719465903"},"authoredOn":"2025-01-08T00:00:00.000Z","requester":{"reference":"Practitioner/example"}},"request":{"method":"PUT","url":"MedicationRequest/8d3a7aef-1be7-43e4-9600-fabceac4061c"}},{"fullUrl":"https://madie.cms.gov/MeasureReport/2ee5149b-0030-4ceb-8534-c241c601ef08","resource":{"resourceType":"MeasureReport","id":"2ee5149b-0030-4ceb-8534-c241c601ef08","meta":{"profile":["http://hl7.org/fhir/us/cqfmeasures/StructureDefinition/test-case-cqfm"]},"contained":[{"resourceType":"Parameters","id":"97f30068-abf8-42bb-91c9-757a003ebb2a-parameters","parameter":[{"name":"subject","valueString":"381d357f-6a0e-495e-bc74-ac5719465903"}]}],"extension":[{"url":"http://hl7.org/fhir/us/cqfmeasures/StructureDefinition/cqfm-inputParameters","valueReference":{"reference":"#97f30068-abf8-42bb-91c9-757a003ebb2a-parameters"}},{"url":"http://hl7.org/fhir/us/cqfmeasures/StructureDefinition/cqfm-testCaseDescription","valueMarkdown":"Meds 7 days after a pregnancy  test"}],"modifierExtension":[{"url":"http://hl7.org/fhir/us/cqfmeasures/StructureDefinition/cqfm-isTestCase","valueBoolean":true}],"status":"complete","type":"individual","measure":"https://madie.cms.gov/Measure/ChlamydiaScreeninginWomenFHIR","period":{"start":"2025-01-01","end":"2025-12-31"},"group":[{"population":[{"code":{"coding":[{"system":"http://terminology.hl7.org/CodeSystem/measure-population","code":"initial-population","display":"Initial Population"}]},"count":1},{"code":{"coding":[{"system":"http://terminology.hl7.org/CodeSystem/measure-population","code":"denominator","display":"Denominator"}]},"count":1},{"code":{"coding":[{"system":"http://terminology.hl7.org/CodeSystem/measure-population","code":"denominator-exclusion","display":"Denominator Exclusion"}]},"count":0},{"code":{"coding":[{"system":"http://terminology.hl7.org/CodeSystem/measure-population","code":"numerator","display":"Numerator"}]},"count":0}]}]},"request":{"method":"PUT","url":"MeasureReport/2ee5149b-0030-4ceb-8534-c241c601ef08"}}]}