{
  "resourceType": "Bundle",
  "id": "DENEXFail-66yoInNursingHomeOnJan1AfterInterval",
  "type": "transaction",
  "entry": [ {
    "fullUrl": "https://madie.cms.gov/Patient/6fc33313-98bc-460e-9e38-9240dcbd111a",
    "resource": {
      "resourceType": "Patient",
      "id": "6fc33313-98bc-460e-9e38-9240dcbd111a",
      "meta": {
        "profile": [ "http://hl7.org/fhir/us/qicore/StructureDefinition/qicore-patient" ]
      },
      "extension": [ {
        "url": "http://hl7.org/fhir/us/core/StructureDefinition/us-core-race",
        "extension": [ {
          "url": "ombCategory",
          "valueCoding": {
            "system": "urn:oid:2.16.840.1.113883.6.238",
            "code": "2028-9",
            "display": "Asian"
          }
        }, {
          "url": "text",
          "valueString": "Asian"
        } ]
      }, {
        "url": "http://hl7.org/fhir/us/core/StructureDefinition/us-core-ethnicity",
        "extension": [ {
          "url": "ombCategory",
          "valueCoding": {
            "system": "urn:oid:2.16.840.1.113883.6.238",
            "code": "2135-2",
            "display": "Hispanic or Latino"
          }
        }, {
          "url": "text",
          "valueString": "Hispanic or Latino"
        } ]
      } ],
      "identifier": [ {
        "system": "http://hospital.smarthealthit.org",
        "value": "999999995"
      } ],
      "name": [ {
        "family": "Bertha",
        "given": [ "Betty" ]
      } ],
      "gender": "female",
      "birthDate": "1959-12-31"
    },
    "request": {
      "method": "POST",
      "url": "Patient/6fc33313-98bc-460e-9e38-9240dcbd111a"
    }
  }, {
    "fullUrl": "https://madie.cms.gov/Encounter/Encounter-37",
    "resource": {
      "resourceType": "Encounter",
      "id": "Encounter-37",
      "meta": {
        "profile": [ "http://hl7.org/fhir/us/qicore/StructureDefinition/qicore-encounter" ]
      },
      "status": "finished",
      "class": {
        "system": "http://terminology.hl7.org/CodeSystem/v3-ActCode",
        "code": "AMB",
        "display": "ambulatory"
      },
      "type": [ {
        "coding": [ {
          "system": "http://snomed.info/sct",
          "code": "185463005",
          "display": "Visit out of hours (procedure)"
        } ]
      } ],
      "subject": {
        "reference": "Patient/6fc33313-98bc-460e-9e38-9240dcbd111a"
      },
      "period": {
        "start": "2025-01-01T00:00:00.000Z",
        "end": "2025-01-01T00:00:00.000Z"
      }
    },
    "request": {
      "method": "POST",
      "url": "Encounter/Encounter-37"
    }
  }, {
    "fullUrl": "https://madie.cms.gov/Observation/Observation-37",
    "resource": {
      "resourceType": "Observation",
      "id": "Observation-37",
      "meta": {
        "profile": [ "http://hl7.org/fhir/us/qicore/StructureDefinition/qicore-observation" ]
      },
      "status": "final",
      "category": [ {
        "coding": [ {
          "system": "http://terminology.hl7.org/CodeSystem/observation-category",
          "code": "survey"
        } ]
      } ],
      "code": {
        "coding": [ {
          "system": "http://loinc.org",
          "code": "71802-3",
          "display": "Housing status"
        } ]
      },
      "subject": {
        "reference": "Patient/6fc33313-98bc-460e-9e38-9240dcbd111a"
      },
      "effectivePeriod": {
        "start": "2026-01-01T00:00:00.000Z",
        "end": "2026-01-01T00:00:00.000Z"
      },
      "valueCodeableConcept": {
        "coding": [ {
          "system": "http://snomed.info/sct",
          "code": "160734000",
          "display": "Lives in a nursing home (finding)"
        } ]
      }
    },
    "request": {
      "method": "POST",
      "url": "Observation/Observation-37"
    }
  }, {
    "fullUrl": "https://madie.cms.gov/MeasureReport/fbef9601-f560-4370-b178-ada0dfe75cde",
    "resource": {
      "resourceType": "MeasureReport",
      "id": "fbef9601-f560-4370-b178-ada0dfe75cde",
      "meta": {
        "profile": [ "http://hl7.org/fhir/us/cqfmeasures/StructureDefinition/test-case-cqfm" ]
      },
      "contained": [ {
        "resourceType": "Parameters",
        "id": "9344ce9b-9370-440e-96be-880e78255727-parameters",
        "parameter": [ {
          "name": "subject",
          "valueString": "6fc33313-98bc-460e-9e38-9240dcbd111a"
        } ]
      } ],
      "extension": [ {
        "url": "http://hl7.org/fhir/us/cqfmeasures/StructureDefinition/cqfm-inputParameters",
        "valueReference": {
          "reference": "#9344ce9b-9370-440e-96be-880e78255727-parameters"
        }
      }, {
        "url": "http://hl7.org/fhir/us/cqfmeasures/StructureDefinition/cqfm-testCaseDescription",
        "valueMarkdown": "Patient 66yo w/ an Office Visit Encounter 1/1 of the MP & an Observation AIFrailty Living In Nursing Home that starts on 1/1 the year after the MP."
      } ],
      "modifierExtension": [ {
        "url": "http://hl7.org/fhir/us/cqfmeasures/StructureDefinition/cqfm-isTestCase",
        "valueBoolean": true
      } ],
      "status": "complete",
      "type": "individual",
      "measure": "https://madie.cms.gov/Measure/BreastCancerScreeningFHIR",
      "period": {
        "start": "2025-01-01",
        "end": "2025-12-31"
      },
      "group": [ {
        "population": [ {
          "code": {
            "coding": [ {
              "system": "http://terminology.hl7.org/CodeSystem/measure-population",
              "code": "initial-population",
              "display": "Initial Population"
            } ]
          },
          "count": 1
        }, {
          "code": {
            "coding": [ {
              "system": "http://terminology.hl7.org/CodeSystem/measure-population",
              "code": "denominator",
              "display": "Denominator"
            } ]
          },
          "count": 1
        }, {
          "code": {
            "coding": [ {
              "system": "http://terminology.hl7.org/CodeSystem/measure-population",
              "code": "denominator-exclusion",
              "display": "Denominator Exclusion"
            } ]
          },
          "count": 0
        }, {
          "code": {
            "coding": [ {
              "system": "http://terminology.hl7.org/CodeSystem/measure-population",
              "code": "numerator",
              "display": "Numerator"
            } ]
          },
          "count": 0
        } ]
      } ],
      "evaluatedResource": [ {
        "reference": "https://madie.cms.gov/Patient/6fc33313-98bc-460e-9e38-9240dcbd111a"
      }, {
        "reference": "https://madie.cms.gov/Encounter/Encounter-37"
      }, {
        "reference": "https://madie.cms.gov/Observation/Observation-37"
      } ]
    },
    "request": {
      "method": "POST",
      "url": "MeasureReport/fbef9601-f560-4370-b178-ada0dfe75cde"
    }
  } ]
}