{
  "resourceType": "Bundle",
  "id": "Patient-20-NumPass-ChlamydiaScreenDurMP",
  "type": "transaction",
  "entry": [ {
    "fullUrl": "https://madie.cms.gov/Patient/070ea94d-3bc2-4174-92b0-2c640c785928",
    "resource": {
      "resourceType": "Patient",
      "id": "070ea94d-3bc2-4174-92b0-2c640c785928",
      "meta": {
        "profile": [ "http://hl7.org/fhir/us/qicore/StructureDefinition/qicore-patient" ]
      },
      "extension": [ {
        "url": "http://hl7.org/fhir/us/core/StructureDefinition/us-core-race",
        "extension": [ {
          "url": "ombCategory",
          "valueCoding": {
            "system": "urn:oid:2.16.840.1.113883.6.238",
            "code": "2028-9",
            "display": "Asian"
          }
        }, {
          "url": "text",
          "valueString": "Asian"
        } ]
      }, {
        "url": "http://hl7.org/fhir/us/core/StructureDefinition/us-core-ethnicity",
        "extension": [ {
          "url": "ombCategory",
          "valueCoding": {
            "system": "urn:oid:2.16.840.1.113883.6.238",
            "code": "2135-2",
            "display": "Hispanic or Latino"
          }
        }, {
          "url": "text",
          "valueString": "Hispanic or Latino"
        } ]
      } ],
      "identifier": [ {
        "system": "http://hospital.smarthealthit.org",
        "value": "999999995"
      } ],
      "name": [ {
        "family": "Bertha",
        "given": [ "Betty" ]
      } ],
      "gender": "female",
      "birthDate": "2001-12-31"
    },
    "request": {
      "method": "POST",
      "url": "Patient/070ea94d-3bc2-4174-92b0-2c640c785928"
    }
  }, {
    "fullUrl": "https://madie.cms.gov/Encounter/Encounter-22",
    "resource": {
      "resourceType": "Encounter",
      "id": "Encounter-22",
      "meta": {
        "profile": [ "http://hl7.org/fhir/us/qicore/StructureDefinition/qicore-encounter" ]
      },
      "status": "finished",
      "class": {
        "system": "http://terminology.hl7.org/CodeSystem/v3-ActCode",
        "code": "AMB",
        "display": "ambulatory"
      },
      "type": [ {
        "coding": [ {
          "system": "http://snomed.info/sct",
          "code": "185317003",
          "display": "Telephone encounter (procedure)"
        } ]
      } ],
      "subject": {
        "reference": "Patient/070ea94d-3bc2-4174-92b0-2c640c785928"
      },
      "period": {
        "start": "2025-01-01T00:00:00.000Z",
        "end": "2025-01-01T00:15:00.000Z"
      }
    },
    "request": {
      "method": "POST",
      "url": "Encounter/Encounter-22"
    }
  }, {
    "fullUrl": "https://madie.cms.gov/Condition/Condition-21",
    "resource": {
      "resourceType": "Condition",
      "id": "Condition-21",
      "meta": {
        "profile": [ "http://hl7.org/fhir/us/qicore/StructureDefinition/qicore-condition" ]
      },
      "clinicalStatus": {
        "coding": [ {
          "system": "http://terminology.hl7.org/CodeSystem/condition-clinical",
          "code": "active"
        } ]
      },
      "category": [ {
        "coding": [ {
          "system": "http://terminology.hl7.org/CodeSystem/condition-category",
          "code": "problem-list-item",
          "display": "Problem List Item"
        } ]
      } ],
      "code": {
        "coding": [ {
          "system": "http://snomed.info/sct",
          "code": "111880001",
          "display": "Acute human immunodeficiency virus infection (disorder)"
        } ]
      },
      "subject": {
        "reference": "Patient/070ea94d-3bc2-4174-92b0-2c640c785928"
      },
      "onsetDateTime": "2025-01-01T00:00:00.000Z"
    },
    "request": {
      "method": "POST",
      "url": "Condition/Condition-21"
    }
  }, {
    "fullUrl": "https://madie.cms.gov/Observation/Observation-2",
    "resource": {
      "resourceType": "Observation",
      "id": "Observation-2",
      "meta": {
        "profile": [ "http://hl7.org/fhir/us/qicore/StructureDefinition/qicore-observation" ]
      },
      "status": "final",
      "category": [ {
        "coding": [ {
          "system": "http://terminology.hl7.org/CodeSystem/observation-category",
          "code": "laboratory"
        } ]
      } ],
      "code": {
        "coding": [ {
          "system": "http://loinc.org",
          "code": "14463-4",
          "display": "Chlamydia trachomatis [Presence] in Cervix by Organism specific culture"
        } ]
      },
      "subject": {
        "reference": "Patient/070ea94d-3bc2-4174-92b0-2c640c785928"
      },
      "effectivePeriod": {
        "start": "2025-01-01T00:00:00.000Z",
        "end": "2025-01-01T00:15:00.000Z"
      },
      "valueInteger": 1
    },
    "request": {
      "method": "POST",
      "url": "Observation/Observation-2"
    }
  }, {
    "fullUrl": "https://madie.cms.gov/MeasureReport/ac4de1a1-f797-4630-a596-096ee2008a95",
    "resource": {
      "resourceType": "MeasureReport",
      "id": "ac4de1a1-f797-4630-a596-096ee2008a95",
      "meta": {
        "profile": [ "http://hl7.org/fhir/us/cqfmeasures/StructureDefinition/test-case-cqfm" ]
      },
      "contained": [ {
        "resourceType": "Parameters",
        "id": "2a038a4d-5f2b-430d-a3fa-9bc768f94b75-parameters",
        "parameter": [ {
          "name": "subject",
          "valueString": "070ea94d-3bc2-4174-92b0-2c640c785928"
        } ]
      } ],
      "extension": [ {
        "url": "http://hl7.org/fhir/us/cqfmeasures/StructureDefinition/cqfm-inputParameters",
        "valueReference": {
          "reference": "#2a038a4d-5f2b-430d-a3fa-9bc768f94b75-parameters"
        }
      }, {
        "url": "http://hl7.org/fhir/us/cqfmeasures/StructureDefinition/cqfm-testCaseDescription",
        "valueMarkdown": "Chlamydia screening during the measurement period"
      } ],
      "modifierExtension": [ {
        "url": "http://hl7.org/fhir/us/cqfmeasures/StructureDefinition/cqfm-isTestCase",
        "valueBoolean": true
      } ],
      "status": "complete",
      "type": "individual",
      "measure": "https://madie.cms.gov/Measure/ChlamydiaScreeninginWomenFHIR",
      "period": {
        "start": "2025-01-01",
        "end": "2025-12-31"
      },
      "group": [ {
        "population": [ {
          "code": {
            "coding": [ {
              "system": "http://terminology.hl7.org/CodeSystem/measure-population",
              "code": "initial-population",
              "display": "Initial Population"
            } ]
          },
          "count": 1
        }, {
          "code": {
            "coding": [ {
              "system": "http://terminology.hl7.org/CodeSystem/measure-population",
              "code": "denominator",
              "display": "Denominator"
            } ]
          },
          "count": 1
        }, {
          "code": {
            "coding": [ {
              "system": "http://terminology.hl7.org/CodeSystem/measure-population",
              "code": "denominator-exclusion",
              "display": "Denominator Exclusion"
            } ]
          },
          "count": 0
        }, {
          "code": {
            "coding": [ {
              "system": "http://terminology.hl7.org/CodeSystem/measure-population",
              "code": "numerator",
              "display": "Numerator"
            } ]
          },
          "count": 1
        } ]
      } ],
      "evaluatedResource": [ {
        "reference": "https://madie.cms.gov/Patient/070ea94d-3bc2-4174-92b0-2c640c785928"
      }, {
        "reference": "https://madie.cms.gov/Encounter/Encounter-22"
      }, {
        "reference": "https://madie.cms.gov/Condition/Condition-21"
      }, {
        "reference": "https://madie.cms.gov/Observation/Observation-2"
      } ]
    },
    "request": {
      "method": "POST",
      "url": "MeasureReport/ac4de1a1-f797-4630-a596-096ee2008a95"
    }
  } ]
}